# Time (seconds),Accel_X,Accel_Y,Accel_Z,Gyro_X,Gyro_Y,Gyro_Z
0.0012499,8.96149730682373,-3.6846764087677,1.7717092037200928,14.2822265625,-3.23486328125,0.152587890625
0.0037499,8.959102630615234,-3.687070608139038,1.7812861204147339,14.4195556640625,-3.9215087890625,0.3814697265625
0.0062499,8.96149730682373,-3.687070608139038,1.800439715385437,14.7705078125,-4.2572021484375,0.518798828125
0.0087499,8.973467826843262,-3.687070608139038,1.8267759084701538,14.9993896484375,-4.8370361328125,0.6561279296875
0.0112499,8.992621421813965,-3.6774938106536865,1.8579005002975464,15.2130126953125,-5.31005859375,0.7476806640625
0.0137499,9.011775016784668,-3.663128614425659,1.8794482946395874,15.07568359375,-5.7373046875,0.946044921875
0.016249899999999998,9.016563415527344,-3.643975019454956,1.8938134908676147,14.984130859375,-6.0272216796875,1.3427734375
0.0187499,8.995016098022461,-3.6296098232269287,1.8842366933822632,14.7857666015625,-6.40869140625,1.6632080078125
0.021249900000000002,8.954314231872559,-3.6296098232269287,1.8746598958969116,14.251708984375,-7.14111328125,1.8463134765625
0.023749899999999997,8.892065048217773,-3.6367924213409424,1.8579005002975464,14.404296875,-7.7362060546875,1.953125
0.0262499,8.829815864562988,-3.6535518169403076,1.8626888990402222,14.70947265625,-8.5601806640625,2.0599365234375
0.028749900000000002,8.779537200927734,-3.667917013168335,1.8818424940109253,14.6331787109375,-9.5062255859375,2.01416015625
0.031249899999999997,8.7484130859375,-3.6750996112823486,1.9177556037902832,14.46533203125,-10.5133056640625,2.3040771484375
0.0337499,8.743624687194824,-3.6727054119110107,1.968033790588379,14.129638671875,-11.199951171875,2.410888671875
0.0362499,8.760383605957031,-3.665522813796997,2.027888774871826,13.946533203125,-12.2528076171875,2.410888671875
0.0387499,8.793902397155762,-3.6559460163116455,2.094926595687866,13.824462890625,-13.0767822265625,2.4261474609375
0.0412499,8.83939266204834,-3.6391866207122803,2.164358377456665,13.3819580078125,-13.9007568359375,2.349853515625
0.0437499,8.882488250732422,-3.622427225112915,2.2218191623687744,13.0157470703125,-14.7705078125,2.0294189453125
0.0462499,8.920795440673828,-3.6104562282562256,2.276885747909546,12.786865234375,-15.5029296875,2.01416015625
0.0487499,8.954314231872559,-3.60566782951355,2.3127987384796143,12.1917724609375,-16.1895751953125,1.8768310546875
0.0512499,8.973467826843262,-3.60566782951355,2.341529369354248,11.5509033203125,-16.8304443359375,1.5106201171875
0.053749899999999996,8.983044624328613,-3.6104562282562256,2.3535003662109375,11.1541748046875,-17.3492431640625,1.4190673828125
0.0562499,8.983044624328613,-3.6176388263702393,2.3487119674682617,10.498046875,-18.0816650390625,1.2054443359375
0.0587499,8.978256225585938,-3.6320040225982666,2.3319525718688965,9.918212890625,-18.6767578125,0.9613037109375
0.061249899999999996,8.96149730682373,-3.6535518169403076,2.3032219409942627,9.4757080078125,-19.1802978515625,0.67138671875
0.0637499,8.954314231872559,-3.6798880100250244,2.276885747909546,9.124755859375,-20.1568603515625,0.2899169921875
0.0662499,8.944737434387207,-3.706224203109741,2.250549554824829,8.30078125,-20.7366943359375,-0.18310546875
0.0687499,8.937555313110352,-3.73016619682312,2.22660756111145,7.5531005859375,-21.392822265625,-0.640869140625
0.0712499,8.942343711853027,-3.754108190536499,2.207453966140747,6.744384765625,-22.0947265625,-0.8697509765625
0.0737499,8.951920509338379,-3.7708675861358643,2.1954829692840576,6.2408447265625,-22.5982666015625,-1.312255859375
0.0762499,8.966285705566406,-3.7900211811065674,2.190694570541382,5.6610107421875,-23.4527587890625,-1.861572265625
0.0787499,8.98543930053711,-3.8139634132385254,2.190694570541382,4.9896240234375,-23.834228515625,-2.3193359375
0.0812499,9.004592895507812,-3.845088005065918,2.205059766769409,4.547119140625,-24.5819091796875,-2.899169921875
0.0837499,9.01895809173584,-3.8786067962646484,2.2218191623687744,4.0435791015625,-25.146484375,-3.3721923828125
0.0862499,9.028534889221191,-3.9193081855773926,2.252943754196167,3.4637451171875,-25.5126953125,-4.0740966796875
0.0887499,9.033323287963867,-3.9624037742614746,2.2864625453948975,3.1585693359375,-26.092529296875,-4.4708251953125
0.0912499,9.030928611755371,-4.003105163574219,2.322375535964966,2.9296875,-26.3671875,-4.7454833984375
0.0937499,9.026140213012695,-4.108449935913086,2.3726539611816406,2.5787353515625,-27.252197265625,-5.9967041015625
0.0962499,9.023746490478516,-4.170699596405029,2.389413356781006,2.3956298828125,-27.4658203125,-6.500244140625
0.0987499,9.01895809173584,-4.2329487800598145,2.403778553009033,2.3193359375,-27.83203125,-6.805419921875
0.1012499,9.011775016784668,-4.288015365600586,2.4181437492370605,2.6092529296875,-28.13720703125,-7.32421875
0.1037499,8.99740982055664,-4.338293552398682,2.432508945465088,2.7618408203125,-28.4881591796875,-7.904052734375
0.1062499,8.98543930053711,-4.376600742340088,2.456450939178467,3.0975341796875,-28.7017822265625,-8.3770751953125
0.1087499,8.971074104309082,-4.414907932281494,2.4803929328918457,3.4942626953125,-29.1595458984375,-8.544921875
0.1112499,8.956708908081055,-4.4508209228515625,2.5067291259765625,3.60107421875,-29.6478271484375,-9.033203125
0.1137499,8.947132110595703,-4.486733913421631,2.5306711196899414,4.0283203125,-29.7088623046875,-9.5672607421875
0.1162499,8.932766914367676,-4.520252704620361,2.5474305152893066,4.638671875,-30.0445556640625,-9.765625
0.1187499,8.925583839416504,-4.55616569519043,2.5546131134033203,4.9591064453125,-29.78515625,-10.07080078125
0.1212499,8.923190116882324,-4.596867084503174,2.5546131134033203,5.645751953125,-30.09033203125,-10.2691650390625
0.1237499,8.920795440673828,-4.644751071929932,2.542642116546631,6.3629150390625,-30.1666259765625,-10.772705078125
0.1262499,8.923190116882324,-4.6950297355651855,2.516305923461914,7.2784423828125,-30.2886962890625,-10.833740234375
0.1287499,8.925583839416504,-4.7405195236206055,2.4851813316345215,7.9803466796875,-30.1361083984375,-11.1541748046875
0.1312499,8.918401718139648,-4.778826713562012,2.4372973442077637,8.7738037109375,-30.242919921875,-11.505126953125
0.1337499,8.9064302444458,-4.807557106018066,2.389413356781006,9.765625,-30.45654296875,-11.77978515625
0.1362499,8.882488250732422,-4.831499099731445,2.341529369354248,10.4827880859375,-30.7159423828125,-11.8255615234375
0.1387499,8.856152534484863,-4.843470096588135,2.300827741622925,11.53564453125,-30.76171875,-11.7950439453125
0.1412499,8.820239067077637,-4.845864295959473,2.2673089504241943,12.3291015625,-30.8837890625,-11.962890625
0.1437499,8.789113998413086,-4.838681697845459,2.250549554824829,13.3819580078125,-31.341552734375,-12.1002197265625
0.1462499,8.755595207214355,-4.819528102874756,2.233790159225464,14.16015625,-31.219482421875,-12.4053955078125
0.1487499,8.724471092224121,-4.800374507904053,2.2218191623687744,14.9383544921875,-31.5399169921875,-12.451171875
0.1512499,8.69095230102539,-4.7836151123046875,2.2002713680267334,15.7470703125,-31.7230224609375,-12.63427734375
0.1537499,8.655038833618164,-4.764461517333984,2.169146776199341,16.6778564453125,-31.7840576171875,-12.87841796875
0.1562499,8.616731643676758,-4.750096321105957,2.1308395862579346,17.4560546875,-31.8603515625,-13.0615234375
0.1587499,8.576030731201172,-4.733336925506592,2.0853497982025146,18.0816650390625,-31.9366455078125,-12.969970703125
0.1612499,8.53532886505127,-4.716577529907227,2.0398597717285156,18.768310546875,-32.2418212890625,-12.6953125
0.1637499,8.497021675109863,-4.707000732421875,1.9919757843017578,19.1497802734375,-32.1044921875,-12.8326416015625
0.1662499,8.456320762634277,-4.699818134307861,1.9393033981323242,19.6685791015625,-32.04345703125,-13.0615234375
0.1687499,8.415618896484375,-4.6950297355651855,1.886630892753601,20.172119140625,-32.28759765625,-12.664794921875
0.1712499,8.372523307800293,-4.683058738708496,1.8315643072128296,20.5535888671875,-32.4554443359375,-12.4359130859375
0.1737499,8.334216117858887,-4.661510944366455,1.7836803197860718,20.7672119140625,-32.5775146484375,-12.237548828125
0.17624990000000001,8.303091049194336,-4.6255974769592285,1.7381904125213623,20.7366943359375,-32.3028564453125,-12.1307373046875
0.1787499,8.274360656738281,-4.580107688903809,1.6974890232086182,20.8282470703125,-32.196044921875,-12.0849609375
0.1812499,8.252813339233398,-4.532223701477051,1.6519991159439087,20.5841064453125,-32.2113037109375,-11.962890625
0.1837499,8.238448143005371,-4.477157115936279,1.6065093278884888,20.233154296875,-32.3486328125,-11.8255615234375
0.1862499,8.22887134552002,-4.424484729766846,1.556231141090393,19.9432373046875,-32.40966796875,-11.5966796875
0.1887499,8.224082946777344,-4.371812343597412,1.5083470344543457,19.4091796875,-32.16552734375,-11.41357421875
0.1912499,8.216899871826172,-4.3191399574279785,1.45806884765625,19.073486328125,-32.1044921875,-11.3067626953125
0.1937499,8.20732307434082,-4.266467571258545,1.4077905416488647,18.4478759765625,-32.3486328125,-11.3372802734375
0.1962499,8.192957878112793,-4.220977783203125,1.3670891523361206,17.76123046875,-32.3944091796875,-11.1236572265625
0.1987499,8.185775756835938,-4.177882194519043,1.3192051649093628,17.059326171875,-32.3486328125,-10.9405517578125
0.2012499,8.190564155578613,-4.1395745277404785,1.2713210582733154,16.3421630859375,-32.16552734375,-10.9710693359375
0.2037499,8.202534675598145,-4.106055736541748,1.2258312702178955,15.716552734375,-31.890869140625,-10.9100341796875
0.2062499,8.219294548034668,-4.077325344085693,1.170764684677124,15.0909423828125,-31.8603515625,-10.498046875
0.20874990000000002,8.24084186553955,-4.05817174911499,1.1109095811843872,14.0380859375,-31.79931640625,-10.467529296875
0.2112499,8.248024940490723,-4.046200752258301,1.0462661981582642,13.336181640625,-31.73828125,-10.07080078125
0.2137499,8.255207061767578,-4.039018154144287,0.9792284965515137,12.39013671875,-31.4788818359375,-9.8876953125
0.2162499,8.252813339233398,-4.02465295791626,0.912190854549408,11.6424560546875,-31.585693359375,-9.6588134765625
0.2187499,8.248024940490723,-4.003105163574219,0.8475474119186401,11.077880859375,-31.3873291015625,-9.3231201171875
0.2212499,8.236053466796875,-3.974374771118164,0.790086567401886,10.284423828125,-31.3720703125,-8.8348388671875
0.2237499,8.2312650680542,-3.9480385780334473,0.7398083209991455,9.4146728515625,-31.18896484375,-8.453369140625
0.2262499,8.22887134552002,-3.9240965843200684,0.6991068720817566,8.48388671875,-30.975341796875,-8.2855224609375
0.2287499,8.233659744262695,-3.9001545906066895,0.6727706789970398,7.7667236328125,-30.94482421875,-8.0413818359375
0.2312499,8.245630264282227,-3.8810009956359863,0.6536170840263367,7.1563720703125,-30.8990478515625,-7.4615478515625
0.2337499,8.26239013671875,-3.8570590019226074,0.6392518281936646,6.439208984375,-30.3802490234375,-7.32421875
0.2362499,8.281543731689453,-3.8355112075805664,0.6248866319656372,6.04248046875,-30.4412841796875,-7.080078125
0.23874990000000001,8.300697326660156,-3.821146011352539,0.5961562395095825,5.43212890625,-30.1666259765625,-6.7596435546875
0.2412499,8.329427719116211,-3.8067808151245117,0.5602431893348694,4.82177734375,-29.815673828125,-6.591796875
0.2437499,8.35097599029541,-3.801992416381836,0.5171475410461426,4.4403076171875,-29.4342041015625,-6.256103515625
0.2462499,8.370129585266113,-3.804386615753174,0.4668693244457245,3.692626953125,-29.0069580078125,-5.828857421875
0.2487499,8.382100105285645,-3.8163576126098633,0.4213795065879822,3.2501220703125,-28.5186767578125,-5.340576171875
0.2512499,8.379706382751465,-3.8331170082092285,0.3734954595565796,2.960205078125,-27.862548828125,-5.2337646484375
0.25374990000000003,8.372523307800293,-3.8546648025512695,0.3232172429561615,2.5177001953125,-27.6031494140625,-4.608154296875
0.25624990000000003,8.362946510314941,-3.8714241981506348,0.2777273952960968,2.3040771484375,-27.2216796875,-4.241943359375
0.25874990000000003,8.355764389038086,-3.883395195007324,0.23702596127986908,1.800537109375,-26.7791748046875,-3.997802734375
0.26124990000000003,8.355764389038086,-3.890577793121338,0.2106897532939911,1.6021728515625,-26.519775390625,-3.4027099609375
0.26374990000000004,8.372523307800293,-3.883395195007324,0.19871874153614044,1.6021728515625,-26.275634765625,-3.1280517578125
0.26624990000000004,8.398859977722168,-3.8810009956359863,0.19871874153614044,1.3885498046875,-25.6500244140625,-2.9296875
0.26874990000000004,8.434772491455078,-3.866635799407959,0.20111294090747833,1.2359619140625,-25.634765625,-2.38037109375
0.27124990000000004,8.482656478881836,-3.8546648025512695,0.2082955539226532,1.15966796875,-25.115966796875,-2.01416015625
0.27374990000000005,8.528146743774414,-3.840299606323242,0.21547815203666687,0.9918212890625,-24.3682861328125,-1.7852783203125
0.27624990000000005,8.576030731201172,-3.8283286094665527,0.22266076505184174,1.251220703125,-23.92578125,-1.312255859375
0.27874990000000005,8.616731643676758,-3.821146011352539,0.2322375625371933,1.2359619140625,-23.4832763671875,-1.15966796875
0.28124990000000005,8.645462036132812,-3.818751811981201,0.2298433631658554,1.2969970703125,-22.9339599609375,-1.007080078125
0.28374990000000005,8.667010307312012,-3.8307228088378906,0.22026655077934265,1.5716552734375,-22.491455078125,-0.7781982421875
0.28624990000000006,8.678980827331543,-3.8498764038085938,0.19871874153614044,2.105712890625,-21.7742919921875,-0.335693359375
0.28874990000000006,8.69095230102539,-3.8714241981506348,0.16759411990642548,2.685546875,-21.209716796875,-0.18310546875
0.2912499,8.700529098510742,-3.8977603912353516,0.1412578970193863,3.082275390625,-20.721435546875,0.18310546875
0.2937499,8.71489429473877,-3.9240965843200684,0.12210428714752197,3.5858154296875,-20.263671875,0.4730224609375
0.2962499,8.734047889709473,-3.950432777404785,0.11013327538967133,4.241943359375,-20.1416015625,0.91552734375
0.2987499,8.75080680847168,-3.97916316986084,0.11013327538967133,4.913330078125,-19.6685791015625,1.4801025390625
0.3012499,8.777143478393555,-3.995922565460205,0.11013327538967133,5.523681640625,-19.3634033203125,1.77001953125
0.3037499,8.83699893951416,-3.998316764831543,0.11252748221158981,6.866455078125,-18.646240234375,2.50244140625
0.3062499,8.865729331970215,-3.9887399673461914,0.10773907601833344,7.5836181640625,-18.1121826171875,2.9754638671875
0.3087499,8.892065048217773,-3.974374771118164,0.10534487664699554,8.087158203125,-17.76123046875,3.47900390625
0.3112499,8.908824920654297,-3.9624037742614746,0.08858546614646912,8.7890625,-17.2882080078125,3.875732421875
0.3137499,8.916007041931152,-3.9432501792907715,0.06224924325942993,9.3841552734375,-16.8914794921875,4.302978515625
0.31624990000000003,8.923190116882324,-3.9264907836914062,0.023942016065120697,9.796142578125,-16.4337158203125,4.4403076171875
0.31874990000000003,8.925583839416504,-3.907337188720703,-0.019153613597154617,10.162353515625,-16.3726806640625,4.8980712890625
0.32124990000000003,8.932766914367676,-3.892971992492676,-0.05746084079146385,10.5133056640625,-16.17431640625,5.584716796875
0.32374990000000003,8.949525833129883,-3.8762125968933105,-0.07422025501728058,10.833740234375,-15.6707763671875,6.011962890625
0.32624990000000004,8.96149730682373,-3.8570590019226074,-0.08379705995321274,11.0015869140625,-15.4571533203125,6.195068359375
0.32874990000000004,8.978256225585938,-3.8355112075805664,-0.07182604819536209,10.7269287109375,-15.31982421875,6.40869140625
0.33124990000000004,8.983044624328613,-3.799597978591919,-0.05506663769483566,10.650634765625,-15.2740478515625,6.7138671875
0.33374990000000004,8.995016098022461,-3.7708675861358643,-0.033518824726343155,10.223388671875,-14.70947265625,6.8817138671875
0.33624990000000005,9.004592895507812,-3.737348794937134,-0.014365210197865963,10.0555419921875,-14.34326171875,7.1563720703125
0.33874990000000005,9.01895809173584,-3.708618402481079,0.0071826050989329815,9.82666015625,-14.190673828125,7.0953369140625
0.34124990000000005,9.033323287963867,-3.6846764087677,0.028730420395731926,9.27734375,-13.916015625,7.2021484375
0.34374990000000005,9.045293807983398,-3.6607344150543213,0.05027823522686958,8.97216796875,-13.702392578125,7.171630859375
0.34624990000000005,9.057265281677246,-3.643975019454956,0.07182604819536209,8.2244873046875,-13.36669921875,6.988525390625
0.34874990000000006,9.064447402954102,-3.6296098232269287,0.090979665517807,7.7056884765625,-12.908935546875,7.0648193359375
0.35124990000000006,9.078812599182129,-3.624821424484253,0.11013327538967133,7.2479248046875,-12.5274658203125,6.744384765625
0.3537499,9.083600997924805,-3.6296098232269287,0.12449848651885986,6.7138671875,-12.451171875,6.4544677734375
0.3562499,9.0859956741333,-3.6367924213409424,0.13168109953403473,5.92041015625,-12.3748779296875,6.3629150390625
0.3587499,9.08838939666748,-3.6535518169403076,0.1412578970193863,5.126953125,-12.115478515625,6.1187744140625
0.3612499,9.08838939666748,-3.6750996112823486,0.14604631066322327,4.2266845703125,-11.7645263671875,6.1798095703125
0.3637499,9.090784072875977,-3.7014358043670654,0.15322890877723694,3.6468505859375,-11.4593505859375,6.0577392578125
0.3662499,9.093177795410156,-3.734954595565796,0.1628057211637497,3.0670166015625,-11.4593505859375,5.889892578125
0.3687499,9.090784072875977,-3.7684733867645264,0.17717093229293823,2.471923828125,-11.1236572265625,5.767822265625
0.3712499,9.090784072875977,-3.8091750144958496,0.19632454216480255,1.739501953125,-10.9710693359375,5.706787109375
0.3737499,9.078812599182129,-3.8522706031799316,0.22505496442317963,1.03759765625,-10.711669921875,5.4168701171875
0.3762499,9.074024200439453,-3.8977603912353516,0.2561795711517334,0.2899169921875,-10.3759765625,5.3558349609375
0.37874990000000003,9.059659004211426,-3.93367338180542,0.2801215946674347,0.0457763671875,-10.1165771484375,5.3253173828125
0.38124990000000003,9.045293807983398,-3.9671921730041504,0.2944868206977844,-0.6561279296875,-10.1165771484375,5.126953125
0.38374990000000003,9.035717010498047,-3.9839515686035156,0.3064578175544739,-1.4190673828125,-9.8724365234375,4.8980712890625
0.38624990000000003,9.01895809173584,-4.003105163574219,0.31603461503982544,-1.922607421875,-9.82666015625,5.0506591796875
0.38874990000000004,9.006986618041992,-4.015076160430908,0.33279404044151306,-2.5634765625,-9.674072265625,4.669189453125
0.39124990000000004,8.992621421813965,-4.027047157287598,0.3471592366695404,-3.0670166015625,-9.5062255859375,4.39453125
0.39374990000000004,8.987833023071289,-4.036623954772949,0.3663128614425659,-3.6468505859375,-9.490966796875,4.08935546875
0.39624990000000004,8.98543930053711,-4.046200752258301,0.3758896589279175,-4.08935546875,-9.5367431640625,3.7994384765625
0.39874990000000005,8.990227699279785,-4.050989151000977,0.38546648621559143,-4.486083984375,-9.5367431640625,3.4027099609375
0.40124990000000005,8.999804496765137,-4.055777549743652,0.395043283700943,-4.8980712890625,-9.521484375,2.9754638671875
0.40374990000000005,9.011775016784668,-4.060565948486328,0.40462008118629456,-5.4779052734375,-9.368896484375,2.4871826171875
0.40624990000000005,9.02135181427002,-4.072536945343018,0.4165911078453064,-5.9661865234375,-9.2010498046875,2.227783203125
0.40874990000000005,9.030928611755371,-4.089296340942383,0.4357447028160095,-6.1798095703125,-9.2315673828125,1.8768310546875
0.41124990000000006,9.038111686706543,-4.110844135284424,0.45489832758903503,-6.40869140625,-9.033203125,1.5869140625
0.41374990000000006,9.035717010498047,-4.129997730255127,0.47884035110473633,-6.744384765625,-9.0179443359375,1.6632080078125
0.41624990000000006,9.038111686706543,-4.141968727111816,0.5003881454467773,-6.9427490234375,-8.8043212890625,1.3885498046875
0.4187499,9.038111686706543,-4.14915132522583,0.5219359993934631,-7.293701171875,-8.5906982421875,1.0223388671875
0.4212499,9.040505409240723,-4.14915132522583,0.5410895943641663,-7.3394775390625,-8.23974609375,0.946044921875
0.4237499,9.045293807983398,-4.153939723968506,0.5554547905921936,-7.6446533203125,-7.8887939453125,0.6256103515625
0.4262499,9.045293807983398,-4.144362926483154,0.5674257874488831,-7.7667236328125,-7.8277587890625,0.335693359375
0.4287499,9.042900085449219,-4.1395745277404785,0.5746083855628967,-8.0108642578125,-7.7056884765625,0.18310546875
0.4312499,9.040505409240723,-4.127603530883789,0.5722141861915588,-8.3465576171875,-7.232666015625,-0.030517578125
0.4337499,9.040505409240723,-4.1156325340271,0.5650315880775452,-8.48388671875,-6.988525390625,-0.5950927734375
0.4362499,9.040505409240723,-4.101267337799072,0.5578489899635315,-8.5296630859375,-7.0343017578125,-0.732421875
0.4387499,9.047688484191895,-4.086902141571045,0.545877993106842,-8.6212158203125,-6.805419921875,-0.8392333984375
0.44124990000000003,9.05487060546875,-4.067748546600342,0.5339069962501526,-8.575439453125,-6.7138671875,-1.2664794921875
0.44374990000000003,9.064447402954102,-4.046200752258301,0.5219359993934631,-8.48388671875,-6.34765625,-1.4801025390625
0.44624990000000003,9.07641887664795,-4.0294413566589355,0.5051765441894531,-8.36181640625,-6.16455078125,-1.7242431640625
0.44874990000000003,9.090784072875977,-4.01268196105957,0.4908113479614258,-8.2855224609375,-5.950927734375,-2.1514892578125
0.45124990000000004,9.105149269104004,-4.0078935623168945,0.4836287498474121,-8.1787109375,-5.767822265625,-2.593994140625
0.45374990000000004,9.124302864074707,-4.000710964202881,0.4836287498474121,-8.148193359375,-5.645751953125,-2.9144287109375
0.45624990000000004,9.133879661560059,-4.000710964202881,0.49320554733276367,-7.8887939453125,-5.55419921875,-3.0517578125
0.45874990000000004,9.148244857788086,-4.003105163574219,0.5027823448181152,-7.904052734375,-5.4931640625,-3.265380859375
0.46124990000000005,9.148244857788086,-4.01268196105957,0.5147533416748047,-7.5531005859375,-5.43212890625,-3.47900390625
0.46374990000000005,9.14585018157959,-4.022258758544922,0.5291185975074768,-7.01904296875,-4.82177734375,-3.72314453125
0.46624990000000005,9.136273384094238,-4.036623954772949,0.524330198764801,-6.6680908203125,-4.669189453125,-3.7994384765625
0.46874990000000005,9.121908187866211,-4.055777549743652,0.524330198764801,-6.4697265625,-4.6539306640625,-3.9215087890625
0.47124990000000005,9.10993766784668,-4.072536945343018,0.507570743560791,-5.9814453125,-4.3182373046875,-3.997802734375
0.47374990000000006,9.097966194152832,-4.084507942199707,0.4908113479614258,-5.523681640625,-4.2572021484375,-4.150390625
0.47624990000000006,9.08838939666748,-4.089296340942383,0.4668693244457245,-5.2490234375,-4.2572021484375,-4.2266845703125
0.47874990000000006,9.081207275390625,-4.089296340942383,0.45489832758903503,-4.9896240234375,-4.058837890625,-4.33349609375
0.4812499,9.074024200439453,-4.084507942199707,0.4405331015586853,-4.547119140625,-3.814697265625,-4.3792724609375
0.4837499,9.071630477905273,-4.079719543457031,0.4381389021873474,-4.302978515625,-3.814697265625,-4.5318603515625
0.4862499,9.066842079162598,-4.0749311447143555,0.4357447028160095,-4.0435791015625,-3.631591796875,-4.5166015625
0.4887499,9.071630477905273,-4.072536945343018,0.4381389021873474,-3.814697265625,-3.3111572265625,-4.364013671875
0.4912499,9.074024200439453,-4.060565948486328,0.4405331015586853,-3.3721923828125,-3.082275390625,-4.4097900390625
0.4937499,9.081207275390625,-4.041412353515625,0.44532153010368347,-3.0670166015625,-2.8533935546875,-4.4708251953125
0.4962499,9.0859956741333,-4.010287761688232,0.44771572947502136,-3.204345703125,-2.86865234375,-4.5166015625
0.4987499,9.093177795410156,-3.97916316986084,0.45010992884635925,-3.173828125,-2.685546875,-4.608154296875
0.5012499,9.093177795410156,-3.9456443786621094,0.44771572947502136,-3.021240234375,-2.410888671875,-4.69970703125
0.5037499000000001,9.093177795410156,-3.93367338180542,0.44771572947502136,-2.6397705078125,-2.288818359375,-4.6234130859375
0.5062499,9.08838939666748,-3.9217023849487305,0.45010992884635925,-2.6397705078125,-2.1514892578125,-4.8370361328125
0.5087499000000001,9.074024200439453,-3.9217023849487305,0.4572925269603729,-2.471923828125,-2.1514892578125,-4.974365234375
0.5112499,9.040505409240723,-3.9193081855773926,0.4692635238170624,-2.3956298828125,-1.9989013671875,-4.852294921875
0.5137499,9.028534889221191,-3.914519786834717,0.4668693244457245,-2.50244140625,-1.983642578125,-5.126953125
0.5162499,9.023746490478516,-3.8977603912353516,0.4596867263317108,-2.6397705078125,-1.617431640625,-5.31005859375
0.5187499,9.028534889221191,-3.88818359375,0.45010992884635925,-2.62451171875,-1.678466796875,-5.2032470703125
0.5212499,9.035717010498047,-3.8786067962646484,0.4429273009300232,-2.6397705078125,-1.495361328125,-5.4168701171875
0.5237499,9.042900085449219,-3.869029998779297,0.44532153010368347,-2.6702880859375,-1.4495849609375,-5.584716796875
0.5262499,9.045293807983398,-3.866635799407959,0.44532153010368347,-2.685546875,-1.617431640625,-5.4473876953125
0.5287499,9.038111686706543,-3.8594532012939453,0.4572925269603729,-2.7923583984375,-1.0986328125,-5.5084228515625
0.5312499,9.023746490478516,-3.8498764038085938,0.4620809257030487,-3.0517578125,-1.251220703125,-5.584716796875
0.5337499,9.004592895507812,-3.847482204437256,0.47405192255973816,-3.1585693359375,-1.129150390625,-5.615234375
0.5362499000000001,8.987833023071289,-3.847482204437256,0.47405192255973816,-3.11279296875,-1.0528564453125,-5.4931640625
0.5387499,8.966285705566406,-3.847482204437256,0.4644751250743866,-3.143310546875,-0.8392333984375,-5.5999755859375
0.5412499000000001,8.947132110595703,-3.8522706031799316,0.44771572947502136,-3.2958984375,-0.7781982421875,-5.5999755859375
0.5437499,8.93037223815918,-3.847482204437256,0.4165911078453064,-3.2806396484375,-0.8087158203125,-5.5389404296875
0.5462499000000001,8.916007041931152,-3.84269380569458,0.3926490843296051,-3.23486328125,-0.8544921875,-5.4931640625
0.5487499,8.913613319396973,-3.8283286094665527,0.3663128614425659,-3.631591796875,-0.9613037109375,-5.31005859375
0.5512499000000001,8.918401718139648,-3.818751811981201,0.3495534360408783,-3.7078857421875,-0.885009765625,-5.340576171875
0.5537499,8.925583839416504,-3.797203779220581,0.33758243918418884,-3.5552978515625,-0.9765625,-5.43212890625
0.5562499000000001,8.937555313110352,-3.778050184249878,0.3280056416988373,-3.7384033203125,-1.15966796875,-5.37109375
0.5587499,8.947132110595703,-3.758896589279175,0.3256114423274994,-3.9825439453125,-1.1749267578125,-5.218505859375
0.5612499000000001,8.954314231872559,-3.7421371936798096,0.3256114423274994,-4.2724609375,-1.3885498046875,-5.2490234375
0.5637499,8.96389102935791,-3.734954595565796,0.3280056416988373,-4.5318603515625,-1.7852783203125,-5.18798828125
0.5662499000000001,8.968679428100586,-3.7277719974517822,0.33279404044151306,-4.7149658203125,-1.983642578125,-5.035400390625
0.5687499,8.975862503051758,-3.7229835987091064,0.3447650372982025,-4.8675537109375,-1.8157958984375,-4.974365234375
0.5712499000000001,8.980650901794434,-3.713406801223755,0.35913026332855225,-5.0811767578125,-1.89208984375,-4.9285888671875
0.5737499,8.987833023071289,-3.706224203109741,0.3758896589279175,-5.43212890625,-2.105712890625,-4.5013427734375
0.5762499000000001,8.992621421813965,-3.7014358043670654,0.38307225704193115,-5.462646484375,-2.3345947265625,-4.33349609375
0.5787499,8.999804496765137,-3.7038300037384033,0.38307225704193115,-5.67626953125,-2.227783203125,-4.4403076171875
0.5812499,9.004592895507812,-3.7038300037384033,0.363918662071228,-6.103515625,-2.3651123046875,-4.2877197265625
0.5837499,9.009381294250488,-3.7014358043670654,0.3447650372982025,-6.2408447265625,-2.38037109375,-4.2724609375
0.5862499,9.01895809173584,-3.6990416049957275,0.3232172429561615,-6.561279296875,-2.3193359375,-4.302978515625
0.5887499,9.026140213012695,-3.6942532062530518,0.31364041566848755,-6.8511962890625,-2.7008056640625,-3.8909912109375
0.5912499,9.042900085449219,-3.6966474056243896,0.31842881441116333,-7.232666015625,-2.960205078125,-3.8909912109375
0.5937499,9.066842079162598,-3.7038300037384033,0.33758243918418884,-7.415771484375,-2.8839111328125,-3.753662109375
0.5962499,9.093177795410156,-3.7229835987091064,0.3663128614425659,-7.8582763671875,-2.960205078125,-3.7078857421875
0.5987499000000001,9.129091262817383,-3.7397429943084717,0.3926490843296051,-8.087158203125,-3.2196044921875,-3.692626953125
0.6012499,9.157821655273438,-3.756502389907837,0.4189853072166443,-8.4991455078125,-3.2501220703125,-3.6468505859375
0.6037499000000001,9.184157371520996,-3.7636849880218506,0.44532153010368347,-8.7127685546875,-3.265380859375,-3.6468505859375
0.6062499,9.196128845214844,-3.7684733867645264,0.4596867263317108,-8.72802734375,-3.41796875,-3.47900390625
0.6087499000000001,9.208099365234375,-3.7684733867645264,0.4668693244457245,-9.1400146484375,-3.6163330078125,-3.2806396484375
0.6112499,9.208099365234375,-3.7684733867645264,0.4668693244457245,-9.33837890625,-3.4942626953125,-3.265380859375
0.6137499000000001,9.208099365234375,-3.7684733867645264,0.45489832758903503,-9.7198486328125,-3.72314453125,-3.2196044921875
0.6162499,9.205705642700195,-3.778050184249878,0.44532153010368347,-10.0555419921875,-3.7689208984375,-3.0364990234375
0.6187499000000001,9.205705642700195,-3.7876269817352295,0.43095630407333374,-10.1470947265625,-3.8604736328125,-3.021240234375
0.6212499,9.208099365234375,-3.801992416381836,0.4213795065879822,-10.0555419921875,-3.8909912109375,-2.655029296875
0.6237499000000001,9.215282440185547,-3.8139634132385254,0.40462008118629456,-10.1776123046875,-4.08935546875,-2.655029296875
0.6262499,9.220070838928223,-3.825934410095215,0.40701428055763245,-10.5438232421875,-4.3487548828125,-2.5634765625
0.6287499000000001,9.224859237670898,-3.8331170082092285,0.40462008118629456,-10.6964111328125,-4.364013671875,-2.471923828125
0.6312499,9.224859237670898,-3.845088005065918,0.4118026793003082,-10.894775390625,-4.180908203125,-2.6092529296875
0.6337499000000001,9.220070838928223,-3.8594532012939453,0.4141969084739685,-10.9100341796875,-4.3792724609375,-2.2430419921875
0.6362499,9.21288776397705,-3.8738183975219727,0.40940847992897034,-10.8184814453125,-4.5013427734375,-1.89208984375
0.6387499000000001,9.20091724395752,-3.883395195007324,0.40222588181495667,-10.772705078125,-4.638671875,-1.89208984375
0.6412499,9.191340446472168,-3.88818359375,0.3902548849582672,-11.1846923828125,-4.5928955078125,-1.739501953125
0.6437499,9.17936897277832,-3.8786067962646484,0.38067805767059326,-11.5203857421875,-4.82177734375,-1.5106201171875
0.6462499,9.174580574035645,-3.861847400665283,0.3663128614425659,-11.4898681640625,-5.0048828125,-1.3885498046875
0.6487499,9.174580574035645,-3.8498764038085938,0.3519476354122162,-11.77978515625,-4.8828125,-1.4801025390625
0.6512499,9.17697525024414,-3.8307228088378906,0.33997663855552673,-11.5966796875,-5.0201416015625,-1.46484375
0.6537499,9.184157371520996,-3.823540210723877,0.3280056416988373,-11.5966796875,-5.096435546875,-1.434326171875
0.6562499,9.191340446472168,-3.8163576126098633,0.3232172429561615,-11.6729736328125,-5.340576171875,-1.6021728515625
0.6587499,9.198522567749023,-3.8115692138671875,0.31842881441116333,-11.749267578125,-5.462646484375,-1.6937255859375
0.6612499000000001,9.2033109664917,-3.8115692138671875,0.3232172429561615,-11.77978515625,-5.5389404296875,-1.7547607421875
0.6637499,9.210494041442871,-3.8139634132385254,0.33279404044151306,-11.7645263671875,-5.828857421875,-1.708984375
0.6662499000000001,9.220070838928223,-3.8091750144958496,0.3423708379268646,-11.962890625,-5.889892578125,-1.5869140625
0.6687499,9.229647636413574,-3.804386615753174,0.35913026332855225,-11.993408203125,-5.9051513671875,-1.5869140625
0.6712499000000001,9.244012832641602,-3.797203779220581,0.37828385829925537,-12.115478515625,-6.011962890625,-1.6632080078125
0.6737499,9.255983352661133,-3.7876269817352295,0.395043283700943,-12.51220703125,-6.195068359375,-1.5716552734375
0.6762499000000001,9.27034854888916,-3.7876269817352295,0.4118026793003082,-12.603759765625,-6.3018798828125,-1.40380859375
0.6787499,9.277531623840332,-3.7900211811065674,0.4189853072166443,-12.4969482421875,-6.3323974609375,-1.3275146484375
0.6812499000000001,9.282320022583008,-3.799597978591919,0.4141969084739685,-12.298583984375,-6.34765625,-1.373291015625
0.6837499,9.277531623840332,-3.801992416381836,0.3974374830722809,-12.451171875,-6.4697265625,-1.3275146484375
0.6862499000000001,9.26795482635498,-3.804386615753174,0.38546648621559143,-12.664794921875,-6.561279296875,-1.312255859375
0.6887499,9.251194953918457,-3.799597978591919,0.3711012601852417,-12.6495361328125,-6.591796875,-1.3885498046875
0.6912499000000001,9.241618156433105,-3.801992416381836,0.3687070608139038,-12.87841796875,-6.622314453125,-1.2359619140625
0.6937499,9.232041358947754,-3.804386615753174,0.3711012601852417,-12.9241943359375,-6.7138671875,-1.15966796875
0.6962499000000001,9.23443603515625,-3.8091750144958496,0.3663128614425659,-13.1072998046875,-6.9732666015625,-1.251220703125
0.6987499,9.241618156433105,-3.8115692138671875,0.3711012601852417,-13.36669921875,-6.9580078125,-1.2359619140625
0.7012499000000001,9.246406555175781,-3.801992416381836,0.3711012601852417,-13.427734375,-7.14111328125,-1.0223388671875
0.7037499,9.251194953918457,-3.7852327823638916,0.36152446269989014,-13.580322265625,-7.38525390625,-1.220703125
0.7062499,9.255983352661133,-3.7636849880218506,0.35434186458587646,-13.9312744140625,-7.38525390625,-1.220703125
0.7087499,9.251194953918457,-3.7397429943084717,0.3423708379268646,-14.2669677734375,-7.415771484375,-1.2359619140625
0.7112499,9.248801231384277,-3.7181951999664307,0.33279404044151306,-14.6026611328125,-7.6904296875,-1.2969970703125
0.7137499,9.244012832641602,-3.6990416049957275,0.33039984107017517,-14.892578125,-7.843017578125,-1.220703125
0.7162499,9.23682975769043,-3.6846764087677,0.33758243918418884,-14.892578125,-7.87353515625,-1.1749267578125
0.7187499,9.23443603515625,-3.6727054119110107,0.3447650372982025,-14.9993896484375,-7.8582763671875,-1.3580322265625
0.7212499,9.229647636413574,-3.6535518169403076,0.3447650372982025,-15.7623291015625,-8.1939697265625,-1.3427734375
0.7237499000000001,9.227252960205078,-3.646369218826294,0.33279404044151306,-15.869140625,-8.5601806640625,-1.3427734375
0.7262499,9.220070838928223,-3.641580820083618,0.31364041566848755,-16.021728515625,-8.5601806640625,-1.40380859375
0.7287499000000001,9.208099365234375,-3.6343982219696045,0.2968810200691223,-16.5557861328125,-8.697509765625,-1.64794921875
0.7312499,9.196128845214844,-3.6391866207122803,0.28969839215278625,-16.5863037109375,-9.0179443359375,-1.5869140625
0.7337499000000001,9.186552047729492,-3.6391866207122803,0.28730419278144836,-16.41845703125,-9.0789794921875,-1.2359619140625
0.7362499,9.174580574035645,-3.641580820083618,0.28969839215278625,-16.876220703125,-9.2010498046875,-1.46484375
0.7387499000000001,9.165003776550293,-3.646369218826294,0.28969839215278625,-17.0440673828125,-9.33837890625,-1.5411376953125
0.7412499,9.157821655273438,-3.646369218826294,0.2849099934101105,-17.181396484375,-9.4451904296875,-1.556396484375
0.7437499000000001,9.148244857788086,-3.6535518169403076,0.2777273952960968,-17.08984375,-9.4146728515625,-1.52587890625
0.7462499,9.141061782836914,-3.663128614425659,0.26336219906806946,-17.27294921875,-9.368896484375,-1.434326171875
0.7487499000000001,9.133879661560059,-3.667917013168335,0.24899697303771973,-17.02880859375,-9.5367431640625,-1.007080078125
0.7512499,9.114726066589355,-3.6750996112823486,0.2298433631658554,-17.15087890625,-9.4757080078125,-1.0528564453125
0.7537499000000001,9.095572471618652,-3.6727054119110107,0.2059013396501541,-17.39501953125,-9.3536376953125,-0.9765625
0.7562499,9.069235801696777,-3.670311212539673,0.17956513166427612,-17.4560546875,-9.521484375,-0.9002685546875
0.7587499000000001,9.047688484191895,-3.667917013168335,0.1604115068912506,-17.6544189453125,-9.613037109375,-0.6103515625
0.7612499,9.02135181427002,-3.667917013168335,0.14844051003456116,-17.5323486328125,-9.674072265625,-0.457763671875
0.7637499000000001,9.004592895507812,-3.663128614425659,0.1412578970193863,-17.547607421875,-9.6893310546875,-0.396728515625
0.7662499,8.987833023071289,-3.6559460163116455,0.14604631066322327,-17.63916015625,-9.6893310546875,-0.244140625
0.7687499000000001,8.973467826843262,-3.643975019454956,0.14604631066322327,-17.608642578125,-9.7198486328125,-0.0457763671875
0.7712499,8.959102630615234,-3.6343982219696045,0.14604631066322327,-17.7154541015625,-9.674072265625,0
0.7737499,8.942343711853027,-3.6176388263702393,0.14365209639072418,-17.8375244140625,-9.490966796875,0.1068115234375
0.7762499,8.925583839416504,-3.598485231399536,0.1412578970193863,-17.7764892578125,-9.765625,0.18310546875
0.7787499,8.9064302444458,-3.576937437057495,0.13407529890537262,-17.7764892578125,-9.8419189453125,0.3814697265625
0.7812499,8.89445972442627,-3.552995204925537,0.12928688526153564,-17.6849365234375,-9.9334716796875,0.5645751953125
0.7837499,8.882488250732422,-3.533841609954834,0.11971008777618408,-17.6544189453125,-9.735107421875,0.518798828125
0.7862499000000001,8.877699851989746,-3.509899616241455,0.1149216815829277,-17.5933837890625,-10.040283203125,0.6103515625
0.7887499,8.875306129455566,-3.488351821899414,0.10773907601833344,-17.7001953125,-10.0555419921875,0.7476806640625
0.7912499000000001,8.87291145324707,-3.466804027557373,0.10055647045373917,-17.63916015625,-10.2081298828125,1.007080078125
0.7937499,8.860940933227539,-3.450044631958008,0.08619125932455063,-17.242431640625,-10.4827880859375,1.2664794921875
0.7962499000000001,8.846575736999512,-3.445256233215332,0.0694318488240242,-17.486572265625,-10.19287109375,1.28173828125
0.7987499,8.822632789611816,-3.4380736351013184,0.038307227194309235,-17.51708984375,-10.3759765625,1.4495849609375
0.8012499000000001,8.798690795898438,-3.4332852363586426,0.004788403399288654,-17.547607421875,-10.3302001953125,1.6937255859375
0.8037499,8.777143478393555,-3.4308910369873047,-0.033518824726343155,-17.425537109375,-10.43701171875,1.9683837890625
0.8062499000000001,8.762778282165527,-3.4308910369873047,-0.0694318488240242,-17.4560546875,-10.467529296875,2.4566650390625
0.8087499,8.753201484680176,-3.4356794357299805,-0.09576806426048279,-17.3492431640625,-10.467529296875,2.9144287109375
0.8112499000000001,8.75080680847168,-3.4404678344726562,-0.1149216815829277,-17.51708984375,-10.5438232421875,3.0059814453125
0.8137499,8.753201484680176,-3.442862033843994,-0.12689268589019775,-17.7764892578125,-10.467529296875,3.3416748046875
0.8162499000000001,8.760383605957031,-3.4356794357299805,-0.12928688526153564,-17.822265625,-10.528564453125,3.90625
0.8187499,8.762778282165527,-3.421314239501953,-0.1364694982767105,-17.7764892578125,-10.5133056640625,4.0435791015625
0.8212499000000001,8.765172004699707,-3.404554843902588,-0.1388636976480484,-17.852783203125,-10.5438232421875,4.3182373046875
0.8237499,8.757989883422852,-3.3854012489318848,-0.14365209639072418,-18.157958984375,-10.589599609375,4.852294921875
0.8262499000000001,8.743624687194824,-3.3662476539611816,-0.14844051003456116,-18.157958984375,-10.650634765625,5.0201416015625
0.8287499,8.7268648147583,-3.3470940589904785,-0.15083470940589905,-18.402099609375,-10.31494140625,5.340576171875
0.8312499000000001,8.712499618530273,-3.3279404640197754,-0.1628057211637497,-18.6767578125,-10.1470947265625,5.706787109375
0.8337499,8.700529098510742,-3.3016040325164795,-0.16998831927776337,-19.0277099609375,-10.19287109375,6.134033203125
0.8362499,8.698134422302246,-3.2824504375457764,-0.1867477297782898,-19.34814453125,-10.1318359375,6.4849853515625
0.8387499,8.69334602355957,-3.2632968425750732,-0.2082955539226532,-19.53125,-9.9334716796875,6.8206787109375
0.8412499,8.69095230102539,-3.251325845718384,-0.2322375625371933,-19.9127197265625,-9.7808837890625,7.171630859375
0.8437499,8.69334602355957,-3.24414324760437,-0.26096799969673157,-20.3399658203125,-9.429931640625,7.476806640625
0.8462499,8.700529098510742,-3.2297780513763428,-0.2944868206977844,-20.660400390625,-9.552001953125,7.8582763671875
0.8487499000000001,8.71489429473877,-3.220201253890991,-0.33279404044151306,-21.3470458984375,-9.368896484375,8.1787109375
0.8512499,8.734047889709473,-3.205836057662964,-0.3663128614425659,-21.728515625,-9.2315673828125,8.7127685546875
0.8537499000000001,8.753201484680176,-3.201047658920288,-0.3974374830722809,-22.216796875,-9.0789794921875,9.307861328125
0.8562499,8.760383605957031,-3.203441858291626,-0.4141969084739685,-22.735595703125,-8.6822509765625,9.4146728515625
0.8587499000000001,8.767566680908203,-3.2130186557769775,-0.4141969084739685,-22.7508544921875,-8.6822509765625,9.8876953125
0.8612499,8.757989883422852,-3.222595453262329,-0.40701428055763245,-22.9949951171875,-8.72802734375,10.3607177734375
0.8637499000000001,8.746018409729004,-3.2369606494903564,-0.395043283700943,-23.2086181640625,-8.5906982421875,10.7574462890625
0.8662499,8.729259490966797,-3.246537446975708,-0.38067805767059326,-23.5443115234375,-8.3465576171875,11.0931396484375
0.8687499000000001,8.712499618530273,-3.251325845718384,-0.3711012601852417,-23.86474609375,-8.0718994140625,11.6119384765625
0.8712499,8.698134422302246,-3.248931646347046,-0.3687070608139038,-23.98681640625,-7.9498291015625,11.9781494140625
0.8737499000000001,8.683769226074219,-3.24414324760437,-0.3711012601852417,-24.2462158203125,-7.659912109375,12.542724609375
0.8762499,8.667010307312012,-3.2417490482330322,-0.38307225704193115,-24.322509765625,-7.537841796875,13.0157470703125
0.8787499000000001,8.645462036132812,-3.2393548488616943,-0.3998316824436188,-24.5361328125,-7.32421875,13.397216796875
0.8812499,8.621520042419434,-3.248931646347046,-0.42856210470199585,-24.658203125,-6.9732666015625,13.5498046875
0.8837499000000001,8.597578048706055,-3.2609026432037354,-0.4572925269603729,-24.3377685546875,-6.89697265625,13.885498046875
0.8862499,8.56884765625,-3.2752678394317627,-0.49799394607543945,-24.078369140625,-6.77490234375,14.5111083984375
0.8887499000000001,8.537723541259766,-3.28963303565979,-0.5363011956214905,-23.9410400390625,-6.8359375,14.801025390625
0.8912499,8.506598472595215,-3.2992098331451416,-0.5793967843055725,-23.834228515625,-6.561279296875,15.1824951171875
0.8937499000000001,8.465897560119629,-3.3016040325164795,-0.6153098344802856,-23.5748291015625,-6.6986083984375,15.533447265625
0.8962499,8.42040729522705,-3.3039982318878174,-0.6440402865409851,-23.1475830078125,-6.9580078125,15.869140625
0.8987499,8.372523307800293,-3.3063924312591553,-0.6631938815116882,-22.64404296875,-7.0953369140625,16.2353515625
0.9012499,8.33182144165039,-3.318363666534424,-0.667982280254364,-22.2015380859375,-6.9427490234375,16.7236328125
0.9037499,8.29590892791748,-3.3303346633911133,-0.6727706789970398,-21.3775634765625,-6.89697265625,16.9525146484375
0.9062499,8.283937454223633,-3.3446998596191406,-0.6703764796257019,-20.5841064453125,-7.0648193359375,17.3187255859375
0.9087499,8.286332130432129,-3.3662476539611816,-0.6703764796257019,-19.8211669921875,-7.1868896484375,17.7001953125
0.9112499000000001,8.303091049194336,-3.3877954483032227,-0.667982280254364,-19.04296875,-7.2174072265625,17.8680419921875
0.9137499,8.329427719116211,-3.421314239501953,-0.6727706789970398,-17.852783203125,-7.0037841796875,18.341064453125
0.9162499000000001,8.358158111572266,-3.4572272300720215,-0.6823474764823914,-16.693115234375,-7.080078125,18.6004638671875
0.9187499,8.382100105285645,-3.49314022064209,-0.6991068720817566,-15.4266357421875,-6.866455078125,18.768310546875
0.9212499000000001,8.396465301513672,-3.5218706130981445,-0.7206547260284424,-13.9312744140625,-7.0648193359375,19.34814453125
0.9237499,8.403648376464844,-3.5482068061828613,-0.7374141216278076,-12.8173828125,-7.1868896484375,19.7601318359375
0.9262499000000001,8.4108304977417,-3.5697548389434814,-0.7493851184844971,-11.8560791015625,-7.2479248046875,20.20263671875
0.9287499,8.418013572692871,-3.598485231399536,-0.7445967197418213,-10.8795166015625,-7.354736328125,20.6451416015625
0.9312499000000001,8.465897560119629,-3.6822822093963623,-0.6775590777397156,-9.033203125,-7.598876953125,21.636962890625
0.9337499,8.506598472595215,-3.73016619682312,-0.6248866319656372,-8.148193359375,-7.5836181640625,22.3541259765625
0.9362499000000001,8.556877136230469,-3.758896589279175,-0.5626373887062073,-7.1258544921875,-7.659912109375,22.918701171875
0.9387499,8.62391471862793,-3.773261785507202,-0.5003881454467773,-6.591796875,-7.26318359375,23.712158203125
0.9412499000000001,8.702922821044922,-3.773261785507202,-0.4381389021873474,-6.4544677734375,-6.866455078125,24.2462158203125
0.9437499,8.78432559967041,-3.7660791873931885,-0.3734954595565796,-6.072998046875,-6.4697265625,24.810791015625
0.9462499000000001,8.863334655761719,-3.7636849880218506,-0.3016694188117981,-5.859375,-5.9967041015625,25.4058837890625
0.9487499,8.927978515625,-3.758896589279175,-0.2298433631658554,-5.584716796875,-5.859375,25.81787109375
0.9512499000000001,8.990227699279785,-3.754108190536499,-0.15083470940589905,-5.2032470703125,-5.401611328125,26.3214111328125
0.9537499,9.047688484191895,-3.7445313930511475,-0.08140286058187485,-5.2642822265625,-4.8675537109375,26.6876220703125
0.9562499000000001,9.102754592895508,-3.7253777980804443,-0.021547814831137657,-5.5389404296875,-4.241943359375,26.885986328125
0.9587499,9.157821655273438,-3.711012601852417,0.023942016065120697,-5.859375,-4.0740966796875,27.3590087890625
0.9612499,9.208099365234375,-3.7014358043670654,0.047884032130241394,-6.3018798828125,-3.4942626953125,27.679443359375
0.9637499,9.251194953918457,-3.7014358043670654,0.06703764945268631,-6.8817138671875,-2.7618408203125,27.9388427734375
0.9662499,9.294290542602539,-3.7158010005950928,0.06703764945268631,-7.171630859375,-2.25830078125,28.4271240234375
0.9687499,9.332598686218262,-3.732560396194458,0.05746084079146385,-7.4005126953125,-1.8310546875,28.7322998046875
0.9712499,9.366117477416992,-3.7493197917938232,0.043095629662275314,-7.9498291015625,-1.373291015625,28.6407470703125
0.9737499000000001,9.39245319366455,-3.7684733867645264,0.016759412363171577,-8.6517333984375,-1.0986328125,29.1290283203125
0.9762499,9.404424667358398,-3.780444383621216,-0.009576806798577309,-9.1094970703125,-0.518798828125,29.0069580078125
0.9787499000000001,9.404424667358398,-3.797203779220581,-0.038307227194309235,-9.6435546875,-0.4425048828125,28.900146484375
0.9812499,9.394847869873047,-3.801992416381836,-0.07182604819536209,-10.07080078125,-0.396728515625,29.0374755859375
0.9837499000000001,9.3828763961792,-3.804386615753174,-0.09576806426048279,-10.5438232421875,-0.30517578125,28.961181640625
0.9862499,9.368511199951172,-3.7900211811065674,-0.11971008777618408,-11.199951171875,-0.30517578125,28.6865234375
0.9887499000000001,9.344569206237793,-3.754108190536499,-0.1364694982767105,-12.02392578125,-0.2593994140625,28.350830078125
0.9912499,9.320627212524414,-3.7158010005950928,-0.14604631066322327,-12.6190185546875,-0.42724609375,28.350830078125
0.9937499000000001,9.284713745117188,-3.670311212539673,-0.15801730751991272,-13.2904052734375,-0.579833984375,28.1219482421875
0.9962499,9.246406555175781,-3.6320040225982666,-0.16759411990642548,-14.1143798828125,-0.6561279296875,27.7099609375
0.9987499000000001,9.205705642700195,-3.600879430770874,-0.181959331035614,-14.7247314453125,-0.9613037109375,27.2369384765625
1.0012499,9.162610054016113,-3.576937437057495,-0.19871874153614044,-15.3350830078125,-1.2664794921875,27.0233154296875
1.0037498999999999,9.129091262817383,-3.56017804145813,-0.22026655077934265,-16.082763671875,-1.64794921875,26.3214111328125
1.0062499,9.090784072875977,-3.5482068061828613,-0.2322375625371933,-16.6778564453125,-2.0599365234375,25.93994140625
1.0087499,9.066842079162598,-3.5434184074401855,-0.24181437492370605,-17.3492431640625,-2.3651123046875,25.665283203125
1.0112499,9.040505409240723,-3.5458126068115234,-0.24420857429504395,-18.1427001953125,-2.9296875,25.054931640625
1.0137498999999999,9.011775016784668,-3.5649664402008057,-0.24420857429504395,-18.85986328125,-3.5400390625,24.9176025390625
1.0162499,8.98543930053711,-3.5865142345428467,-0.2322375625371933,-19.1650390625,-4.08935546875,24.6429443359375
1.0187499,8.954314231872559,-3.6176388263702393,-0.21308395266532898,-19.9432373046875,-4.5318603515625,24.2462158203125
1.0212499,8.93037223815918,-3.646369218826294,-0.1867477297782898,-20.660400390625,-4.974365234375,23.9105224609375
1.0237498999999999,8.913613319396973,-3.6727054119110107,-0.15322890877723694,-21.209716796875,-5.7220458984375,23.468017578125
1.0262498999999998,8.904036521911621,-3.691859006881714,-0.13168109953403473,-21.54541015625,-6.2713623046875,23.2696533203125
1.0287499,8.89445972442627,-3.708618402481079,-0.11971008777618408,-22.0184326171875,-6.6375732421875,22.918701171875
1.0312499,8.889671325683594,-3.7181951999664307,-0.1173158809542656,-22.4456787109375,-7.1868896484375,22.735595703125
1.0337498999999999,8.87291145324707,-3.73016619682312,-0.13407529890537262,-22.9644775390625,-7.659912109375,22.5372314453125
1.0362498999999998,8.856152534484863,-3.7445313930511475,-0.15562310814857483,-23.13232421875,-7.9498291015625,22.2015380859375
1.0387499,8.832210540771484,-3.7636849880218506,-0.1867477297782898,-23.468017578125,-8.575439453125,21.97265625
1.0412499,8.808267593383789,-3.7828385829925537,-0.22026655077934265,-23.468017578125,-9.0789794921875,21.7437744140625
1.0437499,8.798690795898438,-3.801992416381836,-0.24660277366638184,-23.468017578125,-9.368896484375,21.3775634765625
1.0462498999999998,8.813055992126465,-3.8139634132385254,-0.26096799969673157,-23.5443115234375,-9.521484375,21.270751953125
1.0487499,8.856152534484863,-3.825934410095215,-0.26096799969673157,-23.4527587890625,-10.1470947265625,20.9503173828125
1.0512499,8.927978515625,-3.840299606323242,-0.24181437492370605,-23.3154296875,-10.55908203125,20.8587646484375
1.0537499,9.014169692993164,-3.8594532012939453,-0.2059013396501541,-22.9949951171875,-10.8642578125,20.32470703125
1.0562498999999999,9.11233139038086,-3.8762125968933105,-0.1628057211637497,-22.5982666015625,-11.2457275390625,20.0958251953125
1.0587499,9.208099365234375,-3.9001545906066895,-0.10773907601833344,-21.9879150390625,-11.6729736328125,19.7601318359375
1.0612499,9.299078941345215,-3.9217023849487305,-0.05506663769483566,-21.4691162109375,-11.9781494140625,19.59228515625
1.0637499,9.38048267364502,-3.9480385780334473,-0.0071826050989329815,-20.7061767578125,-12.0697021484375,19.3023681640625
1.0662498999999999,9.442731857299805,-3.9863457679748535,0.033518824726343155,-19.8974609375,-12.115478515625,18.7530517578125
1.0687499,9.488221168518066,-4.027047157287598,0.05746084079146385,-18.8446044921875,-12.3291015625,18.524169921875
1.0712499,9.514557838439941,-4.079719543457031,0.06224924325942993,-17.8375244140625,-12.451171875,18.3563232421875
1.0737499,9.533711433410645,-4.134786128997803,0.0454898327589035,-16.7694091796875,-12.359619140625,18.06640625
1.0762498999999999,9.550470352172852,-4.1874589920043945,0.009576806798577309,-15.6097412109375,-12.3443603515625,17.6849365234375
1.0787499,9.57201862335205,-4.228160381317139,-0.040701430290937424,-14.34326171875,-12.1612548828125,17.5018310546875
1.0812499,9.603142738342285,-4.247313976287842,-0.09816227108240128,-13.4735107421875,-11.8865966796875,16.8914794921875
1.0837499,9.639056205749512,-4.240131378173828,-0.15801730751991272,-12.8326416015625,-11.627197265625,16.5252685546875
1.0862498999999999,9.66539192199707,-4.211400985717773,-0.21308395266532898,-11.9476318359375,-11.53564453125,16.1895751953125
1.0887499,9.691728591918945,-4.163516521453857,-0.26336219906806946,-11.0626220703125,-11.3983154296875,15.869140625
1.0912499,9.706093788146973,-4.120420932769775,-0.2968810200691223,-10.6964111328125,-11.2152099609375,15.380859375
1.0937499,9.72285270690918,-4.072536945343018,-0.3280056416988373,-9.979248046875,-11.138916015625,14.4805908203125
1.0962498999999999,9.749189376831055,-4.0294413566589355,-0.3471592366695404,-9.5062255859375,-10.833740234375,13.9007568359375
1.0987498999999998,9.785101890563965,-3.9887399673461914,-0.35434186458587646,-8.9263916015625,-10.711669921875,13.3514404296875
1.1012499,9.840168952941895,-3.9456443786621094,-0.3519476354122162,-8.270263671875,-10.528564453125,12.4969482421875
1.1037499,9.904812812805176,-3.912125587463379,-0.33279404044151306,-7.7972412109375,-10.3302001953125,11.9171142578125
1.1062499,9.974244117736816,-3.8953661918640137,-0.2992752194404602,-7.3394775390625,-9.9029541015625,10.9710693359375
1.1087498999999998,10.031704902648926,-3.892971992492676,-0.2561795711517334,-6.89697265625,-9.4451904296875,10.1318359375
1.1112499,10.072406768798828,-3.912125587463379,-0.2082955539226532,-6.072998046875,-9.1400146484375,9.429931640625
1.1137499,10.098742485046387,-3.9384617805480957,-0.15801730751991272,-5.3863525390625,-8.7890625,8.6212158203125
1.1162499,10.108319282531738,-3.9695863723754883,-0.11013327538967133,-4.730224609375,-8.1634521484375,7.8277587890625
1.1187498999999999,10.101137161254883,-3.998316764831543,-0.07422025501728058,-4.08935546875,-7.4310302734375,6.683349609375
1.1212499,10.08198356628418,-4.031835556030273,-0.047884032130241394,-3.0059814453125,-6.988525390625,5.9051513671875
1.1237499,10.04846477508545,-4.0749311447143555,-0.035913024097681046,-1.9378662109375,-6.34765625,5.1116943359375
1.1262499,10.007762908935547,-4.129997730255127,-0.035913024097681046,-0.6866455078125,-5.950927734375,4.0435791015625
1.1287498999999999,9.967061996459961,-4.19224739074707,-0.0454898327589035,0.54931640625,-5.7525634765625,3.2958984375
1.1312499,9.919178009033203,-4.2544965744018555,-0.05985504388809204,2.2125244140625,-5.340576171875,2.9449462890625
1.1337499,9.876082420349121,-4.316745758056641,-0.08140286058187485,3.72314453125,-4.8370361328125,2.1820068359375
1.1362499,9.825803756713867,-4.367023944854736,-0.10534487664699554,5.157470703125,-4.2877197265625,1.495361328125
1.1387498999999999,9.763554573059082,-4.410119533538818,-0.12928688526153564,6.6680908203125,-4.0130615234375,0.823974609375
1.1412499,9.627084732055664,-4.46518611907959,-0.16998831927776337,9.5977783203125,-3.2501220703125,-0.030517578125
1.1437499,9.552865028381348,-4.481945514678955,-0.1843535304069519,11.2457275390625,-2.9754638671875,-0.457763671875
1.1462499,9.478644371032715,-4.4939165115356445,-0.1867477297782898,12.87841796875,-2.8228759765625,-0.9613037109375
1.1487498999999999,9.411606788635254,-4.501099109649658,-0.181959331035614,14.2974853515625,-2.3040771484375,-1.40380859375
1.1512499,9.344569206237793,-4.503493309020996,-0.17717093229293823,15.8233642578125,-2.0294189453125,-1.556396484375
1.1537499,9.282320022583008,-4.49870491027832,-0.16759411990642548,17.0440673828125,-1.7547607421875,-1.922607421875
1.1562499,9.220070838928223,-4.484339714050293,-0.1604115068912506,18.4478759765625,-1.312255859375,-2.2430419921875
1.1587498999999999,9.155426979064941,-4.460397720336914,-0.14844051003456116,19.7296142578125,-1.15966796875,-2.4871826171875
1.1612498999999998,9.08838939666748,-4.431667327880859,-0.1388636976480484,20.8282470703125,-0.9765625,-2.6702880859375
1.1637499,9.023746490478516,-4.400542736053467,-0.13168109953403473,21.8658447265625,-0.7781982421875,-3.1585693359375
1.1662499,8.968679428100586,-4.376600742340088,-0.13407529890537262,23.0255126953125,-0.5035400390625,-3.5552978515625
1.1687499,8.913613319396973,-4.355052947998047,-0.1412578970193863,23.8189697265625,-0.3509521484375,-3.692626953125
1.1712498999999998,8.865729331970215,-4.333505153656006,-0.15801730751991272,24.505615234375,0.0152587890625,-4.3182373046875
1.1737499,8.81784439086914,-4.316745758056641,-0.17956513166427612,24.8870849609375,0.4119873046875,-4.6844482421875
1.1762499,8.777143478393555,-4.302380561828613,-0.20350714027881622,25.3143310546875,0.5950927734375,-4.9591064453125
1.1787499,8.729259490966797,-4.288015365600586,-0.2322375625371933,25.6805419921875,0.701904296875,-5.18798828125
1.1812498999999999,8.681375503540039,-4.278438568115234,-0.24899697303771973,25.7568359375,0.8544921875,-5.3558349609375
1.1837499,8.633491516113281,-4.264073371887207,-0.26575639843940735,25.8331298828125,0.885009765625,-5.6610107421875
1.1862499,8.585607528686523,-4.247313976287842,-0.2801215946674347,25.8636474609375,1.129150390625,-5.9356689453125
1.1887499,8.547300338745117,-4.228160381317139,-0.2992752194404602,25.5584716796875,0.8544921875,-6.3018798828125
1.1912498999999999,8.516175270080566,-4.20421838760376,-0.31603461503982544,25.4669189453125,1.0833740234375,-6.622314453125
1.1937499,8.497021675109863,-4.180276393890381,-0.33279404044151306,24.688720703125,1.3275146484375,-6.7901611328125
1.1962499,8.47786808013916,-4.158728122711182,-0.33997663855552673,24.1851806640625,1.4801025390625,-7.080078125
1.1987499,8.465897560119629,-4.146757125854492,-0.33518823981285095,23.8037109375,1.5869140625,-7.2784423828125
1.2012498999999999,8.453926086425781,-4.141968727111816,-0.31842881441116333,23.0712890625,1.7852783203125,-7.568359375
1.2037499,8.446743965148926,-4.14915132522583,-0.2992752194404602,22.39990234375,1.983642578125,-7.87353515625
1.2062499,8.446743965148926,-4.163516521453857,-0.2849099934101105,21.5911865234375,2.166748046875,-8.2244873046875
1.2087499,8.456320762634277,-4.185064792633057,-0.2753331959247589,21.087646484375,2.5177001953125,-8.4075927734375
1.2112498999999999,8.468291282653809,-4.213795185089111,-0.272938996553421,20.538330078125,2.8839111328125,-8.7432861328125
1.2137499,8.480262756347656,-4.24970817565918,-0.27054479718208313,19.4244384765625,3.4027099609375,-8.7738037109375
1.2162499,8.487444877624512,-4.285621166229248,-0.27054479718208313,18.7835693359375,3.814697265625,-8.819580078125
1.2187499,8.482656478881836,-4.321534156799316,-0.2777273952960968,17.8985595703125,4.241943359375,-8.97216796875
1.2212498999999999,8.470685958862305,-4.350264549255371,-0.2801215946674347,17.1966552734375,4.5928955078125,-8.9569091796875
1.2237498999999998,8.453926086425781,-4.381389141082764,-0.2992752194404602,16.510009765625,4.9896240234375,-9.0484619140625
1.2262499,8.437167167663574,-4.4077253341674805,-0.31124621629714966,15.716552734375,5.37109375,-8.9263916015625
1.2287499,8.42040729522705,-4.441244125366211,-0.31842881441116333,15.228271484375,5.7220458984375,-8.9111328125
1.2312499,8.4108304977417,-4.4723687171936035,-0.3208230137825012,14.8773193359375,5.950927734375,-9.124755859375
1.2337498999999998,8.403648376464844,-4.51067590713501,-0.31124621629714966,14.34326171875,6.378173828125,-9.1400146484375
1.2362499,8.401253700256348,-4.551377296447754,-0.2992752194404602,13.8397216796875,6.744384765625,-8.85009765625
1.2387499,8.396465301513672,-4.594472885131836,-0.28969839215278625,13.5955810546875,7.14111328125,-9.033203125
1.2412499,8.38688850402832,-4.642356872558594,-0.2801215946674347,13.458251953125,7.4310302734375,-8.941650390625
1.2437498999999999,8.372523307800293,-4.697423934936523,-0.2801215946674347,13.3514404296875,7.8582763671875,-8.7127685546875
1.2462499,8.35097599029541,-4.759673118591309,-0.2825157940387726,13.641357421875,7.965087890625,-8.5601806640625
1.2487499,8.33182144165039,-4.8267107009887695,-0.2825157940387726,13.9007568359375,8.1329345703125,-8.270263671875
1.2512499,8.310274124145508,-4.896142482757568,-0.28730419278144836,14.1448974609375,8.2855224609375,-8.087158203125
1.2537498999999999,8.293514251708984,-4.963180065155029,-0.2849099934101105,14.5111083984375,8.331298828125,-7.7972412109375
1.2562499,8.274360656738281,-5.0254292488098145,-0.2825157940387726,15.1519775390625,8.6212158203125,-7.62939453125
1.2587499,8.259995460510254,-5.0900726318359375,-0.2753331959247589,15.7623291015625,8.6669921875,-7.4920654296875
1.2612499,8.255207061767578,-5.147533416748047,-0.26815059781074524,16.4337158203125,8.7432861328125,-7.232666015625
1.2637498999999999,8.257601737976074,-5.202600479125977,-0.27054479718208313,17.39501953125,9.002685546875,-6.9122314453125
1.2662499,8.259995460510254,-5.252878665924072,-0.2801215946674347,18.4326171875,8.9111328125,-6.4849853515625
1.2687499,8.26239013671875,-5.288791656494141,-0.2968810200691223,19.2108154296875,9.1094970703125,-6.1187744140625
1.2712499,8.257601737976074,-5.317522048950195,-0.31603461503982544,19.9127197265625,9.3536376953125,-5.79833984375
1.2737498999999999,8.245630264282227,-5.339069843292236,-0.33518823981285095,20.8587646484375,9.521484375,-5.5999755859375
1.2762499,8.22887134552002,-5.360617637634277,-0.3495534360408783,22.003173828125,9.2926025390625,-5.1727294921875
1.2787499,8.209717750549316,-5.382165431976318,-0.35913026332855225,23.0712890625,9.1705322265625,-4.6844482421875
1.2812499,8.195352554321289,-5.4013190269470215,-0.3663128614425659,24.1241455078125,9.2010498046875,-4.2266845703125
1.2837498999999999,8.185775756835938,-5.4228668212890625,-0.3687070608139038,25.1007080078125,9.1094970703125,-4.058837890625
1.2862498999999998,8.178592681884766,-5.43723201751709,-0.3711012601852417,26.0009765625,9.002685546875,-3.6468505859375
1.2887499,8.17380428314209,-5.449203014373779,-0.3734954595565796,26.8096923828125,8.8348388671875,-3.2806396484375
1.2912499,8.166622161865234,-5.446808815002441,-0.3734954595565796,27.557373046875,8.7738037109375,-3.0670166015625
1.2937499,8.161833763122559,-5.442020416259766,-0.3734954595565796,28.289794921875,8.48388671875,-2.5634765625
1.2962498999999998,8.159439086914062,-5.432443618774414,-0.37828385829925537,28.961181640625,8.3160400390625,-2.3193359375
1.2987499,8.161833763122559,-5.4252610206604,-0.38546648621559143,29.7393798828125,8.1329345703125,-1.861572265625
1.3012499,8.169015884399414,-5.413290023803711,-0.40701428055763245,30.2276611328125,7.843017578125,-1.4495849609375
1.3037499,8.178592681884766,-5.396530628204346,-0.4213795065879822,30.7159423828125,7.7972412109375,-1.1444091796875
1.3062498999999999,8.188169479370117,-5.370194435119629,-0.44532153010368347,31.005859375,7.476806640625,-0.8392333984375
1.3087499,8.197746276855469,-5.341464042663574,-0.4620809257030487,30.8380126953125,7.38525390625,-0.6866455078125
1.3112499,8.200140953063965,-5.317522048950195,-0.47405192255973816,31.097412109375,7.232666015625,-0.3509521484375
1.3137499,8.192957878112793,-5.295974254608154,-0.47884035110473633,31.280517578125,7.14111328125,-0.152587890625
1.3162498999999999,8.188169479370117,-5.279214859008789,-0.47644615173339844,31.2957763671875,6.8206787109375,0.0152587890625
1.3187499,8.176198959350586,-5.260061264038086,-0.47165772318840027,31.1737060546875,6.40869140625,0.244140625
1.3212499,8.17141056060791,-5.243301868438721,-0.4668693244457245,30.8685302734375,6.134033203125,0.5340576171875
1.3237499,8.17380428314209,-5.224148273468018,-0.4596867263317108,30.1513671875,5.79833984375,0.7171630859375
1.3262498999999999,8.185775756835938,-5.2049946784973145,-0.4596867263317108,29.7088623046875,5.462646484375,0.7171630859375
1.3287499,8.209717750549316,-5.188235282897949,-0.45489832758903503,29.2816162109375,5.06591796875,0.79345703125
1.3312499,8.2312650680542,-5.169081687927246,-0.45250412821769714,28.6712646484375,4.7149658203125,1.0528564453125
1.3337499,8.257601737976074,-5.152322292327881,-0.45010992884635925,27.9998779296875,4.486083984375,1.3275146484375
1.3362498999999999,8.269572257995605,-5.137956619262695,-0.4429273009300232,27.0843505859375,3.936767578125,1.312255859375
1.3387499,8.279149055480957,-5.125985622406006,-0.44532153010368347,26.18408203125,3.692626953125,1.5411376953125
1.3412499,8.283937454223633,-5.12119722366333,-0.45250412821769714,25.3448486328125,3.5552978515625,1.5106201171875
1.3437499,8.283937454223633,-5.114014625549316,-0.4620809257030487,24.6429443359375,3.1280517578125,1.495361328125
1.3462498999999999,8.283937454223633,-5.1116204261779785,-0.47644615173339844,23.468017578125,2.777099609375,1.8157958984375
1.3487498999999998,8.283937454223633,-5.1116204261779785,-0.4908113479614258,22.3236083984375,2.4261474609375,1.9683837890625
1.3512499,8.283937454223633,-5.130774021148682,-0.524330198764801,19.8211669921875,2.0751953125,2.25830078125
1.3537499,8.283937454223633,-5.149928092956543,-0.5386953949928284,18.7835693359375,1.922607421875,2.777099609375
1.3562499,8.283937454223633,-5.166687488555908,-0.5482721924781799,17.5628662109375,1.739501953125,2.7923583984375
1.3587498999999998,8.281543731689453,-5.173870086669922,-0.5578489899635315,16.3421630859375,1.3427734375,2.8839111328125
1.3612499,8.274360656738281,-5.1810526847839355,-0.5626373887062073,15.106201171875,1.0528564453125,3.1890869140625
1.3637499,8.274360656738281,-5.1810526847839355,-0.5674257874488831,13.916015625,0.8392333984375,3.2958984375
1.3662499,8.276755332946777,-5.185841083526611,-0.569819986820221,12.847900390625,0.6561279296875,3.4332275390625
1.3687498999999999,8.293514251708984,-5.195417881011963,-0.5722141861915588,11.383056640625,0.335693359375,3.5858154296875
1.3712499,8.310274124145508,-5.207388877868652,-0.569819986820221,10.4827880859375,0.274658203125,3.692626953125
1.3737499,8.322244644165039,-5.212177276611328,-0.5746083855628967,9.796142578125,0.18310546875,3.7994384765625
1.3762499,8.324639320373535,-5.20978307723999,-0.5793967843055725,8.6517333984375,-0.213623046875,3.7078857421875
1.3787498999999999,8.31985092163086,-5.200206279754639,-0.5985504388809204,7.354736328125,-0.7476806640625,3.662109375
1.3812499,8.312667846679688,-5.190629482269287,-0.6200982332229614,6.28662109375,-1.007080078125,3.84521484375
1.3837499,8.324639320373535,-5.197812080383301,-0.6368576288223267,5.37109375,-1.2359619140625,3.8604736328125
1.3862499,8.346187591552734,-5.22175407409668,-0.6488286852836609,4.8828125,-1.2969970703125,3.9825439453125
1.3887498999999999,8.396465301513672,-5.2672438621521,-0.646434485912323,4.3487548828125,-1.6021728515625,4.0435791015625
1.3912499,8.439560890197754,-5.2911858558654785,-0.6440402865409851,3.9215087890625,-1.6326904296875,3.9520263671875
1.3937499,8.485051155090332,-5.3127336502075195,-0.6344634294509888,3.173828125,-1.8310546875,3.7994384765625
1.3962499,8.53293514251709,-5.324704647064209,-0.6272808313369751,2.4871826171875,-1.9378662109375,3.8299560546875
1.3987498999999999,8.564059257507324,-5.322310447692871,-0.629675030708313,2.288818359375,-1.8310546875,3.8299560546875
1.4012499,8.604761123657227,-5.341464042663574,-0.6320692300796509,1.739501953125,-2.13623046875,4.1656494140625
1.4037499,8.640673637390137,-5.365406036376953,-0.6560112833976746,1.40380859375,-1.861572265625,4.302978515625
1.4062499,8.664615631103516,-5.389348030090332,-0.6871358752250671,1.03759765625,-2.0751953125,4.45556640625
1.4087498999999999,8.69334602355957,-5.420472621917725,-0.7158663272857666,0.48828125,-2.197265625,4.638671875
1.4112498999999998,8.705317497253418,-5.430049419403076,-0.7445967197418213,0.579833984375,-2.1514892578125,4.7149658203125
1.4137499,8.722076416015625,-5.434837818145752,-0.7541735172271729,0.2899169921875,-2.1209716796875,4.669189453125
1.4162499,8.746018409729004,-5.434837818145752,-0.7469909191131592,0.091552734375,-2.38037109375,4.94384765625
1.4187499,8.75080680847168,-5.396530628204346,-0.7374141216278076,0.3204345703125,-2.2430419921875,4.8370361328125
1.4212498999999998,8.779537200927734,-5.389348030090332,-0.7134721279144287,-0.335693359375,-2.38037109375,4.791259765625
1.4237499,8.801085472106934,-5.34625244140625,-0.7086837291717529,-0.274658203125,-2.2735595703125,4.8065185546875
1.4262499,8.829815864562988,-5.3342814445495605,-0.6967126727104187,-0.2288818359375,-2.197265625,4.7760009765625
1.4287499,8.860940933227539,-5.307945251464844,-0.6943184733390808,-0.213623046875,-2.0751953125,4.8370361328125
1.4312498999999999,8.89445972442627,-5.305551052093506,-0.689530074596405,-0.579833984375,-2.01416015625,4.669189453125
1.4337499,8.899248123168945,-5.272032260894775,-0.7015010714530945,-0.518798828125,-2.1209716796875,4.2724609375
1.4362499,8.911218643188477,-5.2672438621521,-0.7110779285430908,-0.640869140625,-2.2430419921875,4.21142578125
1.4387499,8.916007041931152,-5.262455463409424,-0.7254431247711182,-0.6103515625,-2.2430419921875,4.2724609375
1.4412498999999999,8.93037223815918,-5.2696380615234375,-0.7374141216278076,-0.518798828125,-1.9989013671875,3.936767578125
1.4437499,8.949525833129883,-5.279214859008789,-0.7445967197418213,-0.4730224609375,-1.8157958984375,3.9215087890625
1.4462499,8.968679428100586,-5.272032260894775,-0.7469909191131592,-0.7171630859375,-1.8157958984375,3.509521484375
1.4487499,8.978256225585938,-5.245696067810059,-0.7469909191131592,-0.946044921875,-2.105712890625,3.265380859375
1.4512498999999999,8.980650901794434,-5.212177276611328,-0.7398083209991455,-1.312255859375,-2.25830078125,3.173828125
1.4537499,9.002198219299316,-5.2049946784973145,-0.7230489253997803,-1.495361328125,-1.983642578125,2.8228759765625
1.4562499,9.028534889221191,-5.195417881011963,-0.706289529800415,-0.823974609375,-1.708984375,2.593994140625
1.4587499,9.066842079162598,-5.207388877868652,-0.6967126727104187,-0.5950927734375,-1.6937255859375,2.1820068359375
1.4612498999999999,9.095572471618652,-5.195417881011963,-0.6991068720817566,-0.9002685546875,-1.708984375,1.6937255859375
1.4637499,9.114726066589355,-5.173870086669922,-0.7110779285430908,-1.190185546875,-1.434326171875,1.5716552734375
1.4662499,9.119514465332031,-5.152322292327881,-0.7230489253997803,-1.434326171875,-1.129150390625,1.3885498046875
1.4687499,9.119514465332031,-5.145139217376709,-0.7230489253997803,-1.6021728515625,-1.007080078125,0.9613037109375
1.4712498999999999,9.117119789123535,-5.152322292327881,-0.7086837291717529,-1.3580322265625,-0.946044921875,0.54931640625
1.4737498999999998,9.100360870361328,-5.154716491699219,-0.6799532771110535,-1.40380859375,-0.885009765625,0.2593994140625
1.4762499,9.08838939666748,-5.169081687927246,-0.6344634294509888,-1.7547607421875,-1.0528564453125,0.030517578125
1.4787499,9.069235801696777,-5.152322292327881,-0.5937620401382446,-1.434326171875,-0.946044921875,-0.244140625
1.4812499,9.059659004211426,-5.154716491699219,-0.5410895943641663,-1.373291015625,-0.762939453125,-0.79345703125
1.4837498999999998,9.062053680419922,-5.140350818634033,-0.5027823448181152,-1.617431640625,-0.6561279296875,-1.03759765625
1.4862499,9.071630477905273,-5.128379821777344,-0.4644751250743866,-1.40380859375,-0.54931640625,-1.2054443359375
1.4887499,9.078812599182129,-5.114014625549316,-0.43095630407333374,-1.4495849609375,-0.42724609375,-1.4495849609375
1.4912499,9.081207275390625,-5.0900726318359375,-0.4118026793003082,-1.678466796875,-0.2288818359375,-1.9073486328125
1.4937498999999999,9.078812599182129,-5.073313236236572,-0.395043283700943,-1.8463134765625,-0.30517578125,-2.0599365234375
1.4962499,9.071630477905273,-5.070919036865234,-0.3902548849582672,-1.7852783203125,-0.0457763671875,-2.3651123046875
1.4987499,9.066842079162598,-5.0685248374938965,-0.3926490843296051,-1.312255859375,-0.030517578125,-2.593994140625
1.5012499,9.059659004211426,-5.070919036865234,-0.3902548849582672,-1.434326171875,0.3814697265625,-3.0670166015625
1.5037498999999999,9.045293807983398,-5.061342239379883,-0.3902548849582672,-1.8310546875,0.0762939453125,-3.4027099609375
1.5062499,9.033323287963867,-5.049371242523193,-0.38067805767059326,-1.8768310546875,0.030517578125,-3.7384033203125
1.5087499,9.016563415527344,-5.039794445037842,-0.37828385829925537,-1.708984375,0.1220703125,-4.058837890625
1.5112499,9.011775016784668,-5.039794445037842,-0.3663128614425659,-1.373291015625,0.152587890625,-4.45556640625
1.5137498999999999,9.002198219299316,-5.044582843780518,-0.35434186458587646,-1.312255859375,0.0152587890625,-5.0048828125
1.5162499,8.99740982055664,-5.039794445037842,-0.33518823981285095,-1.2969970703125,-0.1220703125,-5.3863525390625
1.5187499,8.983044624328613,-5.0254292488098145,-0.31603461503982544,-1.1444091796875,-0.2593994140625,-5.5694580078125
1.5212499,8.966285705566406,-4.99669885635376,-0.29209262132644653,-1.129150390625,-0.4425048828125,-6.1492919921875
1.5237498999999999,8.947132110595703,-4.963180065155029,-0.272938996553421,-1.0223388671875,-0.579833984375,-6.561279296875
1.5262499,8.927978515625,-4.929661273956299,-0.24420857429504395,-0.9613037109375,-0.6561279296875,-7.080078125
1.5287499,8.916007041931152,-4.912901878356934,-0.21547815203666687,-0.6561279296875,-0.396728515625,-7.568359375
1.5312499,8.9064302444458,-4.90571928024292,-0.1843535304069519,-0.396728515625,-0.6561279296875,-8.1939697265625
1.5337498999999999,8.89445972442627,-4.910507678985596,-0.15801730751991272,-0.274658203125,-0.701904296875,-8.5906982421875
1.5362499,8.884882926940918,-4.912901878356934,-0.14365209639072418,0.0457763671875,-0.9613037109375,-9.002685546875
1.5387499,8.863334655761719,-4.920084476470947,-0.1412578970193863,0.152587890625,-1.1138916015625,-9.246826171875
1.5412499,8.83699893951416,-4.924872875213623,-0.14365209639072418,0.1373291015625,-1.1749267578125,-9.521484375
1.5437499,8.815450668334961,-4.941632270812988,-0.14844051003456116,0.5035400390625,-1.1749267578125,-10.009765625
1.5462498999999998,8.793902397155762,-4.948814868927002,-0.15562310814857483,0.8544921875,-1.4495849609375,-9.979248046875
1.5487499,8.78432559967041,-4.953603267669678,-0.1628057211637497,0.9918212890625,-1.5411376953125,-10.2386474609375
1.5512499,8.777143478393555,-4.934449672698975,-0.17717093229293823,0.946044921875,-1.6937255859375,-10.4217529296875
1.5537499,8.769960403442383,-4.9152960777282715,-0.1843535304069519,0.9765625,-2.01416015625,-10.6201171875
1.5562498999999999,8.755595207214355,-4.879383087158203,-0.19153612852096558,1.15966796875,-2.0294189453125,-10.6048583984375
1.5587499,8.743624687194824,-4.843470096588135,-0.1867477297782898,0.8697509765625,-2.4261474609375,-10.92529296875
1.5612499,8.71489429473877,-4.750096321105957,-0.15562310814857483,0.67138671875,-2.7313232421875,-11.5509033203125
1.5637499,8.71489429473877,-4.702212333679199,-0.1364694982767105,0.732421875,-2.9754638671875,-11.993408203125
1.5662498999999999,8.729259490966797,-4.659116744995117,-0.10773907601833344,0.640869140625,-3.11279296875,-12.3291015625
1.5687499,8.743624687194824,-4.618414878845215,-0.08619125932455063,0.6866455078125,-3.448486328125,-12.6953125
1.5712499,8.765172004699707,-4.577713489532471,-0.05506663769483566,0.7476806640625,-3.90625,-12.9547119140625
1.5737499,8.779537200927734,-4.54419469833374,-0.026336219161748886,0.640869140625,-4.119873046875,-13.24462890625
1.5762498999999999,8.791508674621582,-4.508281707763672,0,0.5645751953125,-4.4708251953125,-13.7176513671875
1.5787499,8.803479194641113,-4.4939165115356445,0.019153613597154617,0.3204345703125,-4.5166015625,-13.9312744140625
1.5812499,8.810662269592285,-4.486733913421631,0.033518824726343155,0.518798828125,-4.730224609375,-14.129638671875
1.5837499,8.820239067077637,-4.496310710906982,0.043095629662275314,0.5340576171875,-4.7607421875,-14.495849609375
1.5862498999999999,8.822632789611816,-4.513070106506348,0.05027823522686958,0.54931640625,-4.8980712890625,-14.7857666015625
1.5887499,8.825027465820312,-4.525041103363037,0.05985504388809204,0.7476806640625,-5.2947998046875,-14.617919921875
1.5912499,8.822632789611816,-4.537012100219727,0.05985504388809204,0.732421875,-5.18798828125,-14.617919921875
1.5937499,8.810662269592285,-4.5394062995910645,0.05267243832349777,0.5645751953125,-5.2032470703125,-14.6942138671875
1.5962498999999999,8.798690795898438,-4.534617900848389,0.043095629662275314,0.54931640625,-5.31005859375,-14.6942138671875
1.5987499,8.779537200927734,-4.522646903991699,0.026336219161748886,0.6256103515625,-5.462646484375,-14.495849609375
1.6012499,8.762778282165527,-4.496310710906982,0.0071826050989329815,0.701904296875,-5.6610107421875,-14.5721435546875
1.6037499,8.738836288452148,-4.46518611907959,-0.014365210197865963,0.5340576171875,-5.7373046875,-14.70947265625
1.6062499,8.71489429473877,-4.41969633102417,-0.043095629662275314,0.4730224609375,-5.8441162109375,-14.6331787109375
1.6087498999999998,8.69095230102539,-4.381389141082764,-0.07182604819536209,0.3814697265625,-6.103515625,-14.70947265625
1.6112499,8.662221908569336,-4.343081951141357,-0.09816227108240128,0.335693359375,-6.2255859375,-14.7857666015625
1.6137499,8.640673637390137,-4.3191399574279785,-0.11971008777618408,0.3662109375,-6.4544677734375,-14.95361328125
1.6162499,8.62630844116211,-4.299986362457275,-0.13168109953403473,0.06103515625,-6.7138671875,-14.9078369140625
1.6187498999999999,8.611943244934082,-4.280832767486572,-0.14365209639072418,0.3204345703125,-7.0953369140625,-14.9383544921875
1.6212499,8.60236644744873,-4.261679172515869,-0.14844051003456116,0.244140625,-7.171630859375,-14.83154296875
1.6237499,8.592789649963379,-4.23773717880249,-0.15562310814857483,0.0152587890625,-7.354736328125,-14.862060546875
1.6262499,8.585607528686523,-4.213795185089111,-0.1604115068912506,-0.1220703125,-7.38525390625,-14.923095703125
1.6287498999999999,8.578424453735352,-4.1874589920043945,-0.16759411990642548,-0.3814697265625,-7.598876953125,-14.7552490234375
1.6312499,8.578424453735352,-4.163516521453857,-0.17717093229293823,-0.579833984375,-7.7667236328125,-15.0146484375
1.6337499,8.576030731201172,-4.1395745277404785,-0.1867477297782898,-0.54931640625,-7.8277587890625,-15.045166015625
1.6362499,8.580819129943848,-4.120420932769775,-0.19393034279346466,-0.8697509765625,-7.9498291015625,-15.106201171875
1.6387498999999999,8.592789649963379,-4.10366153717041,-0.20111294090747833,-0.8544921875,-7.8277587890625,-15.0146484375
1.6412499,8.604761123657227,-4.101267337799072,-0.20350714027881622,-0.8392333984375,-7.8582763671875,-14.892578125
1.6437499,8.621520042419434,-4.0964789390563965,-0.2059013396501541,-0.9307861328125,-7.9498291015625,-14.8773193359375
1.6462499,8.628703117370605,-4.101267337799072,-0.2106897532939911,-1.068115234375,-7.8582763671875,-14.892578125
1.6487498999999999,8.62630844116211,-4.10366153717041,-0.21787235140800476,-1.2664794921875,-7.843017578125,-14.556884765625
1.6512499,8.614337921142578,-4.106055736541748,-0.2322375625371933,-1.2359619140625,-7.843017578125,-14.556884765625
1.6537499,8.59997272491455,-4.110844135284424,-0.24660277366638184,-1.2054443359375,-8.0413818359375,-14.3890380859375
1.6562499,8.5903959274292,-4.110844135284424,-0.26096799969673157,-0.946044921875,-8.1939697265625,-14.2364501953125
1.6587498999999999,8.5903959274292,-4.110844135284424,-0.26815059781074524,-1.2359619140625,-7.8887939453125,-14.068603515625
1.6612499,8.592789649963379,-4.106055736541748,-0.27054479718208313,-1.190185546875,-7.904052734375,-13.916015625
1.6637499,8.604761123657227,-4.10366153717041,-0.26815059781074524,-1.0528564453125,-7.8277587890625,-13.519287109375
1.6662499,8.611943244934082,-4.0964789390563965,-0.26336219906806946,-1.1444091796875,-7.75146484375,-13.5040283203125
1.6687499,8.621520042419434,-4.0964789390563965,-0.2585737705230713,-0.9002685546875,-7.843017578125,-13.4429931640625
1.6712498999999998,8.628703117370605,-4.091690540313721,-0.2513911724090576,-0.732421875,-7.537841796875,-13.3056640625
1.6737499,8.635885238647461,-4.094084739685059,-0.24899697303771973,-0.6103515625,-7.2174072265625,-12.8326416015625
1.6762499,8.640673637390137,-4.094084739685059,-0.24660277366638184,-0.42724609375,-7.4615478515625,-12.6495361328125
1.6787499,8.645462036132812,-4.0964789390563965,-0.24899697303771973,-0.1220703125,-7.293701171875,-12.4359130859375
1.6812498999999999,8.643068313598633,-4.101267337799072,-0.2537853717803955,0.2593994140625,-6.927490234375,-12.420654296875
1.6837499,8.640673637390137,-4.10366153717041,-0.26815059781074524,0.4119873046875,-6.988525390625,-12.1917724609375
1.6862499,8.635885238647461,-4.101267337799072,-0.2849099934101105,0.67138671875,-6.8359375,-11.810302734375
1.6887499,8.635885238647461,-4.0964789390563965,-0.31124621629714966,0.885009765625,-6.5460205078125,-11.871337890625
1.6912498999999999,8.643068313598633,-4.091690540313721,-0.33997663855552673,1.0223388671875,-6.4697265625,-11.5203857421875
1.6937499,8.65743350982666,-4.079719543457031,-0.3687070608139038,1.251220703125,-6.34765625,-11.2762451171875
1.6962499,8.674192428588867,-4.077325344085693,-0.3902548849582672,1.5106201171875,-6.256103515625,-10.9405517578125
1.6987499,8.686163902282715,-4.065354347229004,-0.40940847992897034,1.6937255859375,-6.256103515625,-10.9100341796875
1.7012498999999999,8.69095230102539,-4.062960147857666,-0.42616790533065796,2.2430419921875,-5.8746337890625,-10.528564453125
1.7037499,8.69334602355957,-4.05817174911499,-0.4429273009300232,2.4566650390625,-5.7373046875,-10.25390625
1.7062499,8.698134422302246,-4.050989151000977,-0.45489832758903503,2.8076171875,-5.7830810546875,-10.1318359375
1.7087499,8.69334602355957,-4.039018154144287,-0.4668693244457245,2.899169921875,-5.4779052734375,-9.8724365234375
1.7112498999999999,8.69334602355957,-4.027047157287598,-0.4692635238170624,3.082275390625,-5.2032470703125,-9.7503662109375
1.7137499,8.686163902282715,-4.017470359802246,-0.47884035110473633,3.3111572265625,-5.18798828125,-9.4146728515625
1.7162499,8.686163902282715,-4.010287761688232,-0.48602294921875,3.5552978515625,-5.18798828125,-9.0179443359375
1.7187499,8.686163902282715,-4.0078935623168945,-0.4908113479614258,3.570556640625,-4.82177734375,-8.6822509765625
1.7212498999999999,8.688557624816895,-4.005499362945557,-0.48602294921875,3.6773681640625,-4.8065185546875,-8.4686279296875
1.7237499,8.69095230102539,-3.993528366088867,-0.4692635238170624,3.875732421875,-4.7454833984375,-8.1939697265625
1.7262499,8.69334602355957,-3.976768970489502,-0.45250412821769714,3.6468505859375,-4.4403076171875,-7.87353515625
1.7287499,8.69334602355957,-3.955221176147461,-0.4381389021873474,3.3111572265625,-4.3487548828125,-7.62939453125
1.7312499,8.695740699768066,-3.931279182434082,-0.43335050344467163,3.2196044921875,-4.058837890625,-7.720947265625
1.7337498999999998,8.695740699768066,-3.907337188720703,-0.43095630407333374,3.4027099609375,-4.241943359375,-7.7362060546875
1.7362499,8.698134422302246,-3.88818359375,-0.4381389021873474,3.11279296875,-3.875732421875,-7.5531005859375
1.7387499,8.702922821044922,-3.8714241981506348,-0.44771572947502136,2.838134765625,-3.692626953125,-7.354736328125
1.7412499,8.705317497253418,-3.8594532012939453,-0.4644751250743866,2.899169921875,-3.6163330078125,-7.2021484375
1.7437498999999999,8.710105895996094,-3.8498764038085938,-0.4812345504760742,2.6702880859375,-3.448486328125,-7.080078125
1.7462499,8.71489429473877,-3.845088005065918,-0.5003881454467773,2.3956298828125,-3.2958984375,-6.8206787109375
1.7487499,8.719682693481445,-3.845088005065918,-0.524330198764801,2.197265625,-3.204345703125,-7.0648193359375
1.7512499,8.722076416015625,-3.847482204437256,-0.5386953949928284,1.800537109375,-3.1280517578125,-6.8511962890625
1.7537498999999999,8.7268648147583,-3.861847400665283,-0.5554547905921936,1.77001953125,-2.9144287109375,-6.591796875
1.7562499,8.724471092224121,-3.8738183975219727,-0.5602431893348694,1.5869140625,-2.838134765625,-6.3934326171875
1.7587499,8.729259490966797,-3.892971992492676,-0.5578489899635315,1.4495849609375,-2.838134765625,-6.3934326171875
1.7612499,8.734047889709473,-3.909731388092041,-0.5482721924781799,1.190185546875,-2.6092529296875,-6.195068359375
1.7637498999999999,8.741230010986328,-3.9264907836914062,-0.5410895943641663,1.220703125,-2.410888671875,-5.9661865234375
1.7662499,8.746018409729004,-3.9432501792907715,-0.5339069962501526,0.885009765625,-2.4261474609375,-5.7830810546875
1.7687499,8.746018409729004,-3.955221176147461,-0.5291185975074768,0.701904296875,-2.0294189453125,-5.5999755859375
1.7712499,8.75080680847168,-3.9647979736328125,-0.5315127968788147,0.2593994140625,-1.8157958984375,-5.5084228515625
1.7737498999999999,8.755595207214355,-3.971980571746826,-0.5363011956214905,0.213623046875,-1.7852783203125,-5.2642822265625
1.7762499,8.755595207214355,-3.976768970489502,-0.5386953949928284,0.0457763671875,-1.64794921875,-5.279541015625
1.7787499,8.757989883422852,-3.9839515686035156,-0.5506663918495178,-0.0762939453125,-1.52587890625,-4.9591064453125
1.7812499,8.753201484680176,-4.000710964202881,-0.5554547905921936,-0.0152587890625,-1.4495849609375,-4.608154296875
1.7837498999999999,8.753201484680176,-4.010287761688232,-0.569819986820221,-0.1983642578125,-1.4190673828125,-4.7454833984375
1.7862499,8.755595207214355,-4.027047157287598,-0.5746083855628967,-0.18310546875,-1.1444091796875,-4.6234130859375
1.7887499,8.755595207214355,-4.039018154144287,-0.5793967843055725,-0.152587890625,-1.2969970703125,-4.57763671875
1.7912499,8.760383605957031,-4.050989151000977,-0.5793967843055725,-0.3814697265625,-1.3275146484375,-4.33349609375
1.7937499,8.765172004699707,-4.060565948486328,-0.569819986820221,-0.42724609375,-1.1444091796875,-4.1046142578125
1.7962498999999998,8.774748802185059,-4.065354347229004,-0.5554547905921936,-0.213623046875,-0.9613037109375,-4.0435791015625
1.7987499,8.789113998413086,-4.062960147857666,-0.5386953949928284,-0.1220703125,-0.7476806640625,-3.7994384765625
1.8012499,8.810662269592285,-4.05817174911499,-0.5195417404174805,-0.152587890625,-0.91552734375,-3.6163330078125
1.8037499,8.829815864562988,-4.050989151000977,-0.5051765441894531,-0.0152587890625,-0.762939453125,-3.5400390625
1.8062498999999999,8.848969459533691,-4.043806552886963,-0.49559974670410156,0.1220703125,-0.48828125,-3.4637451171875
1.8087499,8.860940933227539,-4.041412353515625,-0.4884171485900879,0.152587890625,-0.42724609375,-3.72314453125
1.8112499,8.87051773071289,-4.036623954772949,-0.4812345504760742,0.213623046875,-0.152587890625,-3.6468505859375
1.8137499,8.882488250732422,-4.036623954772949,-0.47884035110473633,0.1678466796875,-0.030517578125,-3.3721923828125
1.8162498999999999,8.89445972442627,-4.039018154144287,-0.47644615173339844,0.18310546875,-0.0457763671875,-3.3416748046875
1.8187499,8.904036521911621,-4.048594951629639,-0.47165772318840027,0.1678466796875,-0.0457763671875,-3.23486328125
1.8212499,8.916007041931152,-4.055777549743652,-0.4692635238170624,0.518798828125,0.0762939453125,-3.021240234375
1.8237499,8.920795440673828,-4.067748546600342,-0.4668693244457245,0.8544921875,0.2288818359375,-3.082275390625
1.8262498999999999,8.920795440673828,-4.0749311447143555,-0.4692635238170624,0.732421875,0.2593994140625,-2.99072265625
1.8287499,8.916007041931152,-4.077325344085693,-0.47165772318840027,0.9765625,0.701904296875,-2.7618408203125
1.8312499,8.913613319396973,-4.0749311447143555,-0.4836287498474121,1.4495849609375,0.518798828125,-2.4261474609375
1.8337499,8.913613319396973,-4.072536945343018,-0.49320554733276367,1.46484375,0.5035400390625,-2.471923828125
1.8362498999999999,8.925583839416504,-4.065354347229004,-0.507570743560791,1.2664794921875,1.0223388671875,-2.2430419921875
1.8387499,8.937555313110352,-4.05817174911499,-0.5171475410461426,1.6937255859375,1.1749267578125,-2.0294189453125
1.8412499,8.951920509338379,-4.043806552886963,-0.5147533416748047,1.6326904296875,0.9918212890625,-1.77001953125
1.8437499,8.959102630615234,-4.02465295791626,-0.507570743560791,1.5869140625,1.2664794921875,-1.6937255859375
1.8462498999999999,8.956708908081055,-4.000710964202881,-0.48602294921875,1.6632080078125,1.15966796875,-1.6937255859375
1.8487499,8.954314231872559,-3.974374771118164,-0.4692635238170624,1.5106201171875,1.2969970703125,-1.6021728515625
1.8512499,8.954314231872559,-3.9480385780334473,-0.45250412821769714,1.46484375,1.617431640625,-1.40380859375
1.8537499,8.966285705566406,-3.9264907836914062,-0.4381389021873474,1.5106201171875,1.77001953125,-1.434326171875
1.8562499,8.978256225585938,-3.9049429893493652,-0.43095630407333374,1.4801025390625,1.77001953125,-1.251220703125
1.8587498999999998,8.992621421813965,-3.890577793121338,-0.4213795065879822,1.3275146484375,1.9989013671875,-1.1749267578125
1.8612499,8.995016098022461,-3.8762125968933105,-0.42377370595932007,1.007080078125,2.13623046875,-1.1749267578125
1.8637499,9.002198219299316,-3.864241600036621,-0.42616790533065796,0.6866455078125,2.0294189453125,-0.6866455078125
1.8662499,9.004592895507812,-3.8546648025512695,-0.43335050344467163,0.4730224609375,2.1514892578125,-0.9307861328125
1.8687498999999999,9.01895809173584,-3.8522706031799316,-0.44532153010368347,0.4119873046875,2.44140625,-0.9307861328125
1.8712499,9.035717010498047,-3.845088005065918,-0.45250412821769714,0.1678466796875,2.7313232421875,-0.67138671875
1.8737499,9.05247688293457,-3.845088005065918,-0.45489832758903503,-0.244140625,2.62451171875,-0.4730224609375
1.8762499,9.062053680419922,-3.840299606323242,-0.45489832758903503,-0.4119873046875,2.7008056640625,-0.4425048828125
1.8787498999999999,9.069235801696777,-3.840299606323242,-0.44771572947502136,-0.5340576171875,2.8076171875,-0.3204345703125
1.8812499,9.078812599182129,-3.8379054069519043,-0.4381389021873474,-0.8087158203125,2.7313232421875,-0.30517578125
1.8837499,9.083600997924805,-3.8331170082092285,-0.42856210470199585,-1.0528564453125,2.99072265625,-0.2593994140625
1.8862499,9.090784072875977,-3.8307228088378906,-0.4118026793003082,-1.3427734375,3.173828125,-0.3204345703125
1.8887498999999999,9.090784072875977,-3.8307228088378906,-0.3926490843296051,-1.5869140625,3.23486328125,-0.1983642578125
1.8912499,9.08838939666748,-3.8379054069519043,-0.3687070608139038,-1.7242431640625,3.204345703125,0.1068115234375
1.8937499,9.0859956741333,-3.8546648025512695,-0.33997663855552673,-1.708984375,3.41796875,0.1220703125
1.8962499,9.081207275390625,-3.8786067962646484,-0.31124621629714966,-2.044677734375,3.5400390625,0.152587890625
1.8987498999999999,9.081207275390625,-3.9049429893493652,-0.28730419278144836,-2.197265625,3.6468505859375,0.3204345703125
1.9012499,9.078812599182129,-3.931279182434082,-0.27054479718208313,-1.953125,3.47900390625,0.335693359375
1.9037499,9.078812599182129,-3.955221176147461,-0.26336219906806946,-1.800537109375,3.5400390625,0.1983642578125
1.9062499,9.07641887664795,-3.9815573692321777,-0.26096799969673157,-1.739501953125,3.753662109375,0.2288818359375
1.9087498999999999,9.069235801696777,-4.0078935623168945,-0.26096799969673157,-1.373291015625,3.7078857421875,0.30517578125
1.9112499,9.062053680419922,-4.034229755401611,-0.26336219906806946,-1.03759765625,3.8299560546875,0.42724609375
1.9137499,9.05247688293457,-4.062960147857666,-0.26575639843940735,-0.9918212890625,3.7841796875,0.5645751953125
1.9162499,9.047688484191895,-4.089296340942383,-0.26815059781074524,-0.518798828125,3.814697265625,0.8544921875
1.9187499,9.040505409240723,-4.10366153717041,-0.26815059781074524,-0.152587890625,3.692626953125,0.7781982421875
1.9212498999999998,9.035717010498047,-4.110844135284424,-0.272938996553421,-0.1220703125,3.7689208984375,0.6103515625
1.9237499,9.033323287963867,-4.106055736541748,-0.26815059781074524,0.48828125,3.7384033203125,0.7476806640625
1.9262499,9.035717010498047,-4.094084739685059,-0.26336219906806946,0.6256103515625,3.631591796875,0.885009765625
1.9287499,9.042900085449219,-4.079719543457031,-0.26096799969673157,0.7171630859375,3.3721923828125,0.8544921875
1.9312498999999999,9.050082206726074,-4.067748546600342,-0.2537853717803955,1.0833740234375,3.204345703125,0.823974609375
1.9337499,9.062053680419922,-4.055777549743652,-0.24660277366638184,1.434326171875,3.204345703125,0.885009765625
1.9362499,9.059659004211426,-4.050989151000977,-0.23702596127986908,1.7242431640625,3.4027099609375,0.5950927734375
1.9387499,9.059659004211426,-4.046200752258301,-0.2322375625371933,1.8768310546875,3.1585693359375,0.732421875
1.9412498999999999,9.045293807983398,-4.041412353515625,-0.2322375625371933,1.9989013671875,2.9754638671875,0.79345703125
1.9437499,9.038111686706543,-4.036623954772949,-0.2322375625371933,2.105712890625,2.9754638671875,0.701904296875
1.9462499,9.033323287963867,-4.027047157287598,-0.2346317619085312,1.9989013671875,3.2958984375,0.6256103515625
1.9487499,9.035717010498047,-4.019864559173584,-0.2322375625371933,2.3193359375,2.9144287109375,0.6866455078125
1.9512498999999999,9.040505409240723,-4.010287761688232,-0.22744916379451752,2.2735595703125,2.8839111328125,0.3662109375
1.9537499,9.042900085449219,-3.995922565460205,-0.22266076505184174,2.7313232421875,2.7313232421875,0.7781982421875
1.9562499,9.040505409240723,-3.9815573692321777,-0.21787235140800476,2.5787353515625,2.7008056640625,0.6103515625
1.9587499,9.038111686706543,-3.9671921730041504,-0.22026655077934265,2.5787353515625,2.5482177734375,0.6103515625
1.9612498999999999,9.030928611755371,-3.952826976776123,-0.22266076505184174,2.655029296875,2.410888671875,0.5645751953125
1.9637499,9.01895809173584,-3.9432501792907715,-0.2298433631658554,2.410888671875,2.4566650390625,0.823974609375
1.9662499,9.006986618041992,-3.9384617805480957,-0.2322375625371933,2.3193359375,2.3193359375,0.732421875
1.9687499,8.98543930053711,-3.931279182434082,-0.2298433631658554,2.4871826171875,2.1514892578125,0.701904296875
1.9712498999999999,8.968679428100586,-3.9193081855773926,-0.22505496442317963,2.227783203125,2.0904541015625,0.5950927734375
1.9737499,8.959102630615234,-3.9049429893493652,-0.22026655077934265,1.9378662109375,1.9378662109375,0.67138671875
1.9762499,8.944737434387207,-3.892971992492676,-0.22266076505184174,1.5716552734375,2.01416015625,0.7781982421875
1.9787499,8.939949035644531,-3.8738183975219727,-0.22744916379451752,1.4801025390625,1.7547607421875,0.5340576171875
1.9812499,8.939949035644531,-3.869029998779297,-0.22744916379451752,1.2359619140625,1.64794921875,0.5035400390625
1.9837499,8.937555313110352,-3.8594532012939453,-0.22505496442317963,0.7781982421875,1.556396484375,0.2593994140625
1.9862499,8.935160636901855,-3.8522706031799316,-0.22266076505184174,0.5035400390625,1.5411376953125,0.2899169921875
1.9887499,8.935160636901855,-3.847482204437256,-0.22505496442317963,0.4425048828125,1.5106201171875,0.1983642578125
1.9912499,8.939949035644531,-3.8498764038085938,-0.22026655077934265,0.30517578125,1.40380859375,0.335693359375
1.9937498999999999,8.947132110595703,-3.8546648025512695,-0.21787235140800476,0.1068115234375,1.52587890625,0.213623046875
1.9962499,8.96389102935791,-3.866635799407959,-0.2082955539226532,0.030517578125,1.373291015625,0.1678466796875
1.9987499,8.975862503051758,-3.8786067962646484,-0.19632454216480255,-0.274658203125,1.678466796875,-0.0762939453125
2.0012499,8.990227699279785,-3.890577793121338,-0.1867477297782898,-0.3509521484375,1.4801025390625,0.06103515625
2.0037499,9.006986618041992,-3.9049429893493652,-0.17956513166427612,-0.3662109375,1.3275146484375,0.2899169921875
2.0062499,9.023746490478516,-3.9169139862060547,-0.17956513166427612,-0.2593994140625,1.4801025390625,0.2899169921875
2.0087498999999998,9.035717010498047,-3.928884983062744,-0.1843535304069519,-0.30517578125,1.708984375,0.1220703125
2.0112499,9.047688484191895,-3.9384617805480957,-0.1843535304069519,-0.335693359375,1.5411376953125,0.1373291015625
2.0137499,9.047688484191895,-3.9456443786621094,-0.1843535304069519,-0.30517578125,1.617431640625,0.0152587890625
2.0162499,9.047688484191895,-3.9456443786621094,-0.17717093229293823,-0.0762939453125,1.495361328125,0.30517578125
2.0187499,9.038111686706543,-3.950432777404785,-0.16998831927776337,0.213623046875,1.3427734375,0.4425048828125
2.0212499,9.033323287963867,-3.950432777404785,-0.16519992053508759,0.274658203125,1.556396484375,0.4425048828125
2.0237499,9.023746490478516,-3.955221176147461,-0.1604115068912506,0.4119873046875,1.495361328125,0.335693359375
2.0262499,9.01895809173584,-3.9600095748901367,-0.15562310814857483,0.54931640625,1.52587890625,0.2899169921875
2.0287498999999998,9.014169692993164,-3.9695863723754883,-0.15801730751991272,0.762939453125,1.4801025390625,0.2899169921875
2.0312499,9.011775016784668,-3.9815573692321777,-0.15801730751991272,0.8392333984375,1.3885498046875,0.3509521484375
2.0337499,9.004592895507812,-3.993528366088867,-0.16759411990642548,1.3580322265625,1.5106201171875,0.3814697265625
2.0362499,8.999804496765137,-4.010287761688232,-0.17477671802043915,1.6632080078125,1.6632080078125,0.701904296875
2.0387499,8.983044624328613,-4.017470359802246,-0.181959331035614,1.9073486328125,1.6326904296875,0.5950927734375
2.0412499,8.968679428100586,-4.02465295791626,-0.18914192914962769,2.1514892578125,1.6326904296875,0.5645751953125
2.0437499,8.949525833129883,-4.022258758544922,-0.19393034279346466,2.4871826171875,1.617431640625,0.67138671875
2.0462499,8.93037223815918,-4.015076160430908,-0.19153612852096558,2.655029296875,1.6021728515625,0.885009765625
2.0487499,8.916007041931152,-4.0078935623168945,-0.18914192914962769,2.9296875,1.708984375,0.946044921875
2.0512498999999997,8.904036521911621,-3.998316764831543,-0.17956513166427612,3.2501220703125,1.617431640625,1.1749267578125
2.0537499,8.899248123168945,-3.9887399673461914,-0.17477671802043915,3.3721923828125,1.52587890625,1.2054443359375
2.0562499,8.89445972442627,-3.9839515686035156,-0.17238251864910126,3.570556640625,1.495361328125,1.190185546875
2.0587499,8.89445972442627,-3.9695863723754883,-0.17477671802043915,3.5400390625,1.4495849609375,1.2359619140625
2.0612499,8.89445972442627,-3.9671921730041504,-0.17717093229293823,3.6773681640625,1.3275146484375,1.190185546875
2.0637499,8.89445972442627,-3.957615375518799,-0.17717093229293823,3.662109375,1.4801025390625,1.220703125
2.0662499,8.89445972442627,-3.9600095748901367,-0.17717093229293823,3.631591796875,1.5106201171875,1.373291015625
2.0687499,8.89445972442627,-3.9624037742614746,-0.17717093229293823,3.448486328125,1.6021728515625,1.190185546875
2.0712498999999998,8.887276649475098,-3.9695863723754883,-0.17477671802043915,3.5247802734375,1.373291015625,1.40380859375
2.0737499,8.880094528198242,-3.97916316986084,-0.181959331035614,3.5858154296875,1.8768310546875,1.52587890625
2.0762499,8.87051773071289,-3.9839515686035156,-0.1843535304069519,3.5552978515625,1.678466796875,1.6021728515625
2.0787499,8.860940933227539,-3.9815573692321777,-0.18914192914962769,3.5247802734375,1.64794921875,1.5411376953125
2.0812499,8.856152534484863,-3.97916316986084,-0.18914192914962769,3.35693359375,1.678466796875,1.6937255859375
2.0837499,8.853757858276367,-3.971980571746826,-0.1867477297782898,3.1585693359375,1.5716552734375,1.617431640625
2.0862499,8.853757858276367,-3.9695863723754883,-0.1843535304069519,2.8228759765625,1.4801025390625,1.52587890625
2.0887499,8.848969459533691,-3.976768970489502,-0.17956513166427612,2.8076171875,1.495361328125,1.64794921875
2.0912498999999998,8.846575736999512,-3.9839515686035156,-0.17477671802043915,2.5482177734375,1.678466796875,1.7242431640625
2.0937499,8.841787338256836,-3.993528366088867,-0.16998831927776337,2.3345947265625,1.6021728515625,2.0599365234375
2.0962499,8.834604263305664,-4.000710964202881,-0.16759411990642548,2.044677734375,1.6632080078125,2.1209716796875
2.0987499,8.827422142028809,-4.0078935623168945,-0.16519992053508759,1.9378662109375,1.7852783203125,1.89208984375
2.1012499,8.825027465820312,-4.022258758544922,-0.16519992053508759,1.7547607421875,1.6937255859375,2.0294189453125
2.1037499,8.815450668334961,-4.036623954772949,-0.17238251864910126,1.434326171875,1.64794921875,2.044677734375
2.1062499,8.815450668334961,-4.05817174911499,-0.17238251864910126,1.5411376953125,1.708984375,2.13623046875
2.1087499,8.808267593383789,-4.077325344085693,-0.17956513166427612,1.3580322265625,1.8463134765625,2.227783203125
2.1112499,8.803479194641113,-4.091690540313721,-0.17717093229293823,1.129150390625,1.64794921875,2.1514892578125
2.1137498999999997,8.796297073364258,-4.10366153717041,-0.17477671802043915,1.129150390625,1.617431640625,2.3193359375
2.1162499,8.793902397155762,-4.108449935913086,-0.17238251864910126,0.9307861328125,1.7242431640625,2.3651123046875
2.1187499,8.786720275878906,-4.108449935913086,-0.17238251864910126,0.8697509765625,1.678466796875,2.3651123046875
2.1212499,8.789113998413086,-4.113238334655762,-0.17717093229293823,0.6561279296875,1.6632080078125,2.4566650390625
2.1237499,8.78432559967041,-4.113238334655762,-0.1867477297782898,0.54931640625,1.6632080078125,2.532958984375
2.1262499,8.78193187713623,-4.120420932769775,-0.19632454216480255,0.3814697265625,1.77001953125,2.655029296875
2.1287499,8.777143478393555,-4.125209331512451,-0.2082955539226532,0.396728515625,1.8463134765625,2.5787353515625
2.1312499,8.772355079650879,-4.129997730255127,-0.22266076505184174,0.3662109375,1.861572265625,3.021240234375
2.1337498999999998,8.769960403442383,-4.125209331512451,-0.2346317619085312,0.0762939453125,1.89208984375,3.0975341796875
2.1362499,8.767566680908203,-4.120420932769775,-0.24660277366638184,-0.1373291015625,1.953125,3.11279296875
2.1387499,8.765172004699707,-4.113238334655762,-0.2537853717803955,-0.30517578125,2.01416015625,3.4332275390625
2.1412499,8.757989883422852,-4.108449935913086,-0.2561795711517334,-0.4425048828125,2.0294189453125,3.4942626953125
2.1437499,8.746018409729004,-4.1156325340271,-0.2537853717803955,-0.6103515625,1.922607421875,3.6468505859375
2.1462499,8.734047889709473,-4.125209331512451,-0.24660277366638184,-0.8392333984375,1.9683837890625,3.7841796875
2.1487499,8.712499618530273,-4.134786128997803,-0.24899697303771973,-1.0528564453125,2.25830078125,3.8299560546875
2.1512499,8.705317497253418,-4.141968727111816,-0.2513911724090576,-1.0986328125,2.044677734375,4.2266845703125
2.1537498999999998,8.695740699768066,-4.144362926483154,-0.2561795711517334,-1.251220703125,2.1514892578125,4.4403076171875
2.1562499,8.69334602355957,-4.146757125854492,-0.26336219906806946,-1.251220703125,2.3345947265625,4.730224609375
2.1587499,8.69095230102539,-4.151545524597168,-0.27054479718208313,-1.2359619140625,2.349853515625,4.7760009765625
2.1612499,8.69334602355957,-4.153939723968506,-0.2753331959247589,-1.373291015625,2.532958984375,4.913330078125
2.1637499,8.69334602355957,-4.153939723968506,-0.2849099934101105,-1.5411376953125,2.62451171875,5.2642822265625
2.1662499,8.69334602355957,-4.158728122711182,-0.2944868206977844,-1.6326904296875,2.655029296875,5.31005859375
2.1687499,8.688557624816895,-4.156333923339844,-0.3016694188117981,-1.861572265625,2.8076171875,5.3863525390625
2.1712499,8.681375503540039,-4.163516521453857,-0.31364041566848755,-1.953125,3.11279296875,5.6304931640625
2.1737499,8.674192428588867,-4.168305397033691,-0.31842881441116333,-2.0599365234375,3.0059814453125,5.8441162109375
2.1762499,8.671798706054688,-4.175487995147705,-0.3208230137825012,-2.1209716796875,2.86865234375,6.103515625
2.1787499,8.669404029846191,-4.189853191375732,-0.3232172429561615,-2.288818359375,2.99072265625,6.4239501953125
2.1812499,8.667010307312012,-4.206612586975098,-0.3232172429561615,-2.288818359375,3.1585693359375,6.4849853515625
2.1837499,8.662221908569336,-4.220977783203125,-0.3280056416988373,-2.2430419921875,3.4942626953125,6.683349609375
2.1862499,8.655038833618164,-4.240131378173828,-0.33518823981285095,-2.471923828125,3.6468505859375,6.8511962890625
2.1887499,8.638279914855957,-4.259284973144531,-0.33758243918418884,-2.7008056640625,3.7994384765625,7.38525390625
2.1912499,8.631096839904785,-4.261679172515869,-0.33758243918418884,-2.7618408203125,3.96728515625,7.62939453125
2.1937499,8.619126319885254,-4.259284973144531,-0.33997663855552673,-2.62451171875,4.1046142578125,8.1024169921875
2.1962498999999998,8.609549522399902,-4.256890773773193,-0.3519476354122162,-2.838134765625,4.21142578125,8.4381103515625
2.1987499,8.597578048706055,-4.252102375030518,-0.3663128614425659,-2.8076171875,4.241943359375,8.60595703125
2.2012499,8.585607528686523,-4.252102375030518,-0.38067805767059326,-2.655029296875,4.2572021484375,8.85009765625
2.2037499,8.56884765625,-4.2544965744018555,-0.3878606855869293,-2.74658203125,4.180908203125,9.33837890625
2.2062499,8.559270858764648,-4.256890773773193,-0.395043283700943,-2.9754638671875,4.3792724609375,9.552001953125
2.2087499,8.542511940002441,-4.261679172515869,-0.395043283700943,-3.3111572265625,4.4708251953125,9.7198486328125
2.2112499,8.530540466308594,-4.261679172515869,-0.3878606855869293,-3.23486328125,4.241943359375,10.040283203125
2.2137499,8.51138687133789,-4.264073371887207,-0.37828385829925537,-3.204345703125,4.180908203125,10.43701171875
2.2162498999999998,8.494627952575684,-4.2544965744018555,-0.3663128614425659,-3.5247802734375,4.21142578125,10.7574462890625
2.2187499,8.482656478881836,-4.244919776916504,-0.363918662071228,-3.814697265625,4.364013671875,11.3525390625
2.2212499,8.47786808013916,-4.2329487800598145,-0.3687070608139038,-3.9520263671875,4.241943359375,11.688232421875
2.2237499,8.485051155090332,-4.220977783203125,-0.38067805767059326,-4.058837890625,4.1656494140625,12.054443359375
2.2262499,8.492233276367188,-4.2090067863464355,-0.3926490843296051,-4.486083984375,4.1961669921875,12.51220703125
2.2287499,8.497021675109863,-4.199429988861084,-0.40462008118629456,-4.547119140625,3.96728515625,13.031005859375
2.2312499,8.492233276367188,-4.182670593261719,-0.40940847992897034,-4.7454833984375,3.936767578125,13.641357421875
2.2337499,8.487444877624512,-4.165910720825195,-0.4165911078453064,-5.3253173828125,3.662109375,14.068603515625
2.2362499,8.480262756347656,-4.146757125854492,-0.4189853072166443,-5.7830810546875,3.6468505859375,14.434814453125
2.2387499,8.47786808013916,-4.129997730255127,-0.4213795065879822,-6.317138671875,3.5552978515625,14.892578125
2.2412499,8.47786808013916,-4.1156325340271,-0.4213795065879822,-6.561279296875,3.2806396484375,15.472412109375
2.2437499,8.473079681396484,-4.106055736541748,-0.42377370595932007,-7.0648193359375,2.99072265625,15.80810546875
2.2462499,8.465897560119629,-4.0964789390563965,-0.42856210470199585,-7.5531005859375,2.8839111328125,16.2353515625
2.2487499,8.451532363891602,-4.084507942199707,-0.43335050344467163,-7.8277587890625,2.685546875,16.7236328125
2.2512499,8.44195556640625,-4.07014274597168,-0.4405331015586853,-8.48388671875,2.6702880859375,17.2576904296875
2.2537499,8.432378768920898,-4.0533833503723145,-0.4429273009300232,-9.246826171875,2.50244140625,17.608642578125
2.2562499,8.434772491455078,-4.043806552886963,-0.45010992884635925,-9.70458984375,2.166748046875,18.37158203125
2.2587498999999998,8.437167167663574,-4.043806552886963,-0.4572925269603729,-10.2386474609375,1.9683837890625,18.8446044921875
2.2612499,8.446743965148926,-4.048594951629639,-0.4692635238170624,-10.5438232421875,1.983642578125,19.34814453125
2.2637499,8.451532363891602,-4.048594951629639,-0.4836287498474121,-11.0626220703125,1.739501953125,19.9432373046875
2.2662499,8.458714485168457,-4.048594951629639,-0.49320554733276367,-11.5814208984375,1.312255859375,20.44677734375
2.2687499,8.468291282653809,-4.041412353515625,-0.507570743560791,-11.962890625,1.2054443359375,21.1334228515625
2.2712499,8.470685958862305,-4.031835556030273,-0.5147533416748047,-12.6953125,0.7781982421875,21.881103515625
2.2737499,8.470685958862305,-4.02465295791626,-0.5219359993934631,-12.969970703125,0.6561279296875,22.5067138671875
2.2762499,8.461109161376953,-4.017470359802246,-0.5315127968788147,-13.336181640625,0.1983642578125,23.0865478515625
2.2787498999999998,8.449137687683105,-4.0078935623168945,-0.5363011956214905,-13.5955810546875,0.06103515625,23.4832763671875
2.2812499,8.439560890197754,-3.995922565460205,-0.5410895943641663,-14.068603515625,-0.152587890625,24.3377685546875
2.2837499,8.439560890197754,-3.9815573692321777,-0.545877993106842,-14.6636962890625,-0.3509521484375,25.0396728515625
2.2862499,8.446743965148926,-3.9600095748901367,-0.5530605912208557,-14.9688720703125,-0.518798828125,25.5584716796875
2.2887499,8.463502883911133,-3.93367338180542,-0.5650315880775452,-15.56396484375,-0.2899169921875,26.031494140625
2.2912499,8.47547435760498,-3.909731388092041,-0.5793967843055725,-15.7470703125,-0.885009765625,26.885986328125
2.2937499,8.489839553833008,-3.8786067962646484,-0.5985504388809204,-16.05224609375,-1.3885498046875,27.587890625
2.2962499,8.492233276367188,-3.8498764038085938,-0.6105214357376099,-16.4031982421875,-1.4190673828125,27.89306640625
2.2987499,8.494627952575684,-3.818751811981201,-0.6177040338516235,-16.8304443359375,-1.6326904296875,28.5186767578125
2.3012499,8.494627952575684,-3.7828385829925537,-0.6272808313369751,-17.1356201171875,-1.800537109375,29.0374755859375
2.3037499,8.501810073852539,-3.751713991165161,-0.6344634294509888,-17.39501953125,-2.0599365234375,29.571533203125
2.3062499,8.513781547546387,-3.7158010005950928,-0.6392518281936646,-17.4407958984375,-2.2735595703125,30.303955078125
2.3087499,8.53293514251709,-3.6822822093963623,-0.6440402865409851,-17.76123046875,-2.471923828125,30.792236328125
2.3112499,8.561665534973145,-3.6511576175689697,-0.6488286852836609,-18.0206298828125,-2.7618408203125,31.2957763671875
2.3137499,8.588001251220703,-3.620033025741577,-0.6607996821403503,-18.1427001953125,-2.86865234375,31.8756103515625
2.3162499,8.619126319885254,-3.5913026332855225,-0.6751648783683777,-18.1732177734375,-3.1280517578125,32.3944091796875
2.3187499,8.650250434875488,-3.557783842086792,-0.6967126727104187,-18.4783935546875,-3.2501220703125,32.958984375
2.3212498999999998,8.674192428588867,-3.5218706130981445,-0.7158663272857666,-18.768310546875,-3.6773681640625,33.6456298828125
2.3237499,8.698134422302246,-3.488351821899414,-0.7326257228851318,-18.85986328125,-3.7689208984375,34.0423583984375
2.3262499,8.710105895996094,-3.4548330307006836,-0.7469909191131592,-18.73779296875,-3.9520263671875,34.576416015625
2.3287499,8.722076416015625,-3.423708438873291,-0.751779317855835,-18.890380859375,-4.2572021484375,35.3546142578125
2.3312499,8.7268648147583,-3.3901896476745605,-0.7565677165985107,-18.98193359375,-4.33349609375,35.94970703125
2.3337499,8.722076416015625,-3.3470940589904785,-0.7637503147125244,-19.1650390625,-4.7149658203125,36.68212890625
2.3362499,8.71489429473877,-3.294421434402466,-0.7733271718025208,-19.2718505859375,-5.096435546875,37.3687744140625
2.3387499,8.695740699768066,-3.2345664501190186,-0.7948749661445618,-19.744873046875,-5.2642822265625,37.9791259765625
2.3412498999999998,8.678980827331543,-3.1699230670928955,-0.8164227604866028,-19.9432373046875,-5.4473876953125,38.87939453125
2.3437499,8.65982723236084,-3.1052796840667725,-0.8427590131759644,-20.4925537109375,-5.950927734375,39.5050048828125
2.3462499,8.643068313598633,-3.0358476638793945,-0.871489405632019,-20.9808349609375,-6.3323974609375,40.22216796875
2.3487499,8.62391471862793,-2.9688100814819336,-0.9074024558067322,-21.5301513671875,-6.8511962890625,41.1834716796875
2.3512499,8.60236644744873,-2.8993782997131348,-0.9361328482627869,-22.2320556640625,-7.1258544921875,42.083740234375
2.3537499,8.580819129943848,-2.832340717315674,-0.9696516990661621,-22.8271484375,-7.3699951171875,42.8466796875
2.3562499,8.554482460021973,-2.7724854946136475,-0.9864110946655273,-23.3154296875,-8.0718994140625,43.792724609375
2.3587499,8.53293514251709,-2.717418909072876,-0.9983820915222168,-24.1241455078125,-8.331298828125,44.6929931640625
2.3612499,8.51138687133789,-2.671929121017456,-1.0055646896362305,-25.0091552734375,-8.880615234375,45.4559326171875
2.3637499,8.485051155090332,-2.6360161304473877,-1.0031704902648926,-25.7720947265625,-9.521484375,46.356201171875
2.3662499,8.473079681396484,-2.604891538619995,-0.9983820915222168,-26.4434814453125,-9.8724365234375,47.3785400390625
2.3687499,8.463502883911133,-2.580949544906616,-0.9959878921508789,-27.3590087890625,-10.25390625,48.3245849609375
2.3712499,8.47547435760498,-2.559401512145996,-0.9888052940368652,-28.0609130859375,-10.6048583984375,49.2401123046875
2.3737499,8.506598472595215,-2.540247917175293,-0.993593692779541,-28.778076171875,-11.077880859375,50.59814453125
2.3762499,8.56884765625,-2.5234885215759277,-0.9888052940368652,-29.5257568359375,-11.4898681640625,51.727294921875
2.3787499,8.650250434875488,-2.5043349266052246,-0.9864110946655273,-30.181884765625,-11.6424560546875,52.7801513671875
2.3812499,8.757989883422852,-2.4827871322631836,-0.9696516990661621,-30.8685302734375,-12.0391845703125,54.01611328125
2.3837498999999998,8.875306129455566,-2.4636335372924805,-0.9361328482627869,-31.73828125,-12.298583984375,55.11474609375
2.3862499,9.009381294250488,-2.434903144836426,-0.8906430602073669,-32.4249267578125,-12.603759765625,56.121826171875
2.3887499,9.136273384094238,-2.406172752380371,-0.8331822156906128,-33.203125,-12.75634765625,57.2967529296875
2.3912499,9.253589630126953,-2.3750481605529785,-0.7829039692878723,-33.99658203125,-12.8631591796875,58.65478515625
2.3937499,9.351752281188965,-2.3487119674682617,-0.727837324142456,-34.6527099609375,-13.2598876953125,59.8602294921875
2.3962499,9.421183586120605,-2.3271639347076416,-0.6823474764823914,-35.2630615234375,-13.458251953125,61.03515625
2.3987499,9.493009567260742,-2.300827741622925,-0.5817909836769104,-36.5142822265625,-13.8397216796875,63.5986328125
2.4012499,9.50498104095459,-2.2840683460235596,-0.5363011956214905,-37.0330810546875,-13.9923095703125,64.666748046875
2.4037498999999998,9.50737476348877,-2.2625205516815186,-0.49799394607543945,-37.872314453125,-14.1143798828125,65.73486328125
2.4062499,9.509769439697266,-2.2385785579681396,-0.4668693244457245,-38.6962890625,-14.46533203125,67.138671875
2.4087499,9.519346237182617,-2.209848165512085,-0.4381389021873474,-39.4287109375,-14.6942138671875,68.145751953125
2.4112499,9.531316757202148,-2.188300371170044,-0.4118026793003082,-40.130615234375,-14.984130859375,69.183349609375
2.4137499,9.550470352172852,-2.169146776199341,-0.3926490843296051,-40.771484375,-15.533447265625,70.709228515625
2.4162499,9.564835548400879,-2.142810583114624,-0.38307225704193115,-41.7633056640625,-15.960693359375,71.6552734375
2.4187499,9.579200744628906,-2.123656988143921,-0.3878606855869293,-42.6788330078125,-16.5863037109375,73.0743408203125
2.4212499,9.588777542114258,-2.094926595687866,-0.40462008118629456,-43.5028076171875,-17.3187255859375,74.493408203125
2.4237499,9.603142738342285,-2.0685901641845703,-0.4381389021873474,-44.189453125,-17.8070068359375,75.836181640625
2.4262499,9.615114212036133,-2.03507137298584,-0.4692635238170624,-45.196533203125,-18.524169921875,77.301025390625
2.4287499,9.636661529541016,-1.9919757843017578,-0.5171475410461426,-46.08154296875,-19.3023681640625,78.6895751953125
2.4312499,9.677363395690918,-1.9297266006469727,-0.5722141861915588,-46.93603515625,-20.0653076171875,80.0933837890625
2.4337499,9.744400978088379,-1.8507179021835327,-0.646434485912323,-48.0804443359375,-20.7061767578125,81.35986328125
2.4362499,9.852140426635742,-1.742978811264038,-0.7445967197418213,-49.2706298828125,-21.575927734375,82.794189453125
2.4387499,9.99339771270752,-1.6112977266311646,-0.8690952062606812,-50.262451171875,-22.0947265625,84.4268798828125
2.4412499,10.168174743652344,-1.4652514457702637,-1.0103530883789062,-51.26953125,-22.8271484375,85.5865478515625
2.4437499,10.374075889587402,-1.3192051649093628,-1.1563993692398071,-52.0172119140625,-24.2462158203125,86.9140625
2.4462498999999998,10.606313705444336,-1.170764684677124,-1.2976573705673218,-52.6123046875,-25.726318359375,88.19580078125
2.4487499,10.867281913757324,-1.0342950820922852,-1.4221558570861816,-53.131103515625,-27.3895263671875,89.53857421875
2.4512499,11.164162635803223,-0.8858546018600464,-1.522712230682373,-53.3905029296875,-29.266357421875,90.850830078125
2.4537499,11.511322021484375,-0.7038952708244324,-1.5849615335464478,-53.6956787109375,-31.2652587890625,92.010498046875
2.4562499,11.915942192077637,-0.4620809257030487,-1.6112977266311646,-54.26025390625,-33.3251953125,93.3380126953125
2.4587499,12.38759994506836,-0.14365209639072418,-1.577778935432434,-55.1300048828125,-35.5987548828125,94.8028564453125
2.4612499,12.94066047668457,0.24181437492370605,-1.5155296325683594,-56.0302734375,-38.0401611328125,96.19140625
2.4637499,13.57751750946045,0.6799532771110535,-1.4293384552001953,-57.0831298828125,-40.1153564453125,97.686767578125
2.4662498999999998,14.302961349487305,1.1516109704971313,-1.357512354850769,-57.4493408203125,-42.449951171875,99.2889404296875
2.4687499,15.109807014465332,1.6352397203445435,-1.3048399686813354,-58.04443359375,-45.166015625,100.6927490234375
2.4712499,15.98369026184082,2.1308395862579346,-1.2761094570159912,-58.5479736328125,-48.27880859375,101.776123046875
2.4737499,16.905458450317383,2.612074136734009,-1.2473790645599365,-59.5703125,-51.544189453125,103.08837890625
2.4762499,17.86313819885254,3.07415509223938,-1.2066776752471924,-61.0198974609375,-55.389404296875,104.4921875
2.4787499,18.849550247192383,3.488351821899414,-1.1492167711257935,-62.56103515625,-59.3719482421875,106.048583984375
2.4812499,19.838356018066406,3.8546648025512695,-1.0630255937576294,-63.8275146484375,-63.90380859375,108.2000732421875
2.4837499,20.83194923400879,4.158728122711182,-0.9672574996948242,-65.2618408203125,-68.817138671875,110.7025146484375
2.4862499,21.794418334960938,4.422090530395508,-0.8810662031173706,-66.864013671875,-73.699951171875,113.70849609375
2.4887499,22.72815704345703,4.654327869415283,-0.8164227604866028,-68.9239501953125,-79.2083740234375,117.431640625
2.4912499,23.63795280456543,4.879383087158203,-0.7924807667732239,-71.1212158203125,-84.930419921875,121.4447021484375
2.4937499,24.516624450683594,5.114014625549316,-0.8236053586006165,-74.2034912109375,-90.545654296875,126.28173828125
2.4962499,25.356990814208984,5.382165431976318,-0.9289502501487732,-78.0792236328125,-96.038818359375,131.1798095703125
2.4987499,26.156654357910156,5.6670756340026855,-1.1085153818130493,-82.6416015625,-101.8829345703125,136.688232421875
2.5012499,26.91561508178711,5.9974751472473145,-1.3623007535934448,-87.860107421875,-108.184814453125,142.5323486328125
2.5037499,27.64584732055664,6.361393928527832,-1.6496049165725708,-94.451904296875,-114.501953125,148.37646484375
2.5062499,28.388050079345703,6.780379295349121,-1.946485996246338,-102.1270751953125,-120.8038330078125,154.35791015625
2.5087498999999998,29.137434005737305,7.254431247711182,-2.2194249629974365,-111.4959716796875,-126.983642578125,160.0799560546875
2.5112499,29.90118408203125,7.7763671875,-2.4588451385498047,-122.0855712890625,-132.7972412109375,165.4510498046875
2.5137499,30.636205673217773,8.341399192810059,-2.6575639247894287,-133.3465576171875,-138.5040283203125,171.1578369140625
2.5162499,31.34249496459961,8.913613319396973,-2.808398485183716,-146.1639404296875,-144.256591796875,176.3916015625
2.5187499,31.974563598632812,9.481039047241211,-2.9328970909118652,-160.003662109375,-150.3448486328125,181.488037109375
2.5212499,32.537200927734375,10.000580787658691,-3.021482467651367,-175.8270263671875,-155.9600830078125,186.2030029296875
2.5237499,33.011253356933594,10.433931350708008,-3.093308687210083,-192.9168701171875,-161.43798828125,190.9027099609375
2.5262499,33.394325256347656,10.81460952758789,-3.1459810733795166,-210.5560302734375,-166.656494140625,195.6634521484375
2.5287498999999998,33.65529251098633,11.118672370910645,-3.19865345954895,-230.3314208984375,-171.2799072265625,200.408935546875
2.5312499,33.76063919067383,11.401188850402832,-3.265691041946411,-251.708984375,-175.5218505859375,205.474853515625
2.5337499,33.69120788574219,11.657367706298828,-3.361459255218506,-274.5361328125,-179.3365478515625,210.968017578125
2.5362499,33.39672088623047,11.884817123413086,-3.5218706130981445,-298.370361328125,-182.5714111328125,216.8426513671875
2.5387499,32.88675308227539,12.09550666809082,-3.758896589279175,-323.4100341796875,-185.5316162109375,223.297119140625
2.5412499,32.15412902832031,12.279860496520996,-4.106055736541748,-349.884033203125,-187.9730224609375,229.8583984375
2.5437499,31.22039031982422,12.401965141296387,-4.570530891418457,-377.5787353515625,-190.49072265625,236.8011474609375
2.5462499,30.126239776611328,12.45463752746582,-5.157110691070557,-405.059814453125,-193.0694580078125,244.140625
2.5487499,28.890830993652344,12.466608047485352,-5.8873419761657715,-431.610107421875,-194.4732666015625,251.983642578125
2.5512499,27.53571319580078,12.389993667602539,-6.598419666290283,-457.9925537109375,-195.86181640625,259.8724365234375
