# Time (seconds),Accel_X,Accel_Y,Accel_Z,Gyro_X,Gyro_Y,Gyro_Z
0.0012499,-0.038307227194309235,-6.203376770019531,8.973467826843262,-48.919677734375,1.4801025390625,12.87841796875
0.0037499,-0.13168109953403473,-6.167463779449463,8.827422142028809,-48.5687255859375,1.0528564453125,11.6119384765625
0.0062499,-0.2298433631658554,-6.169857978820801,8.51138687133789,-45.440673828125,-5.4779052734375,11.9781494140625
0.0087499,-0.21787235140800476,-6.234501361846924,8.200140953063965,-42.633056640625,-10.833740234375,13.6260986328125
0.0112499,-0.023942016065120697,-6.313509941101074,8.054094314575195,-46.4935302734375,-6.7138671875,15.1519775390625
0.0137499,0.2801215946674347,-6.3973069190979,8.169015884399414,-50.10986328125,-2.25830078125,15.7318115234375
0.016249899999999998,0.5889736413955688,-6.481103897094727,8.432378768920898,-47.1038818359375,-4.302978515625,16.693115234375
0.0187499,0.8978256583213806,-6.514622688293457,8.78193187713623,-44.98291015625,-5.096435546875,17.852783203125
0.021249900000000002,1.1252747774124146,-6.521805286407471,9.059659004211426,-45.1507568359375,-1.1749267578125,17.425537109375
0.023749899999999997,1.3263877630233765,-6.466738700866699,9.27034854888916,-45.9747314453125,3.9215087890625,17.2576904296875
0.0262499,1.403002142906189,-6.399701118469238,9.390059471130371,-41.8548583984375,3.143310546875,17.5628662109375
0.028749900000000002,1.4269442558288574,-6.375759124755859,9.428366661071777,-38.0096435546875,-0.6561279296875,17.2119140625
0.031249899999999997,1.4293384552001953,-6.3973069190979,9.50498104095459,-37.9180908203125,1.9989013671875,17.7001953125
0.0337499,1.4101848602294922,-6.461950302124023,9.607931137084961,-37.2467041015625,3.11279296875,18.3258056640625
0.0362499,1.41257905960083,-6.557718276977539,9.797073364257812,-35.33935546875,0.9002685546875,18.5546875
0.0387499,1.4101848602294922,-6.627150535583496,10.010157585144043,-34.9884033203125,0.457763671875,19.5770263671875
0.0412499,1.4293384552001953,-6.610390663146973,10.24000072479248,-37.1856689453125,4.5318603515625,20.32470703125
0.0437499,1.4484920501708984,-6.552929878234863,10.319009780883789,-35.9649658203125,4.7760009765625,19.866943359375
0.0462499,1.4915876388549805,-6.428431510925293,10.340557098388672,-32.1807861328125,1.89208984375,19.8974609375
0.0487499,1.5322890281677246,-6.275202751159668,10.247182846069336,-29.0069580078125,2.197265625,20.2789306640625
0.0512499,1.5634137392044067,-6.169857978820801,10.129867553710938,-28.106689453125,4.8065185546875,20.0042724609375
0.053749899999999996,1.5897499322891235,-6.117185115814209,10.029311180114746,-26.85546875,5.37109375,19.6990966796875
0.0562499,1.5658079385757446,-6.141127586364746,9.952696800231934,-21.8658447265625,1.8768310546875,19.6380615234375
0.0587499,1.601720929145813,-6.1985883712768555,9.9000244140625,-18.4173583984375,1.0986328125,19.561767578125
0.061249899999999996,1.5634137392044067,-6.27280855178833,9.84495735168457,-15.6097412109375,2.410888671875,19.2108154296875
0.0637499,1.4748282432556152,-6.31829833984375,9.734824180603027,-12.420654296875,3.5858154296875,18.0816650390625
0.0662499,1.338358759880066,-6.325480937957764,9.569623947143555,-9.2620849609375,4.08935546875,16.998291015625
0.0687499,1.1779472827911377,-6.3518171310424805,9.342175483703613,-2.9144287109375,0.3814697265625,17.15087890625
0.0712499,1.0414776802062988,-6.3733649253845215,9.095572471618652,2.99072265625,-3.84521484375,17.3492431640625
0.0737499,1.0127472877502441,-6.378153324127197,8.93037223815918,5.889892578125,-3.509521484375,17.3187255859375
0.0762499,0.9552865028381348,-6.342240333557129,8.858546257019043,6.0882568359375,-3.1280517578125,18.798828125
0.0787499,0.9145850539207458,-6.234501361846924,8.832210540771484,6.77490234375,-4.0130615234375,20.416259765625
0.0812499,0.8619126081466675,-6.0621185302734375,8.813055992126465,9.033203125,-4.5623779296875,21.148681640625
0.0837499,0.7996633648872375,-5.8873419761657715,8.746018409729004,12.115478515625,-5.889892578125,22.03369140625
0.0862499,0.7493851184844971,-5.710171222686768,8.62630844116211,15.167236328125,-6.3629150390625,22.552490234375
0.0887499,0.6967126727104187,-5.549759387969971,8.525752067565918,17.27294921875,-6.622314453125,22.88818359375
0.0912499,0.608127236366272,-5.410895824432373,8.432378768920898,18.890380859375,-7.1258544921875,23.406982421875
0.0937499,0.5171475410461426,-5.262455463409424,8.336610794067383,19.439697265625,-7.0953369140625,23.62060546875
0.0962499,0.4118026793003082,-5.109226226806641,8.226476669311523,19.9127197265625,-7.62939453125,23.712158203125
0.0987499,0.3208230137825012,-4.93923807144165,8.111555099487305,19.6075439453125,-6.34765625,23.74267578125
0.1012499,0.24181437492370605,-4.707000732421875,7.99184513092041,18.5089111328125,-6.0577392578125,23.529052734375
0.1037499,0.10773907601833344,-4.4508209228515625,7.879317760467529,18.9208984375,-6.1492919921875,22.4761962890625
0.1062499,-0.16759411990642548,-4.173093795776367,7.711723804473877,19.0582275390625,-3.6468505859375,19.6685791015625
0.1087499,-0.6129156351089478,-3.936067581176758,7.474697589874268,19.10400390625,-0.213623046875,15.5181884765625
0.1112499,-1.194706678390503,-3.8163576126098633,7.175422668457031,18.85986328125,1.0833740234375,12.5732421875
0.1137499,-1.7166426181793213,-3.821146011352539,6.92881965637207,17.181396484375,-1.6326904296875,11.16943359375
0.1162499,-2.070984363555908,-3.9695863723754883,6.818686485290527,14.6331787109375,-6.3018798828125,11.444091796875
0.1187499,-2.207453966140747,-4.189853191375732,6.852205276489258,7.5531005859375,-4.486083984375,11.0931396484375
0.1212499,-2.1380221843719482,-4.462791919708252,7.015010833740234,1.1749267578125,-0.1983642578125,9.33837890625
0.1237499,-2.121262788772583,-4.656722068786621,7.12035608291626,-0.152587890625,-0.5340576171875,8.1024169921875
0.1262499,-1.987187385559082,-4.881777286529541,7.182605266571045,1.983642578125,-1.8157958984375,4.82177734375
0.1287499,-1.889025092124939,-5.04218864440918,7.19936466217041,1.5106201171875,-3.6773681640625,4.0130615234375
0.1312499,-1.8842366933822632,-5.123591423034668,7.132327079772949,-2.227783203125,-2.655029296875,4.7454833984375
0.1337499,-1.9560627937316895,-5.17626428604126,7.007828235626221,-1.40380859375,0.1983642578125,-0.946044921875
0.1362499,-2.1140801906585693,-5.216965675354004,6.861782073974609,2.7008056640625,-2.4566650390625,-5.767822265625
0.1387499,-2.2577321529388428,-5.25527286529541,6.775590896606445,7.0953369140625,-6.561279296875,-4.4097900390625
0.1412499,-2.1811177730560303,-5.442020416259766,6.856993675231934,7.3699951171875,-7.4615478515625,-4.0435791015625
0.1437499,-1.9560627937316895,-5.655104637145996,7.141903877258301,0.2899169921875,-6.53076171875,-4.0130615234375
0.1462499,-1.6950948238372803,-5.8657941818237305,7.441178798675537,-7.293701171875,-4.3792724609375,-3.448486328125
0.1487499,-1.4891934394836426,-5.995080947875977,7.654263019561768,-7.0037841796875,-4.9591064453125,-4.0740966796875
0.1512499,-1.3958195447921753,-6.045359134674072,7.692570209503174,-2.166748046875,-6.04248046875,-5.0506591796875
0.1537499,-1.3263877630233765,-6.007051944732666,7.69735860824585,-0.4119873046875,-5.79833984375,-5.0811767578125
0.1562499,-1.216254472732544,-5.920860767364502,7.740454196929932,-1.9989013671875,-7.32421875,-4.1351318359375
0.1587499,-0.9720458984375,-5.825092792510986,7.876923561096191,-5.1422119140625,-7.9498291015625,-3.3416748046875
0.1612499,-0.6607996821403503,-5.70777702331543,8.106766700744629,-9.4451904296875,-7.32421875,-1.5106201171875
0.1637499,-0.2992752194404602,-5.635950565338135,8.271966934204102,-11.04736328125,-6.6680908203125,-1.1138916015625
0.1662499,0.038307227194309235,-5.571307182312012,8.406042098999023,-12.7105712890625,-3.7078857421875,-2.6702880859375
0.1687499,0.2753331959247589,-5.530605792999268,8.463502883911133,-11.8255615234375,-4.486083984375,-2.2125244140625
0.1712499,0.4836287498474121,-5.51624059677124,8.465897560119629,-10.3607177734375,-7.659912109375,-2.1209716796875
0.1737499,0.6272808313369751,-5.523423194885254,8.44195556640625,-11.41357421875,-7.476806640625,-2.960205078125
0.17624990000000001,0.7422025203704834,-5.540182590484619,8.413225173950195,-11.962890625,-7.0343017578125,-2.7008056640625
0.1787499,0.8547300100326538,-5.556941986083984,8.401253700256348,-12.8173828125,-7.3699951171875,-2.2125244140625
0.1812499,0.8619126081466675,-5.580883979797363,8.401253700256348,-13.6566162109375,-8.880615234375,-0.6103515625
0.1837499,0.9241618514060974,-5.588066577911377,8.398859977722168,-13.824462890625,-8.30078125,-1.4190673828125
0.1862499,0.8547300100326538,-5.592854976654053,8.379706382751465,-12.542724609375,-7.4005126953125,-0.396728515625
0.1887499,0.8355764150619507,-5.571307182312012,8.362946510314941,-12.4359130859375,-7.0648193359375,2.3040771484375
0.1912499,0.8092401623725891,-5.530605792999268,8.38449478149414,-14.678955078125,-7.6904296875,4.547119140625
0.1937499,0.8044517636299133,-5.480327606201172,8.44195556640625,-16.78466796875,-10.07080078125,6.378173828125
0.1962499,0.950498104095459,-5.418078422546387,8.489839553833008,-19.34814453125,-9.7198486328125,6.805419921875
0.1987499,1.1228805780410767,-5.374982833862305,8.525752067565918,-20.69091796875,-9.6893310546875,8.8958740234375
0.2012499,1.4173674583435059,-5.339069843292236,8.487444877624512,-20.477294921875,-12.7410888671875,10.1470947265625
0.2037499,1.680729627609253,-5.305551052093506,8.470685958862305,-18.4326171875,-14.801025390625,10.101318359375
0.2062499,1.8339585065841675,-5.200206279754639,8.482656478881836,-19.775390625,-13.0157470703125,11.566162109375
0.20874990000000002,1.8148049116134644,-5.080495834350586,8.47547435760498,-22.5372314453125,-11.4288330078125,11.566162109375
0.2112499,1.6065093278884888,-4.920084476470947,8.504204750061035,-20.6756591796875,-12.4053955078125,9.6588134765625
0.2137499,1.2330138683319092,-4.738125324249268,8.489839553833008,-21.3623046875,-11.474609375,8.697509765625
0.2162499,0.7637503147125244,-4.570530891418457,8.413225173950195,-26.0162353515625,-9.4757080078125,8.7432861328125
0.2187499,0.2537853717803955,-4.431667327880859,8.250418663024902,-30.6854248046875,-6.6986083984375,7.4310302734375
0.2212499,-0.19153612852096558,-4.381389141082764,8.027758598327637,-31.6619873046875,-4.9896240234375,5.950927734375
0.2237499,-0.5003881454467773,-4.398148536682129,7.790732383728027,-31.6162109375,-6.0577392578125,5.4473876953125
0.2262499,-0.5961562395095825,-4.541800498962402,7.587224960327148,-32.257080078125,-7.26318359375,5.1116943359375
0.2287499,-0.5171475410461426,-4.738125324249268,7.400477409362793,-31.3720703125,-7.2174072265625,3.8299560546875
0.2312499,-0.3016694188117981,-4.963180065155029,7.24485445022583,-29.6173095703125,-3.9215087890625,2.5787353515625
0.2337499,-0.07422025501728058,-5.243301868438721,7.101202011108398,-28.076171875,-2.2735595703125,1.800537109375
0.2362499,0.15322890877723694,-5.530605792999268,7.007828235626221,-26.85546875,-3.90625,2.288818359375
0.23874990000000001,0.28730419278144836,-5.808333396911621,6.9910688400268555,-26.031494140625,-4.9285888671875,2.593994140625
0.2412499,0.28969839215278625,-6.026205539703369,6.979097843170166,-25.4974365234375,-4.364013671875,1.9989013671875
0.2437499,0.14844051003456116,-6.133944988250732,6.904877662658691,-24.71923828125,-3.11279296875,0.244140625
0.2462499,-0.38546648621559143,-5.975927352905273,6.607996463775635,-22.308349609375,-4.425048828125,-1.3427734375
0.2487499,-0.38546648621559143,-5.975927352905273,6.607996463775635,-22.308349609375,-4.425048828125,-1.3427734375
0.2512499,-0.7445967197418213,-5.521028995513916,6.447585105895996,-24.0631103515625,-9.09423828125,-2.838134765625
0.25374990000000003,-0.7445967197418213,-5.521028995513916,6.447585105895996,-24.0631103515625,-9.09423828125,-2.838134765625
0.25624990000000003,-0.7757213711738586,-5.092466831207275,6.3949127197265625,-25.7720947265625,-8.6669921875,-4.2572021484375
0.25874990000000003,-0.7757213711738586,-5.092466831207275,6.3949127197265625,-25.7720947265625,-8.6669921875,-4.2572021484375
0.26124990000000003,-0.646434485912323,-4.917690277099609,6.435614109039307,-27.9083251953125,-10.406494140625,-6.072998046875
0.26374990000000004,-0.646434485912323,-4.917690277099609,6.435614109039307,-27.9083251953125,-10.406494140625,-6.072998046875
0.26624990000000004,-0.4381389021873474,-4.989516258239746,6.531382083892822,-29.0069580078125,-8.3465576171875,-6.7901611328125
0.26874990000000004,-0.4381389021873474,-4.989516258239746,6.531382083892822,-29.0069580078125,-8.3465576171875,-6.7901611328125
0.27124990000000004,-0.18914192914962769,-5.056553840637207,6.646304130554199,-29.8004150390625,-8.514404296875,-5.5999755859375
0.27374990000000005,-0.18914192914962769,-5.056553840637207,6.646304130554199,-29.8004150390625,-8.514404296875,-5.5999755859375
0.27624990000000005,0.0933738648891449,-5.114014625549316,7.005434036254883,-27.8778076171875,-6.40869140625,-4.1961669921875
0.27874990000000005,0.0933738648891449,-5.114014625549316,7.005434036254883,-27.8778076171875,-6.40869140625,-4.1961669921875
0.28124990000000005,0.4213795065879822,-5.410895824432373,7.484274387359619,-28.0914306640625,-4.21142578125,-3.60107421875
0.28374990000000005,0.4213795065879822,-5.410895824432373,7.484274387359619,-28.0914306640625,-4.21142578125,-3.60107421875
0.28624990000000006,0.7589619159698486,-5.937620162963867,7.955932140350342,-23.956298828125,-3.8299560546875,-2.8228759765625
0.28874990000000006,0.7589619159698486,-5.937620162963867,7.955932140350342,-23.956298828125,-3.8299560546875,-2.8228759765625
0.2912499,1.0534487962722778,-6.390124320983887,8.35097599029541,-24.4598388671875,-0.1373291015625,-1.9378662109375
0.2937499,1.0534487962722778,-6.390124320983887,8.35097599029541,-24.4598388671875,-0.1373291015625,-1.9378662109375
0.2962499,1.2521674633026123,-6.658275127410889,8.712499618530273,-22.94921875,-1.8310546875,-0.1983642578125
0.2987499,1.2521674633026123,-6.658275127410889,8.712499618530273,-22.94921875,-1.8310546875,-0.1983642578125
0.3012499,1.216254472732544,-6.701370716094971,8.853757858276367,-25.238037109375,1.03759765625,1.8310546875
0.3037499,1.216254472732544,-6.701370716094971,8.853757858276367,-25.238037109375,1.03759765625,1.8310546875
0.3062499,0.8475474119186401,-6.531382083892822,8.827422142028809,-20.6298828125,0.9002685546875,2.5634765625
0.3087499,0.8475474119186401,-6.531382083892822,8.827422142028809,-20.6298828125,0.9002685546875,2.5634765625
0.3112499,0.4141969084739685,-6.282385349273682,8.841787338256836,-19.4091796875,1.0986328125,2.4261474609375
0.3137499,0.4141969084739685,-6.282385349273682,8.841787338256836,-19.4091796875,1.0986328125,2.4261474609375
0.31624990000000003,0.24899697303771973,-5.983109951019287,8.863334655761719,-16.9830322265625,1.2054443359375,3.2958984375
0.31874990000000003,0.24899697303771973,-5.983109951019287,8.863334655761719,-16.9830322265625,1.2054443359375,3.2958984375
0.32124990000000003,0.2322375625371933,-5.746084213256836,9.009381294250488,-14.5416259765625,2.655029296875,1.708984375
0.32374990000000003,0.2322375625371933,-5.746084213256836,9.009381294250488,-14.5416259765625,2.655029296875,1.708984375
0.32624990000000004,0.07900865375995636,-5.638344764709473,9.05247688293457,-14.404296875,3.326416015625,0.640869140625
0.32874990000000004,0.07900865375995636,-5.638344764709473,9.05247688293457,-14.404296875,3.326416015625,0.640869140625
0.33124990000000004,-0.2777273952960968,-5.592854976654053,8.803479194641113,-13.8397216796875,4.7454833984375,-2.3345947265625
0.33374990000000004,-0.2777273952960968,-5.592854976654053,8.803479194641113,-13.8397216796875,4.7454833984375,-2.3345947265625
0.33624990000000005,-0.6536170840263367,-5.4659624099731445,8.561665534973145,-15.777587890625,1.3275146484375,-4.3182373046875
0.33874990000000005,-0.6536170840263367,-5.4659624099731445,8.561665534973145,-15.777587890625,1.3275146484375,-4.3182373046875
0.34124990000000005,-0.8331822156906128,-5.195417881011963,8.336610794067383,-20.1568603515625,4.08935546875,-8.72802734375
0.34374990000000005,-0.8331822156906128,-5.195417881011963,8.336610794067383,-20.1568603515625,4.08935546875,-8.72802734375
0.34624990000000005,-1.0582371950149536,-4.948814868927002,8.04930591583252,-24.5361328125,4.5166015625,-11.5814208984375
0.34874990000000006,-1.0582371950149536,-4.948814868927002,8.04930591583252,-24.5361328125,4.5166015625,-11.5814208984375
0.35124990000000006,-1.599326729774475,-4.817133903503418,7.752425193786621,-31.768798828125,8.056640625,-15.1214599609375
0.3537499,-1.599326729774475,-4.817133903503418,7.752425193786621,-31.768798828125,8.056640625,-15.1214599609375
0.3562499,-1.968033790588379,-4.93923807144165,7.6782050132751465,-34.698486328125,3.5552978515625,-16.0980224609375
0.3587499,-1.968033790588379,-4.93923807144165,7.6782050132751465,-34.698486328125,3.5552978515625,-16.0980224609375
0.3612499,-1.5203180313110352,-5.451597213745117,8.02536392211914,-37.139892578125,1.5106201171875,-18.646240234375
0.3637499,-1.5203180313110352,-5.451597213745117,8.02536392211914,-37.139892578125,1.5106201171875,-18.646240234375
0.3662499,-0.6751648783683777,-6.19379997253418,8.291120529174805,-40.5731201171875,7.9803466796875,-20.660400390625
0.3687499,-0.6751648783683777,-6.19379997253418,8.291120529174805,-40.5731201171875,7.9803466796875,-20.660400390625
0.3712499,-0.0454898327589035,-6.799532890319824,8.377311706542969,-39.4287109375,4.4097900390625,-19.4091796875
0.3737499,-0.0454898327589035,-6.799532890319824,8.377311706542969,-39.4287109375,4.4097900390625,-19.4091796875
0.3762499,0.3711012601852417,-7.2113356590271,8.487444877624512,-40.3594970703125,4.0740966796875,-20.050048828125
0.37874990000000003,0.3711012601852417,-7.2113356590271,8.487444877624512,-40.3594970703125,4.0740966796875,-20.050048828125
0.38124990000000003,0.569819986820221,-7.486668586730957,8.573636054992676,-40.71044921875,10.4522705078125,-19.2718505859375
0.38374990000000003,0.569819986820221,-7.486668586730957,8.573636054992676,-40.71044921875,10.4522705078125,-19.2718505859375
0.38624990000000003,0.5434837937355042,-7.704541206359863,8.698134422302246,-39.4744873046875,7.01904296875,-19.8822021484375
0.38874990000000004,0.5434837937355042,-7.704541206359863,8.698134422302246,-39.4744873046875,7.01904296875,-19.8822021484375
0.39124990000000004,0.4620809257030487,-7.91283655166626,8.786720275878906,-37.261962890625,9.46044921875,-20.050048828125
0.39374990000000004,0.4620809257030487,-7.91283655166626,8.786720275878906,-37.261962890625,9.46044921875,-20.050048828125
0.39624990000000004,0.4165911078453064,-8.010998725891113,8.827422142028809,-36.102294921875,10.25390625,-19.195556640625
0.39874990000000005,0.4165911078453064,-8.010998725891113,8.827422142028809,-36.102294921875,10.25390625,-19.195556640625
0.40124990000000005,0.3519476354122162,-8.001421928405762,8.848969459533691,-34.4390869140625,12.0849609375,-19.53125
0.40374990000000005,0.3519476354122162,-8.001421928405762,8.848969459533691,-34.4390869140625,12.0849609375,-19.53125
0.40624990000000005,0.1867477297782898,-7.884106159210205,8.820239067077637,-32.1197509765625,14.1143798828125,-19.3023681640625
0.40874990000000005,0.1867477297782898,-7.884106159210205,8.820239067077637,-32.1197509765625,14.1143798828125,-19.3023681640625
0.41124990000000006,-0.05027823522686958,-7.723694801330566,8.7484130859375,-32.1197509765625,15.228271484375,-19.3634033203125
0.41374990000000006,-0.05027823522686958,-7.723694801330566,8.7484130859375,-32.1197509765625,15.228271484375,-19.3634033203125
0.41624990000000006,-0.23942017555236816,-7.546523571014404,8.5903959274292,-31.982421875,14.9078369140625,-19.2108154296875
0.4187499,-0.23942017555236816,-7.546523571014404,8.5903959274292,-31.982421875,14.9078369140625,-19.2108154296875
0.4212499,-0.4644751250743866,-7.299921035766602,8.293514251708984,-36.80419921875,19.4091796875,-18.6614990234375
0.4237499,-0.4644751250743866,-7.299921035766602,8.293514251708984,-36.80419921875,19.4091796875,-18.6614990234375
0.4262499,-0.5410895943641663,-7.015010833740234,8.092401504516602,-38.75732421875,17.0135498046875,-18.4173583984375
0.4287499,-0.40940847992897034,-6.890512466430664,8.130708694458008,-41.1834716796875,15.6707763671875,-18.37158203125
0.4312499,-0.1604115068912506,-6.782773494720459,8.161833763122559,-43.4722900390625,14.0838623046875,-19.1192626953125
0.4337499,0.14844051003456116,-6.739677906036377,8.24084186553955,-46.4935302734375,16.4794921875,-20.5078125
0.4362499,0.4118026793003082,-6.768408298492432,8.2312650680542,-47.9888916015625,16.1285400390625,-21.026611328125
0.4387499,0.6416460275650024,-6.868964672088623,8.17141056060791,-49.041748046875,14.434814453125,-21.42333984375
0.44124990000000003,0.8595184087753296,-7.050923824310303,8.044517517089844,-48.9044189453125,13.6260986328125,-21.42333984375
0.44374990000000003,1.0271124839782715,-7.280767440795898,7.862558364868164,-46.6156005859375,11.53564453125,-22.2015380859375
0.44624990000000003,1.0630255937576294,-7.553706169128418,7.6566572189331055,-43.6248779296875,12.02392578125,-22.6287841796875
0.44874990000000003,0.9481038451194763,-7.833827972412109,7.5417351722717285,-42.877197265625,15.777587890625,-23.8037109375
0.45124990000000004,0.5817909836769104,-8.056488990783691,7.553706169128418,-43.2281494140625,16.3421630859375,-25.0701904296875
0.45374990000000004,0.004788403399288654,-8.178592681884766,7.666234016418457,-42.724609375,14.7552490234375,-25.970458984375
0.45624990000000004,-0.6560112833976746,-8.169015884399414,7.841010570526123,-42.266845703125,16.0675048828125,-26.7486572265625
0.45874990000000004,-1.3479355573654175,-8.02536392211914,7.972691535949707,-43.121337890625,18.707275390625,-26.580810546875
0.46124990000000005,-1.9632453918457031,-7.802703380584717,8.030152320861816,-43.1671142578125,19.83642578125,-25.3143310546875
0.46374990000000005,-2.3798365592956543,-7.501033782958984,8.099584579467773,-45.7916259765625,21.42333984375,-24.7650146484375
0.46624990000000005,-2.631227731704712,-7.180211067199707,8.133103370666504,-51.57470703125,24.7802734375,-23.6053466796875
0.46874990000000005,-2.492363929748535,-6.873753070831299,8.20492935180664,-55.6488037109375,25.787353515625,-23.5137939453125
0.47124990000000005,-2.10210919380188,-6.629544734954834,8.252813339233398,-56.488037109375,23.4222412109375,-22.9339599609375
0.47374990000000006,-1.359906554222107,-6.469132900238037,8.26478385925293,-56.854248046875,22.705078125,-22.9034423828125
0.47624990000000006,-0.4596867263317108,-6.399701118469238,8.226476669311523,-59.722900390625,23.3154296875,-23.8037109375
0.47874990000000006,0.4884171485900879,-6.4595561027526855,8.10437297821045,-60.4248046875,22.613525390625,-25.2532958984375
0.4812499,1.3503297567367554,-6.588842868804932,7.967903137207031,-59.356689453125,21.148681640625,-26.336669921875
0.4837499,2.0039467811584473,-6.811503887176514,7.797914981842041,-57.6629638671875,19.012451171875,-26.6265869140625
0.4862499,2.434903144836426,-7.053318023681641,7.663839817047119,-58.502197265625,18.24951171875,-28.167724609375
0.4887499,2.609679937362671,-7.280767440795898,7.556100368499756,-59.63134765625,16.510009765625,-29.7088623046875
0.4912499,2.6240451335906982,-7.433996200561523,7.453149795532227,-58.65478515625,13.885498046875,-31.7840576171875
0.4937499,2.4827871322631836,-7.486668586730957,7.333439826965332,-57.525634765625,12.0391845703125,-33.1268310546875
0.4962499,2.2649147510528564,-7.412448406219482,7.220912456512451,-56.94580078125,10.9100341796875,-34.912109375
0.4987499,1.9991583824157715,-7.220912456512451,7.103596210479736,-59.08203125,10.31494140625,-36.651611328125
0.5012499,1.721431016921997,-6.952761650085449,7.022193431854248,-60.9283447265625,8.4381103515625,-37.6129150390625
0.5037499000000001,1.50355863571167,-6.665457725524902,6.926425457000732,-62.6373291015625,6.805419921875,-38.970947265625
0.5062499,1.3287819623947144,-6.435614109039307,6.799532890319824,-64.3157958984375,5.401611328125,-40.008544921875
0.5087499000000001,1.2306196689605713,-6.303933143615723,6.648698329925537,-67.1234130859375,5.7830810546875,-41.717529296875
0.5112499,1.1468225717544556,-6.296750545501709,6.493074893951416,-69.7021484375,5.2947998046875,-42.8619384765625
0.5137499,1.0893617868423462,-6.414066314697266,6.358999729156494,-71.96044921875,4.39453125,-43.8079833984375
0.5162499,1.0749965906143188,-6.624756336212158,6.320692539215088,-73.5931396484375,4.058837890625,-45.257568359375
0.5187499,1.070208191871643,-6.907271862030029,6.337451934814453,-73.91357421875,3.1585693359375,-46.600341796875
0.5212499,1.0797849893569946,-7.208941459655762,6.421248912811279,-73.5931396484375,2.6702880859375,-47.9888916015625
0.5237499,1.0606313943862915,-7.510610580444336,6.521805286407471,-73.6236572265625,2.044677734375,-48.9044189453125
0.5262499,0.9959878921508789,-7.781155586242676,6.596025466918945,-73.8067626953125,1.1138916015625,-50.079345703125
0.5287499,0.8930372595787048,-7.989450931549072,6.619967937469482,-74.0814208984375,1.03759765625,-51.177978515625
0.5312499,0.790086567401886,-8.145073890686035,6.615179061889648,-73.944091796875,0.42724609375,-52.2918701171875
0.5337499,0.6823474764823914,-8.243236541748047,6.564900875091553,-73.8067626953125,-0.396728515625,-53.3294677734375
0.5362499000000001,0.608127236366272,-8.300697326660156,6.524199485778809,-73.3642578125,-0.2899169921875,-54.107666015625
0.5387499,0.5530605912208557,-8.33182144165039,6.514622688293457,-71.9451904296875,-0.457763671875,-54.7637939453125
0.5412499000000001,0.5291185975074768,-8.358158111572266,6.524199485778809,-70.6329345703125,-1.2664794921875,-55.7861328125
0.5437499,0.5339069962501526,-8.377311706542969,6.557718276977539,-69.7479248046875,-1.434326171875,-56.8695068359375
0.5462499000000001,0.5722141861915588,-8.413225173950195,6.605602264404297,-68.511962890625,-1.7852783203125,-57.7850341796875
0.5487499,0.6368576288223267,-8.44434928894043,6.646304130554199,-67.4285888671875,-2.44140625,-58.59375
0.5512499000000001,0.7086837291717529,-8.47786808013916,6.682217121124268,-67.0623779296875,-2.7313232421875,-59.2803955078125
0.5537499,0.7661445140838623,-8.489839553833008,6.72531270980835,-67.3065185546875,-2.960205078125,-60.272216796875
0.5562499000000001,0.7996633648872375,-8.492233276367188,6.75883150100708,-67.32177734375,-3.35693359375,-60.9588623046875
0.5587499,0.8044517636299133,-8.485051155090332,6.782773494720459,-66.7572021484375,-3.6468505859375,-61.82861328125
0.5612499000000001,0.7972691655158997,-8.489839553833008,6.809109687805176,-66.4825439453125,-3.6773681640625,-62.19482421875
0.5637499,0.790086567401886,-8.523358345031738,6.821080684661865,-66.2994384765625,-3.6163330078125,-62.4237060546875
0.5662499000000001,0.790086567401886,-8.578424453735352,6.8162922859191895,-65.6890869140625,-3.2501220703125,-63.0950927734375
0.5687499,0.8092401623725891,-8.65982723236084,6.794744491577148,-64.6209716796875,-3.692626953125,-63.5528564453125
0.5712499000000001,0.8259995579719543,-8.746018409729004,6.72531270980835,-63.3392333984375,-4.0130615234375,-63.7969970703125
0.5737499,0.8547300100326538,-8.827422142028809,6.6391215324401855,-62.01171875,-3.96728515625,-63.96484375
0.5762499000000001,0.8858546018600464,-8.887276649475098,6.536170482635498,-60.6689453125,-4.0130615234375,-64.27001953125
0.5787499,0.9361328482627869,-8.939949035644531,6.44279670715332,-59.2041015625,-4.33349609375,-64.3463134765625
0.5812499,1.0079588890075684,-8.959102630615234,6.380547523498535,-58.2733154296875,-4.5013427734375,-64.056396484375
0.5837499,1.1037269830703735,-8.968679428100586,6.354211330413818,-57.6171875,-4.2572021484375,-64.14794921875
0.5862499,1.194706678390503,-8.956708908081055,6.366182327270508,-57.098388671875,-3.8909912109375,-64.6514892578125
0.5887499,1.2617442607879639,-8.923190116882324,6.426037311553955,-57.647705078125,-3.5552978515625,-64.7430419921875
0.5912499,1.2952631711959839,-8.875306129455566,6.509834289550781,-59.4940185546875,-4.1961669921875,-65.4754638671875
0.5937499,1.3048399686813354,-8.80587387084961,6.62236213684082,-60.8978271484375,-4.5623779296875,-66.253662109375
0.5962499,1.3024457693099976,-8.712499618530273,6.720524311065674,-62.744140625,-3.96728515625,-67.047119140625
0.5987499000000001,1.314416766166687,-8.614337921142578,6.801927089691162,-65.093994140625,-3.204345703125,-67.962646484375
0.6012499,1.3120225667953491,-8.518569946289062,6.835445880889893,-66.619873046875,-3.0059814453125,-68.4356689453125
0.6037499000000001,1.3192051649093628,-8.434772491455078,6.842628479003906,-68.2373046875,-2.74658203125,-69.15283203125
0.6062499,1.3479355573654175,-8.379706382751465,6.811503887176514,-69.732666015625,-3.204345703125,-70.220947265625
0.6087499000000001,1.4053963422775269,-8.343792915344238,6.754043102264404,-70.8160400390625,-3.448486328125,-71.2890625
0.6112499,1.5083470344543457,-8.324639320373535,6.6846113204956055,-72.174072265625,-3.3721923828125,-72.479248046875
0.6137499000000001,1.6184803247451782,-8.300697326660156,6.596025466918945,-73.9288330078125,-3.0975341796875,-73.760986328125
0.6162499,1.7166426181793213,-8.274360656738281,6.514622688293457,-76.2481689453125,-2.2125244140625,-75.103759765625
0.6187499000000001,1.7741034030914307,-8.236053466796875,6.445190906524658,-78.6285400390625,-2.2735595703125,-76.019287109375
0.6212499,1.7884687185287476,-8.212111473083496,6.3949127197265625,-81.0394287109375,-2.44140625,-77.0111083984375
0.6237499000000001,1.7884687185287476,-8.20492935180664,6.399701118469238,-83.3740234375,-2.7923583984375,-78.155517578125
0.6262499,1.7860745191574097,-8.22887134552002,6.440402507781982,-85.9222412109375,-3.0670166015625,-79.28466796875
0.6287499000000001,1.7812861204147339,-8.276755332946777,6.512228488922119,-89.2333984375,-3.60107421875,-80.3680419921875
0.6312499,1.7741034030914307,-8.324639320373535,6.57926607131958,-92.4224853515625,-3.4027099609375,-81.8328857421875
0.6337499000000001,1.7525556087493896,-8.370129585266113,6.615179061889648,-95.5963134765625,-3.11279296875,-82.7178955078125
0.6362499,1.7070658206939697,-8.394071578979492,6.629544734954834,-97.808837890625,-2.899169921875,-83.8165283203125
0.6387499000000001,1.6711528301239014,-8.403648376464844,6.636727333068848,-99.609375,-2.7923583984375,-85.1593017578125
0.6412499,1.659181833267212,-8.38688850402832,6.6391215324401855,-101.5167236328125,-3.448486328125,-86.517333984375
0.6437499,1.6903064250946045,-8.358158111572266,6.660669326782227,-103.6224365234375,-3.9825439453125,-87.4176025390625
0.6462499,1.7741034030914307,-8.33182144165039,6.67982292175293,-106.3995361328125,-3.936767578125,-88.592529296875
0.6487499,1.8746598958969116,-8.336610794067383,6.7061591148376465,-109.588623046875,-3.173828125,-90.3167724609375
0.6512499,1.9608511924743652,-8.377311706542969,6.746860504150391,-113.037109375,-2.960205078125,-91.5069580078125
0.6537499,1.9919757843017578,-8.463502883911133,6.777985095977783,-117.218017578125,-3.1280517578125,-92.5445556640625
0.6562499,1.9632453918457031,-8.56645393371582,6.811503887176514,-121.246337890625,-2.99072265625,-93.68896484375
0.6587499,1.920149803161621,-8.671798706054688,6.84981107711792,-125.1678466796875,-3.5858154296875,-95.1995849609375
0.6612499000000001,1.8842366933822632,-8.753201484680176,6.885724067687988,-128.5400390625,-3.84521484375,-96.7254638671875
0.6637499,1.886630892753601,-8.789113998413086,6.936002254486084,-131.5460205078125,-3.326416015625,-98.3734130859375
0.6662499000000001,1.9273324012756348,-8.803479194641113,6.993463039398193,-134.6435546875,-3.2958984375,-100.128173828125
0.6687499,1.9728221893310547,-8.791508674621582,7.0317702293396,-137.939453125,-3.4027099609375,-101.776123046875
0.6712499000000001,2.011129379272461,-8.789113998413086,7.041347026824951,-142.1356201171875,-2.9144287109375,-103.4698486328125
0.6737499,2.027888774871826,-8.808267593383789,6.9910688400268555,-146.6064453125,-2.3040771484375,-105.560302734375
0.6762499000000001,2.0254945755004883,-8.844181060791016,6.866570472717285,-150.4974365234375,-1.8157958984375,-107.5592041015625
0.6787499,2.013523578643799,-8.875306129455566,6.67982292175293,-154.72412109375,-0.8087158203125,-109.2376708984375
0.6812499000000001,2.03507137298584,-8.911218643188477,6.445190906524658,-158.87451171875,-0.1983642578125,-111.4349365234375
0.6837499,2.0901381969451904,-8.947132110595703,6.2416839599609375,-161.92626953125,-0.1678466796875,-113.22021484375
0.6862499000000001,2.205059766769409,-9.014169692993164,6.110002517700195,-163.9556884765625,-0.579833984375,-115.1275634765625
0.6887499,2.3367409706115723,-9.11233139038086,6.066906929016113,-165.4205322265625,-1.2359619140625,-117.6605224609375
0.6912499000000001,2.4636335372924805,-9.224859237670898,6.078877925872803,-168.02978515625,-0.701904296875,-121.429443359375
0.6937499,2.564189910888672,-9.318233489990234,6.09324312210083,-171.69189453125,0.640869140625,-125.640869140625
0.6962499000000001,2.669534921646118,-9.368511199951172,6.054935932159424,-175.47607421875,1.9073486328125,-129.45556640625
0.6987499,2.782062292098999,-9.375694274902344,5.961562156677246,-177.978515625,1.7547607421875,-132.3089599609375
0.7012499000000001,2.9328970909118652,-9.387664794921875,5.796362400054932,-179.931640625,1.434326171875,-135.5743408203125
0.7037499,3.1100680828094482,-9.442731857299805,5.595249176025391,-184.63134765625,3.4332275390625,-139.190673828125
0.7062499,3.28963303565979,-9.579200744628906,5.382165431976318,-188.9801025390625,4.7149658203125,-141.9219970703125
0.7087499,3.4763808250427246,-9.794678688049316,5.173870086669922,-191.6961669921875,4.4708251953125,-144.9737548828125
0.7112499,3.641580820083618,-10.0580415725708,4.999093055725098,-194.5953369140625,5.035400390625,-147.7508544921875
0.7137499,3.778050184249878,-10.338163375854492,4.831499099731445,-197.9827880859375,5.4931640625,-150.5279541015625
0.7162499,3.8522706031799316,-10.611102104187012,4.659116744995117,-200.714111328125,6.1798095703125,-153.86962890625
0.7187499,3.866635799407959,-10.855310440063477,4.501099109649658,-201.9500732421875,5.67626953125,-156.4788818359375
0.7212499,3.8331170082092285,-11.051634788513184,4.359841346740723,-203.4454345703125,5.2337646484375,-158.63037109375
0.7237499000000001,3.7852327823638916,-11.197681427001953,4.268861770629883,-205.535888671875,6.5460205078125,-160.4766845703125
0.7262499,3.7397429943084717,-11.286267280578613,4.189853191375732,-207.122802734375,7.354736328125,-162.1856689453125
0.7287499000000001,3.756502389907837,-11.338939666748047,4.125209331512451,-208.1451416015625,8.209228515625,-164.61181640625
0.7312499,3.8163576126098633,-11.39400577545166,4.019864559173584,-207.7178955078125,8.514404296875,-166.717529296875
0.7337499000000001,3.9384617805480957,-11.429919242858887,3.8786067962646484,-209.28955078125,10.4217529296875,-168.5333251953125
0.7362499,4.0749311447143555,-11.456254959106445,3.687070608139038,-211.8377685546875,12.4359130859375,-170.806884765625
0.7387499000000001,4.216189384460449,-11.446678161621094,3.464409828186035,-212.58544921875,12.603759765625,-173.2940673828125
0.7412499,4.352658748626709,-11.396400451660156,3.2632968425750732,-212.738037109375,12.451171875,-175.628662109375
0.7437499000000001,4.477157115936279,-11.312602996826172,3.095702886581421,-212.6617431640625,12.6190185546875,-177.7496337890625
0.7462499,4.632780075073242,-11.209651947021484,3.00711727142334,-212.1429443359375,12.5579833984375,-179.656982421875
0.7487499000000001,4.821922302246094,-11.106701850891113,3.00711727142334,-211.273193359375,11.993408203125,-181.6558837890625
0.7512499,5.023035049438477,-11.02051067352295,3.07415509223938,-210.3271484375,12.02392578125,-183.6700439453125
0.7537499000000001,5.2265424728393555,-10.977415084838867,3.184288263320923,-209.8541259765625,12.0697021484375,-185.72998046875
0.7562499,5.39174222946167,-10.96304988861084,3.3039982318878174,-209.5794677734375,11.3372802734375,-187.3931884765625
0.7587499000000001,5.485116004943848,-10.972626686096191,3.3854012489318848,-209.381103515625,10.8642578125,-189.1326904296875
0.7612499,5.506663799285889,-10.953473091125488,3.399766445159912,-208.92333984375,10.9100341796875,-190.673828125
0.7637499000000001,5.499481201171875,-10.891223907470703,3.339911460876465,-207.6568603515625,10.6201171875,-192.169189453125
0.7662499,5.492298603057861,-10.754754066467285,3.2154128551483154,-205.6884765625,10.4827880859375,-193.4967041015625
0.7687499000000001,5.547365188598633,-10.591948509216309,3.0621838569641113,-204.2236328125,10.9405517578125,-194.9462890625
0.7712499,5.626373767852783,-10.400412559509277,2.8826189041137695,-202.9266357421875,12.481689453125,-196.5484619140625
0.7737499,5.762843608856201,-10.235212326049805,2.7293899059295654,-201.446533203125,13.214111328125,-198.30322265625
0.7762499,5.901707172393799,-10.11550235748291,2.6001031398773193,-199.371337890625,12.969970703125,-199.310302734375
0.7787499,6.074089527130127,-10.050858497619629,2.5091233253479004,-197.1282958984375,12.4969482421875,-199.951171875
0.7812499,6.2392897605896,-10.034099578857422,2.449268341064453,-195.6634521484375,13.00048828125,-200.5157470703125
0.7837499,6.368576526641846,-10.034099578857422,2.3918075561523438,-194.0765380859375,13.7939453125,-201.1260986328125
0.7862499000000001,6.447585105895996,-10.02691650390625,2.322375535964966,-192.291259765625,14.2364501953125,-201.5533447265625
0.7887499,6.445190906524658,-9.979032516479492,2.2170307636260986,-189.5599365234375,14.373779296875,-202.0263671875
0.7912499000000001,6.433219909667969,-9.890447616577148,2.126051187515259,-186.614990234375,13.885498046875,-202.2552490234375
0.7937499,6.421248912811279,-9.758766174316406,2.03507137298584,-183.6700439453125,14.007568359375,-202.69775390625
0.7962499000000001,6.457161903381348,-9.600749015808105,1.9608511924743652,-181.640625,14.58740234375,-203.582763671875
0.7987499,6.524199485778809,-9.440337181091309,1.8962076902389526,-179.1229248046875,15.1214599609375,-203.9642333984375
0.8012499000000001,6.603208065032959,-9.284713745117188,1.8100165128707886,-176.6510009765625,16.5863037109375,-204.2388916015625
0.8037499,6.658275127410889,-9.136273384094238,1.7501614093780518,-174.591064453125,16.7694091796875,-205.0323486328125
0.8062499000000001,6.682217121124268,-8.990227699279785,1.6663644313812256,-172.3480224609375,16.4947509765625,-205.535888671875
0.8087499,6.715735912322998,-8.846575736999512,1.6136919260025024,-170.7305908203125,16.3116455078125,-206.0089111328125
0.8112499000000001,6.739677906036377,-8.724471092224121,1.580173134803772,-168.2891845703125,17.242431640625,-206.23779296875
0.8137499,6.789956092834473,-8.631096839904785,1.558625340461731,-166.3360595703125,19.195556640625,-207.000732421875
0.8162499000000001,6.830657482147217,-8.564059257507324,1.5610195398330688,-164.031982421875,20.01953125,-207.8399658203125
0.8187499,6.871358871459961,-8.501810073852539,1.5179238319396973,-161.2701416015625,20.44677734375,-207.4432373046875
0.8212499000000001,6.873753070831299,-8.406042098999023,1.4867992401123047,-158.38623046875,21.575927734375,-207.3822021484375
0.8237499,6.861782073974609,-8.267178535461426,1.3982137441635132,-156.0211181640625,23.1170654296875,-208.0841064453125
0.8262499000000001,6.842628479003906,-8.094796180725098,1.3072341680526733,-154.5867919921875,23.6968994140625,-209.381103515625
0.8287499,6.8378400802612305,-7.90086555480957,1.2090718746185303,-151.85546875,22.8271484375,-208.984375
0.8312499000000001,6.864176273345947,-7.738059997558594,1.1204863786697388,-149.3988037109375,23.4527587890625,-208.9385986328125
0.8337499,6.931213855743408,-7.6111674308776855,1.05105459690094,-147.4761962890625,24.7650146484375,-209.1217041015625
0.8362499,7.01979923248291,-7.553706169128418,1.0534487962722778,-145.4925537109375,24.9176025390625,-208.92333984375
0.8387499,7.072471618652344,-7.524975776672363,1.072602391242981,-143.0816650390625,25.604248046875,-208.251953125
0.8412499,7.122750282287598,-7.532158374786377,1.1228805780410767,-140.31982421875,25.665283203125,-207.794189453125
0.8437499,7.134721279144287,-7.524975776672363,1.1540051698684692,-137.1612548828125,25.726318359375,-206.8939208984375
0.8462499,7.132327079772949,-7.51779317855835,1.1444283723831177,-134.521484375,26.0772705078125,-205.7952880859375
0.8487499000000001,7.129932880401611,-7.4770917892456055,1.1252747774124146,-131.0577392578125,26.947021484375,-205.474853515625
0.8512499,7.108384609222412,-7.424419403076172,1.0893617868423462,-127.7313232421875,27.069091796875,-204.8797607421875
0.8537499000000001,7.060500621795654,-7.343016624450684,1.0558429956436157,-124.7711181640625,26.7791748046875,-203.4759521484375
0.8562499,7.005434036254883,-7.252037048339844,1.0319008827209473,-121.88720703125,27.16064453125,-202.57568359375
0.8587499000000001,6.9240312576293945,-7.144298076629639,1.0079588890075684,-118.6676025390625,26.79443359375,-201.446533203125
0.8612499,6.864176273345947,-7.043741226196289,0.993593692779541,-115.4327392578125,26.2298583984375,-200.0274658203125
0.8637499000000001,6.818686485290527,-6.943184852600098,0.9983820915222168,-111.87744140625,26.0772705078125,-198.6236572265625
0.8662499,6.811503887176514,-6.833051681518555,1.048660397529602,-108.2611083984375,26.06201171875,-197.3419189453125
0.8687499000000001,6.811503887176514,-6.720524311065674,1.1061211824417114,-105.194091796875,25.909423828125,-196.2432861328125
0.8712499,6.835445880889893,-6.576871871948242,1.1851298809051514,-101.776123046875,25.5889892578125,-195.4498291015625
0.8737499000000001,6.84981107711792,-6.411672115325928,1.2401964664459229,-98.4039306640625,25.3143310546875,-194.5953369140625
0.8762499,6.871358871459961,-6.2201361656188965,1.2641384601593018,-95.2606201171875,25.421142578125,-194.39697265625
0.8787499000000001,6.897695064544678,-6.016628742218018,1.2737152576446533,-92.010498046875,25.8636474609375,-193.8323974609375
0.8812499,6.914454460144043,-5.829881191253662,1.2689268589019775,-88.348388671875,26.0772705078125,-193.05419921875
0.8837499000000001,6.9240312576293945,-5.693411827087402,1.259350061416626,-85.113525390625,26.3214111328125,-192.2149658203125
0.8862499,6.92881965637207,-5.616796970367432,1.2545616626739502,-81.329345703125,26.4434814453125,-190.91796875
0.8887499000000001,6.904877662658691,-5.60722017288208,1.2689268589019775,-77.3162841796875,26.6571044921875,-189.117431640625
0.8912499,6.8809356689453125,-5.643133640289307,1.2952631711959839,-73.7762451171875,27.130126953125,-187.8814697265625
0.8937499000000001,6.852205276489258,-5.69580602645874,1.3503297567367554,-70.73974609375,26.9317626953125,-186.4166259765625
0.8962499,6.828263282775879,-5.748478412628174,1.37906014919281,-67.0623779296875,26.6571044921875,-184.3109130859375
0.8987499,6.8162922859191895,-5.774814605712891,1.3982137441635132,-62.8204345703125,26.5045166015625,-182.159423828125
0.9012499,6.8162922859191895,-5.7556610107421875,1.3766659498214722,-59.3109130859375,26.3824462890625,-179.9774169921875
0.9037499,6.830657482147217,-5.700594425201416,1.3407529592514038,-55.9234619140625,25.7110595703125,-177.8106689453125
0.9062499,6.842628479003906,-5.612008571624756,1.3096283674240112,-52.6580810546875,25.3143310546875,-175.689697265625
0.9087499,6.8593878746032715,-5.525817394256592,1.2689268589019775,-49.8046875,25.3753662109375,-173.2940673828125
0.9112499000000001,6.856993675231934,-5.456385612487793,1.2473790645599365,-46.4019775390625,25.421142578125,-170.71533203125
0.9137499,6.828263282775879,-5.406107425689697,1.2330138683319092,-43.3349609375,24.7802734375,-167.90771484375
0.9162499000000001,6.773196697235107,-5.363011837005615,1.2401964664459229,-41.2445068359375,24.4293212890625,-164.9932861328125
0.9187499,6.710947513580322,-5.298368453979492,1.2713210582733154,-39.00146484375,24.1241455078125,-162.65869140625
0.9212499000000001,6.646304130554199,-5.22175407409668,1.3072341680526733,-36.80419921875,23.681640625,-160.0341796875
0.9237499,6.593631267547607,-5.125985622406006,1.3407529592514038,-34.8052978515625,23.529052734375,-157.318115234375
0.9262499000000001,6.54574728012085,-5.015852451324463,1.3838485479354858,-32.65380859375,23.0712890625,-154.84619140625
0.9287499,6.521805286407471,-4.881777286529541,1.4245500564575195,-30.7464599609375,22.4456787109375,-152.6336669921875
0.9312499000000001,6.517016887664795,-4.7189717292785645,1.4700398445129395,-29.5562744140625,22.2320556640625,-150.665283203125
0.9337499,6.540958881378174,-4.532223701477051,1.5203180313110352,-28.533935546875,21.8505859375,-148.92578125
0.9362499000000001,6.593631267547607,-4.32871675491333,1.5418659448623657,-27.5421142578125,21.697998046875,-147.3541259765625
0.9387499,6.660669326782227,-4.129997730255127,1.5514427423477173,-26.8096923828125,21.1029052734375,-146.1639404296875
0.9412499000000001,6.722918510437012,-3.950432777404785,1.5203180313110352,-27.099609375,20.7061767578125,-145.172119140625
0.9437499,6.7923502922058105,-3.797203779220581,1.4772224426269531,-27.9541015625,19.9432373046875,-144.22607421875
0.9462499000000001,6.861782073974609,-3.6559460163116455,1.434126853942871,-28.717041015625,18.9361572265625,-142.852783203125
0.9487499,6.926425457000732,-3.529053211212158,1.3958195447921753,-28.86962890625,18.157958984375,-141.5557861328125
0.9512499000000001,7.005434036254883,-3.404554843902588,1.3623007535934448,-29.5562744140625,18.4783935546875,-140.6402587890625
0.9537499,7.058106422424316,-3.31118106842041,1.3407529592514038,-29.388427734375,18.829345703125,-138.8397216796875
0.9562499000000001,7.082048416137695,-3.268085241317749,1.3263877630233765,-29.693603515625,18.768310546875,-136.9171142578125
0.9587499,7.0772600173950195,-3.3016040325164795,1.3024457693099976,-31.67724609375,18.798828125,-135.6048583984375
0.9612499,7.058106422424316,-3.3949780464172363,1.292868971824646,-33.447265625,18.7835693359375,-134.002685546875
0.9637499,7.0341644287109375,-3.5218706130981445,1.2641384601593018,-34.7900390625,18.5699462890625,-131.9122314453125
0.9662499,7.036558628082275,-3.6367924213409424,1.235408067703247,-36.224365234375,17.76123046875,-129.7454833984375
0.9687499,7.050923824310303,-3.706224203109741,1.2018892765045166,-38.2232666015625,17.3187255859375,-127.899169921875
0.9712499,7.086836814880371,-3.73016619682312,1.173158884048462,-40.6494140625,16.9219970703125,-126.3275146484375
0.9737499000000001,7.12035608291626,-3.706224203109741,1.1540051698684692,-42.7703857421875,16.7999267578125,-124.3896484375
0.9762499,7.146692276000977,-3.670311212539673,1.139639973640442,-44.708251953125,16.7083740234375,-122.9095458984375
0.9787499000000001,7.141903877258301,-3.6391866207122803,1.1563993692398071,-46.9512939453125,16.693115234375,-121.52099609375
0.9812499,7.117961883544922,-3.6343982219696045,1.1875240802764893,-49.2401123046875,16.3726806640625,-119.81201171875
0.9837499000000001,7.062894821166992,-3.665522813796997,1.237802267074585,-50.9796142578125,15.8233642578125,-118.4844970703125
0.9862499,7.005434036254883,-3.7253777980804443,1.290474772453308,-52.6885986328125,15.56396484375,-116.9891357421875
0.9887499000000001,6.947973251342773,-3.797203779220581,1.3311761617660522,-54.229736328125,15.5029296875,-115.5242919921875
0.9912499,6.9024834632873535,-3.847482204437256,1.357512354850769,-55.633544921875,15.106201171875,-114.5172119140625
0.9937499000000001,6.878541469573975,-3.866635799407959,1.3527239561080933,-56.915283203125,14.556884765625,-113.3880615234375
0.9962499,6.871358871459961,-3.84269380569458,1.3215993642807007,-57.525634765625,13.7176513671875,-112.4114990234375
0.9987499000000001,6.876147270202637,-3.7924153804779053,1.2641384601593018,-57.92236328125,13.18359375,-111.419677734375
1.0012499,6.89530086517334,-3.7469255924224854,1.2018892765045166,-58.6090087890625,12.542724609375,-110.321044921875
1.0037498999999999,6.9024834632873535,-3.706224203109741,1.158793568611145,-58.9141845703125,11.5966796875,-109.4818115234375
1.0062499,6.904877662658691,-3.6822822093963623,1.1252747774124146,-59.0972900390625,10.6658935546875,-108.642578125
1.0087499,6.897695064544678,-3.6583402156829834,1.1180921792984009,-58.5784912109375,9.429931640625,-107.8338623046875
1.0112499,6.892906665802002,-3.643975019454956,1.1109095811843872,-58.013916015625,8.85009765625,-106.964111328125
1.0137498999999999,6.9024834632873535,-3.643975019454956,1.1228805780410767,-57.525634765625,8.026123046875,-106.170654296875
1.0162499,6.916848659515381,-3.6535518169403076,1.137245774269104,-56.610107421875,7.110595703125,-105.682373046875
1.0187499,6.936002254486084,-3.670311212539673,1.161187767982483,-55.3741455078125,6.011962890625,-104.522705078125
1.0212499,6.967126846313477,-3.6942532062530518,1.1779472827911377,-54.0618896484375,4.5928955078125,-103.424072265625
1.0237498999999999,7.010222434997559,-3.713406801223755,1.1827356815338135,-52.4139404296875,3.41796875,-102.2186279296875
1.0262498999999998,7.067683219909668,-3.734954595565796,1.173158884048462,-51.1322021484375,3.2196044921875,-101.3336181640625
1.0287499,7.137115478515625,-3.754108190536499,1.170764684677124,-49.13330078125,2.38037109375,-100.250244140625
1.0312499,7.1921820640563965,-3.756502389907837,1.1755530834197998,-47.30224609375,1.7242431640625,-98.81591796875
1.0337498999999999,7.225700855255127,-3.7421371936798096,1.2018892765045166,-45.074462890625,1.129150390625,-97.564697265625
1.0362498999999998,7.249642848968506,-3.7038300037384033,1.2306196689605713,-43.060302734375,0.3814697265625,-96.49658203125
1.0387499,7.266402244567871,-3.6391866207122803,1.2641384601593018,-40.4510498046875,-0.3509521484375,-94.8638916015625
1.0412499,7.299921035766602,-3.557783842086792,1.2856862545013428,-37.353515625,-0.8697509765625,-93.6737060546875
1.0437499,7.359776020050049,-3.4620156288146973,1.3072341680526733,-34.4085693359375,-1.6326904296875,-92.6513671875
1.0462498999999998,7.433996200561523,-3.361459255218506,1.316810965538025,-32.135009765625,-1.9683837890625,-91.4764404296875
1.0487499,7.51779317855835,-3.2609026432037354,1.3048399686813354,-28.961181640625,-2.0599365234375,-90.2557373046875
1.0512499,7.592013359069824,-3.179499864578247,1.2689268589019775,-25.5126953125,-2.7923583984375,-89.0655517578125
1.0537499,7.659051418304443,-3.1220390796661377,1.2234370708465576,-21.575927734375,-3.7384033203125,-87.249755859375
1.0562498999999999,7.702147006988525,-3.0861260890960693,1.1635819673538208,-17.913818359375,-4.69970703125,-85.4949951171875
1.0587499,7.740454196929932,-3.07415509223938,1.1348515748977661,-14.617919921875,-5.67626953125,-83.6639404296875
1.0612499,7.766790390014648,-3.0789434909820557,1.0797849893569946,-11.90185546875,-5.92041015625,-82.03125
1.0637499,7.800309181213379,-3.0861260890960693,1.0582371950149536,-7.9498291015625,-6.591796875,-80.01708984375
1.0662498999999999,7.836222171783447,-3.098097085952759,1.0271124839782715,-3.6163330078125,-7.5225830078125,-77.6214599609375
1.0687499,7.8745293617248535,-3.093308687210083,1.0031704902648926,0.396728515625,-7.75146484375,-75.042724609375
1.0712499,7.898471355438232,-3.0621838569641113,0.9888052940368652,4.0283203125,-8.1939697265625,-72.8607177734375
1.0737499,7.924807548522949,-2.985569477081299,0.9648633003234863,7.4920654296875,-8.5296630859375,-70.5413818359375
1.0762498999999999,7.931990146636963,-2.873042106628418,0.9193734526634216,11.3525390625,-8.453369140625,-68.0389404296875
1.0787499,7.943961143493652,-2.7269957065582275,0.8571242094039917,15.8538818359375,-9.0179443359375,-65.2618408203125
1.0812499,7.967903137207031,-2.5761611461639404,0.7709329724311829,19.622802734375,-9.307861328125,-62.6983642578125
1.0837499,7.987056732177734,-2.4372973442077637,0.6703764796257019,23.49853515625,-10.0555419921875,-59.9517822265625
1.0862498999999999,8.030152320861816,-2.3056161403656006,0.5793967843055725,26.885986328125,-10.2691650390625,-57.342529296875
1.0887499,8.066065788269043,-2.1811177730560303,0.4884171485900879,29.72412109375,-10.162353515625,-54.8248291015625
1.0912499,8.101978302001953,-2.0590133666992188,0.4118026793003082,32.7606201171875,-10.5133056640625,-52.1240234375
1.0937499,8.121131896972656,-1.9345149993896484,0.33997663855552673,35.9954833984375,-11.0931396484375,-49.4232177734375
1.0962498999999999,8.128314971923828,-1.8148049116134644,0.2801215946674347,38.9862060546875,-11.5814208984375,-46.6766357421875
1.0987498999999998,8.135497093200684,-1.7046716213226318,0.21787235140800476,41.3818359375,-11.688232421875,-44.1131591796875
1.1012499,8.152256965637207,-1.6089035272598267,0.15801730751991272,43.914794921875,-11.71875,-41.351318359375
1.1037499,8.176198959350586,-1.53707754611969,0.09816227108240128,45.95947265625,-11.77978515625,-38.6962890625
1.1062499,8.20732307434082,-1.479616641998291,0.038307227194309235,47.637939453125,-11.6424560546875,-36.163330078125
1.1087498999999998,8.248024940490723,-1.434126853942871,-0.026336219161748886,48.9501953125,-11.5966796875,-33.3099365234375
1.1112499,8.288725852966309,-1.3862427473068237,-0.07900865375995636,49.896240234375,-11.4288330078125,-30.426025390625
1.1137499,8.336610794067383,-1.3215993642807007,-0.1412578970193863,50.47607421875,-11.1846923828125,-27.7099609375
1.1162499,8.382100105285645,-1.2401964664459229,-0.19393034279346466,50.72021484375,-10.6964111328125,-25.2685546875
1.1187498999999999,8.425195693969727,-1.1444283723831177,-0.24899697303771973,51.025390625,-10.467529296875,-22.6593017578125
1.1212499,8.456320762634277,-1.036689281463623,-0.31364041566848755,50.7049560546875,-10.43701171875,-20.721435546875
1.1237499,8.485051155090332,-0.9265560507774353,-0.38067805767059326,49.9725341796875,-10.4217529296875,-18.3563232421875
1.1262499,8.504204750061035,-0.8188169598579407,-0.4644751250743866,49.13330078125,-10.162353515625,-16.17431640625
1.1287498999999999,8.518569946289062,-0.7206547260284424,-0.5554547905921936,48.03466796875,-9.9334716796875,-14.312744140625
1.1312499,8.537723541259766,-0.6416460275650024,-0.6488286852836609,46.5087890625,-9.979248046875,-12.4969482421875
1.1337499,8.549694061279297,-0.5722141861915588,-0.7326257228851318,44.921875,-9.82666015625,-10.986328125
1.1362499,8.564059257507324,-0.5123591423034668,-0.8212111592292786,42.9229736328125,-9.4757080078125,-9.27734375
1.1387498999999999,8.576030731201172,-0.4620809257030487,-0.9050082564353943,40.8935546875,-9.5672607421875,-7.8887939453125
1.1412499,8.592789649963379,-0.4141969084739685,-0.9911994934082031,38.7115478515625,-9.5367431640625,-6.6680908203125
1.1437499,8.609549522399902,-0.37828385829925537,-1.0678139925003052,36.0565185546875,-9.3994140625,-5.4931640625
1.1462499,8.633491516113281,-0.35673606395721436,-1.1228805780410767,33.355712890625,-9.307861328125,-4.45556640625
1.1487498999999999,8.667010307312012,-0.35434186458587646,-1.1540051698684692,29.78515625,-9.5672607421875,-3.6773681640625
1.1512499,8.729259490966797,-0.395043283700943,-1.1659762859344482,22.8118896484375,-9.3994140625,-1.64794921875
1.1537499,8.729259490966797,-0.395043283700943,-1.1659762859344482,22.8118896484375,-9.3994140625,-1.64794921875
1.1562499,8.772355079650879,-0.4908113479614258,-1.1444283723831177,14.495849609375,-9.1705322265625,-0.732421875
1.1587498999999999,8.772355079650879,-0.4908113479614258,-1.1444283723831177,14.495849609375,-9.1705322265625,-0.732421875
1.1612498999999998,8.791508674621582,-0.5961562395095825,-1.0749965906143188,6.16455078125,-9.33837890625,-0.18310546875
1.1637499,8.791508674621582,-0.5961562395095825,-1.0749965906143188,6.16455078125,-9.33837890625,-0.18310546875
1.1662499,8.822632789611816,-0.6727706789970398,-1.0127472877502441,-1.617431640625,-9.521484375,-0.3509521484375
1.1687499,8.822632789611816,-0.6727706789970398,-1.0127472877502441,-1.617431640625,-9.521484375,-0.3509521484375
1.1712498999999998,8.87291145324707,-0.768538773059845,-0.9696516990661621,-9.0179443359375,-9.002685546875,-0.8697509765625
1.1737499,8.87291145324707,-0.768538773059845,-0.9696516990661621,-9.0179443359375,-9.002685546875,-0.8697509765625
1.1762499,8.9064302444458,-0.9744400978088379,-0.9097966551780701,-15.93017578125,-9.063720703125,-1.312255859375
1.1787499,8.9064302444458,-0.9744400978088379,-0.9097966551780701,-15.93017578125,-9.063720703125,-1.312255859375
1.1812498999999999,8.920795440673828,-1.3287819623947144,-0.8236053586006165,-22.0794677734375,-8.392333984375,-1.6632080078125
1.1837499,8.920795440673828,-1.3287819623947144,-0.8236053586006165,-22.0794677734375,-8.392333984375,-1.6632080078125
1.1862499,8.913613319396973,-1.7381904125213623,-0.730231523513794,-26.641845703125,-8.2244873046875,-1.77001953125
1.1887499,8.913613319396973,-1.7381904125213623,-0.730231523513794,-26.641845703125,-8.2244873046875,-1.77001953125
1.1912498999999999,8.899248123168945,-2.0685901641845703,-0.6512228846549988,-30.1971435546875,-8.3770751953125,-1.5716552734375
1.1937499,8.899248123168945,-2.0685901641845703,-0.6512228846549988,-30.1971435546875,-8.3770751953125,-1.5716552734375
1.1962499,8.9064302444458,-2.3319525718688965,-0.5913678407669067,-32.6080322265625,-8.0413818359375,-1.312255859375
1.1987499,8.9064302444458,-2.3319525718688965,-0.5913678407669067,-32.6080322265625,-8.0413818359375,-1.312255859375
1.2012498999999999,8.93037223815918,-2.5761611461639404,-0.5291185975074768,-34.027099609375,-7.7972412109375,-1.739501953125
1.2037499,8.93037223815918,-2.5761611461639404,-0.5291185975074768,-34.027099609375,-7.7972412109375,-1.739501953125
1.2062499,8.925583839416504,-2.7533318996429443,-0.45010992884635925,-32.2723388671875,-8.392333984375,-1.1138916015625
1.2087499,8.925583839416504,-2.7533318996429443,-0.45010992884635925,-32.2723388671875,-8.392333984375,-1.1138916015625
1.2112498999999999,8.901641845703125,-2.9065608978271484,-0.3471592366695404,-30.1971435546875,-8.97216796875,-0.79345703125
1.2137499,8.901641845703125,-2.9065608978271484,-0.3471592366695404,-30.1971435546875,-8.97216796875,-0.79345703125
1.2162499,8.89685344696045,-3.1268274784088135,-0.2346317619085312,-27.1759033203125,-8.7738037109375,-0.030517578125
1.2187499,8.89685344696045,-3.1268274784088135,-0.2346317619085312,-27.1759033203125,-8.7738037109375,-0.030517578125
1.2212498999999999,8.899248123168945,-3.3877954483032227,-0.11013327538967133,-24.078369140625,-9.3841552734375,0.732421875
1.2237498999999998,8.899248123168945,-3.3877954483032227,-0.11013327538967133,-24.078369140625,-9.3841552734375,0.732421875
1.2262499,8.916007041931152,-3.5960910320281982,0.009576806798577309,-20.4925537109375,-9.307861328125,1.77001953125
1.2287499,8.916007041931152,-3.5960910320281982,0.009576806798577309,-20.4925537109375,-9.307861328125,1.77001953125
1.2312499,8.935160636901855,-3.6846764087677,0.09576806426048279,-16.05224609375,-9.429931640625,2.9296875
1.2337498999999998,8.935160636901855,-3.6846764087677,0.09576806426048279,-16.05224609375,-9.429931640625,2.9296875
1.2362499,8.944737434387207,-3.6583402156829834,0.14604631066322327,-11.5509033203125,-9.6282958984375,3.5552978515625
1.2387499,8.944737434387207,-3.6583402156829834,0.14604631066322327,-11.5509033203125,-9.6282958984375,3.5552978515625
1.2412499,8.966285705566406,-3.531447410583496,0.1628057211637497,-6.439208984375,-9.8876953125,4.45556640625
1.2437498999999999,8.966285705566406,-3.531447410583496,0.1628057211637497,-6.439208984375,-9.8876953125,4.45556640625
1.2462499,9.014169692993164,-3.3446998596191406,0.1628057211637497,-2.01416015625,-10.31494140625,5.0201416015625
1.2487499,9.014169692993164,-3.3446998596191406,0.1628057211637497,-2.01416015625,-10.31494140625,5.0201416015625
1.2512499,9.097966194152832,-3.138798475265503,0.15322890877723694,2.9754638671875,-10.711669921875,5.3863525390625
1.2537498999999999,9.097966194152832,-3.138798475265503,0.15322890877723694,2.9754638671875,-10.711669921875,5.3863525390625
1.2562499,9.181763648986816,-3.026270866394043,0.15083470940589905,7.26318359375,-10.8184814453125,5.950927734375
1.2587499,9.181763648986816,-3.026270866394043,0.15083470940589905,7.26318359375,-10.8184814453125,5.950927734375
1.2612499,9.251194953918457,-3.0550012588500977,0.14604631066322327,10.43701171875,-10.986328125,6.2713623046875
1.2637498999999999,9.251194953918457,-3.0550012588500977,0.14604631066322327,10.43701171875,-10.986328125,6.2713623046875
1.2662499,9.313444137573242,-3.1100680828094482,0.15801730751991272,13.824462890625,-10.7879638671875,6.5155029296875
1.2687499,9.313444137573242,-3.1100680828094482,0.15801730751991272,13.824462890625,-10.7879638671875,6.5155029296875
1.2712499,9.35893440246582,-3.095702886581421,0.17477671802043915,16.448974609375,-11.1541748046875,6.9732666015625
1.2737498999999999,9.35893440246582,-3.095702886581421,0.17477671802043915,16.448974609375,-11.1541748046875,6.9732666015625
1.2762499,9.387664794921875,-3.0142998695373535,0.17717093229293823,18.768310546875,-10.986328125,7.3699951171875
1.2787499,9.387664794921875,-3.0142998695373535,0.17717093229293823,18.768310546875,-10.986328125,7.3699951171875
1.2812499,9.423578262329102,-2.9305028915405273,0.1604115068912506,20.3704833984375,-11.260986328125,8.0413818359375
1.2837498999999999,9.423578262329102,-2.9305028915405273,0.1604115068912506,20.3704833984375,-11.260986328125,8.0413818359375
1.2862498999999998,9.47146224975586,-2.8802247047424316,0.11013327538967133,21.209716796875,-11.0626220703125,8.6517333984375
1.2887499,9.47146224975586,-2.8802247047424316,0.11013327538967133,21.209716796875,-11.0626220703125,8.6517333984375
1.2912499,9.519346237182617,-2.80361008644104,0.05985504388809204,21.8048095703125,-10.6964111328125,8.5601806640625
1.2937499,9.519346237182617,-2.80361008644104,0.05985504388809204,21.8048095703125,-10.6964111328125,8.5601806640625
1.2962498999999998,9.560047149658203,-2.655169725418091,0.033518824726343155,22.125244140625,-10.6964111328125,8.36181640625
1.2987499,9.560047149658203,-2.655169725418091,0.033518824726343155,22.125244140625,-10.6964111328125,8.36181640625
1.3012499,9.610325813293457,-2.492363929748535,0.0071826050989329815,22.0184326171875,-9.979248046875,7.7972412109375
1.3037499,9.610325813293457,-2.492363929748535,0.0071826050989329815,22.0184326171875,-9.979248046875,7.7972412109375
1.3062498999999999,9.672574996948242,-2.365471363067627,-0.028730420395731926,22.247314453125,-9.2926025390625,6.927490234375
1.3087499,9.672574996948242,-2.365471363067627,-0.028730420395731926,22.247314453125,-9.2926025390625,6.927490234375
1.3112499,9.725247383117676,-2.3487119674682617,-0.10534487664699554,21.636962890625,-8.72802734375,6.134033203125
1.3137499,9.725247383117676,-2.3487119674682617,-0.10534487664699554,21.636962890625,-8.72802734375,6.134033203125
1.3162498999999999,9.742006301879883,-2.4851813316345215,-0.21787235140800476,20.355224609375,-7.3089599609375,4.9591064453125
1.3187499,9.732429504394531,-2.583343744277954,-0.26096799969673157,19.439697265625,-7.354736328125,4.69970703125
1.3212499,9.696516990661621,-2.671929121017456,-0.28969839215278625,18.7530517578125,-7.2174072265625,4.302978515625
1.3237499,9.696516990661621,-2.671929121017456,-0.28969839215278625,18.7530517578125,-7.2174072265625,4.302978515625
1.3262498999999999,9.62947940826416,-2.762908697128296,-0.28969839215278625,17.1356201171875,-6.988525390625,3.631591796875
1.3287499,9.607931137084961,-2.765302896499634,-0.272938996553421,16.0980224609375,-6.6680908203125,3.3416748046875
1.3312499,9.59835433959961,-2.7437551021575928,-0.2537853717803955,15.2130126953125,-6.28662109375,2.86865234375
1.3337499,9.59835433959961,-2.7126305103302,-0.23702596127986908,14.34326171875,-6.16455078125,2.655029296875
1.3362498999999999,9.603142738342285,-2.671929121017456,-0.2298433631658554,13.4124755859375,-5.767822265625,2.288818359375
1.3387499,9.605537414550781,-2.631227731704712,-0.2322375625371933,12.5579833984375,-5.6610107421875,1.678466796875
1.3412499,9.605537414550781,-2.5929205417633057,-0.24660277366638184,11.53564453125,-5.37109375,1.190185546875
1.3437499,9.59835433959961,-2.561795711517334,-0.27054479718208313,10.6353759765625,-5.0506591796875,0.7476806640625
1.3462498999999999,9.586383819580078,-2.5330653190612793,-0.3016694188117981,9.979248046875,-4.8980712890625,0.1678466796875
1.3487498999999998,9.567230224609375,-2.5067291259765625,-0.33997663855552673,9.4146728515625,-4.791259765625,-0.396728515625
1.3512499,9.545681953430176,-2.4851813316345215,-0.3711012601852417,8.8958740234375,-4.57763671875,-0.79345703125
1.3537499,9.526528358459473,-2.4684219360351562,-0.3974374830722809,8.1787109375,-4.4403076171875,-1.220703125
1.3562499,9.50498104095459,-2.4636335372924805,-0.4165911078453064,7.659912109375,-4.058837890625,-1.5411376953125
1.3587498999999998,9.485827445983887,-2.4660277366638184,-0.42377370595932007,7.4005126953125,-3.7689208984375,-1.77001953125
1.3612499,9.466673851013184,-2.473210334777832,-0.43335050344467163,7.0037841796875,-3.814697265625,-2.166748046875
1.3637499,9.454702377319336,-2.4851813316345215,-0.4405331015586853,6.5155029296875,-3.5400390625,-2.50244140625
1.3662499,9.44752025604248,-2.5091233253479004,-0.45489832758903503,6.011962890625,-3.143310546875,-2.6092529296875
1.3687498999999999,9.457097053527832,-2.535459518432617,-0.4668693244457245,5.5389404296875,-3.1280517578125,-2.4871826171875
1.3712499,9.469067573547363,-2.564189910888672,-0.4836287498474121,5.3253173828125,-3.2806396484375,-2.50244140625
1.3737499,9.485827445983887,-2.5929205417633057,-0.49559974670410156,5.0048828125,-2.9754638671875,-2.4261474609375
1.3762499,9.502586364746094,-2.607285737991333,-0.5099649429321289,4.6844482421875,-2.6702880859375,-2.1209716796875
1.3787498999999999,9.502586364746094,-2.6168625354766846,-0.524330198764801,4.638671875,-2.5787353515625,-2.0599365234375
1.3812499,9.497797966003418,-2.6144683361053467,-0.5410895943641663,4.5623779296875,-2.410888671875,-1.861572265625
1.3837499,9.476250648498535,-2.607285737991333,-0.5506663918495178,4.45556640625,-2.25830078125,-1.6937255859375
1.3862499,9.44991397857666,-2.5953147411346436,-0.5554547905921936,4.69970703125,-2.25830078125,-1.4801025390625
1.3887498999999999,9.421183586120605,-2.585737943649292,-0.5482721924781799,4.8370361328125,-2.0294189453125,-1.1138916015625
1.3912499,9.390059471130371,-2.58813214302063,-0.5291185975074768,5.1727294921875,-2.0904541015625,-0.7476806640625
1.3937499,9.366117477416992,-2.6001031398773193,-0.49799394607543945,5.5084228515625,-1.8310546875,-0.4119873046875
1.3962499,9.346963882446289,-2.6192567348480225,-0.4572925269603729,5.7830810546875,-1.800537109375,-0.2288818359375
1.3987498999999999,9.332598686218262,-2.6384103298187256,-0.4118026793003082,5.7525634765625,-2.0294189453125,0.274658203125
1.4012499,9.313444137573242,-2.650381326675415,-0.3663128614425659,6.195068359375,-1.708984375,0.701904296875
1.4037499,9.301473617553711,-2.647987127304077,-0.33039984107017517,6.4544677734375,-1.5869140625,1.007080078125
1.4062499,9.287108421325684,-2.6408045291900635,-0.3016694188117981,6.2255859375,-1.678466796875,1.03759765625
1.4087498999999999,9.277531623840332,-2.6216509342193604,-0.29209262132644653,6.5460205078125,-1.6632080078125,1.0223388671875
1.4112498999999998,9.265560150146484,-2.604891538619995,-0.3016694188117981,6.8206787109375,-1.6326904296875,0.91552734375
1.4137499,9.253589630126953,-2.5785553455352783,-0.31842881441116333,7.1258544921875,-1.8157958984375,1.007080078125
1.4162499,9.23443603515625,-2.557007312774658,-0.3447650372982025,7.537841796875,-1.5869140625,1.2969970703125
1.4187499,9.21288776397705,-2.540247917175293,-0.3711012601852417,7.904052734375,-1.52587890625,1.2359619140625
1.4212498999999998,9.193734169006348,-2.5450363159179688,-0.3974374830722809,8.4991455078125,-1.7547607421875,1.0986328125
1.4237499,9.186552047729492,-2.5713725090026855,-0.4118026793003082,8.97216796875,-1.8463134765625,1.4190673828125
1.4262499,9.188945770263672,-2.628833532333374,-0.42616790533065796,9.2620849609375,-1.8157958984375,1.6021728515625
1.4287499,9.20091724395752,-2.7030537128448486,-0.43095630407333374,9.521484375,-1.89208984375,2.0294189453125
1.4312498999999999,9.227252960205078,-2.782062292098999,-0.43335050344467163,9.674072265625,-1.8463134765625,2.288818359375
1.4337499,9.248801231384277,-2.8419175148010254,-0.4381389021873474,9.7503662109375,-1.7852783203125,2.4566650390625
1.4362499,9.26795482635498,-2.8802247047424316,-0.4381389021873474,9.6588134765625,-1.64794921875,2.6092529296875
1.4387499,9.26795482635498,-2.8826189041137695,-0.4381389021873474,9.3536376953125,-1.89208984375,2.7313232421875
1.4412498999999999,9.258378028869629,-2.8634653091430664,-0.4381389021873474,9.27734375,-2.13623046875,2.8839111328125
1.4437499,9.244012832641602,-2.829946517944336,-0.44532153010368347,9.4146728515625,-2.5177001953125,2.899169921875
1.4462499,9.232041358947754,-2.782062292098999,-0.4572925269603729,9.429931640625,-2.777099609375,2.838134765625
1.4487499,9.222464561462402,-2.734178304672241,-0.4692635238170624,9.27734375,-2.899169921875,2.899169921875
1.4512498999999999,9.224859237670898,-2.691082715988159,-0.4812345504760742,9.2620849609375,-2.899169921875,2.99072265625
1.4537499,9.217676162719727,-2.6599581241607666,-0.47884035110473633,9.1705322265625,-3.0517578125,2.777099609375
1.4562499,9.215282440185547,-2.6360161304473877,-0.47165772318840027,9.1552734375,-3.4027099609375,2.6702880859375
1.4587499,9.210494041442871,-2.63362193107605,-0.44771572947502136,8.97216796875,-3.5247802734375,2.685546875
1.4612498999999999,9.215282440185547,-2.6408045291900635,-0.43335050344467163,8.9874267578125,-3.6163330078125,2.7923583984375
1.4637499,9.222464561462402,-2.6599581241607666,-0.40940847992897034,8.9569091796875,-3.7689208984375,2.62451171875
1.4662499,9.239224433898926,-2.6839001178741455,-0.3926490843296051,8.6212158203125,-3.5858154296875,2.86865234375
1.4687499,9.251194953918457,-2.7102363109588623,-0.3663128614425659,8.2244873046875,-3.5552978515625,3.265380859375
1.4712498999999999,9.263166427612305,-2.7269957065582275,-0.3423708379268646,7.9803466796875,-3.7994384765625,3.662109375
1.4737498999999998,9.258378028869629,-2.7437551021575928,-0.31124621629714966,7.4920654296875,-3.7689208984375,3.662109375
1.4762499,9.253589630126953,-2.7461493015289307,-0.28969839215278625,7.0953369140625,-3.814697265625,3.753662109375
1.4787499,9.23443603515625,-2.738966703414917,-0.2753331959247589,6.89697265625,-4.0435791015625,4.1656494140625
1.4812499,9.222464561462402,-2.715024709701538,-0.272938996553421,6.5460205078125,-4.058837890625,3.997802734375
1.4837498999999998,9.21288776397705,-2.674323320388794,-0.2825157940387726,6.4697265625,-4.2572021484375,3.997802734375
1.4862499,9.215282440185547,-2.6240451335906982,-0.3016694188117981,6.3323974609375,-4.486083984375,4.0740966796875
1.4887499,9.232041358947754,-2.580949544906616,-0.3208230137825012,6.28662109375,-4.5623779296875,4.180908203125
1.4912499,9.248801231384277,-2.5546131134033203,-0.33518823981285095,6.2713623046875,-4.6234130859375,4.2724609375
1.4937498999999999,9.272743225097656,-2.561795711517334,-0.33997663855552673,6.622314453125,-4.8828125,4.6234130859375
1.4962499,9.296685218811035,-2.6024973392486572,-0.3471592366695404,6.4544677734375,-5.126953125,4.730224609375
1.4987499,9.318233489990234,-2.674323320388794,-0.3471592366695404,6.2255859375,-5.035400390625,5.2032470703125
1.5012499,9.334992408752441,-2.765302896499634,-0.3519476354122162,6.0272216796875,-4.9896240234375,5.6915283203125
1.5037498999999999,9.342175483703613,-2.8586769104003906,-0.3495534360408783,5.67626953125,-5.0811767578125,6.1492919921875
1.5062499,9.337387084960938,-2.9328970909118652,-0.33997663855552673,5.2642822265625,-4.9896240234375,6.5765380859375
1.5087499,9.327810287475586,-2.983175277709961,-0.3280056416988373,5.035400390625,-5.1116943359375,7.049560546875
1.5112499,9.32302188873291,-3.002328872680664,-0.30885201692581177,4.69970703125,-5.1422119140625,7.4005126953125
1.5137498999999999,9.318233489990234,-2.9879636764526367,-0.2968810200691223,4.5318603515625,-5.218505859375,7.843017578125
1.5162499,9.32541561126709,-2.9472622871398926,-0.2849099934101105,4.2877197265625,-5.2947998046875,7.720947265625
1.5187499,9.334992408752441,-2.894589900970459,-0.2777273952960968,4.150390625,-5.584716796875,7.9498291015625
1.5212499,9.349357604980469,-2.827552318572998,-0.26575639843940735,4.1961669921875,-5.6915283203125,7.99560546875
1.5237498999999999,9.361329078674316,-2.7700912952423096,-0.2513911724090576,4.2266845703125,-5.5999755859375,7.75146484375
1.5262499,9.38048267364502,-2.7269957065582275,-0.23702596127986908,4.180908203125,-5.645751953125,7.568359375
1.5287499,9.390059471130371,-2.7078421115875244,-0.22266076505184174,4.3792724609375,-5.6915283203125,7.3394775390625
1.5312499,9.402029991149902,-2.7222073078155518,-0.2059013396501541,4.39453125,-5.6304931640625,7.171630859375
1.5337498999999999,9.411606788635254,-2.7676970958709717,-0.19153612852096558,4.425048828125,-5.3558349609375,6.622314453125
1.5362499,9.41639518737793,-2.8395233154296875,-0.181959331035614,4.5318603515625,-5.523681640625,6.53076171875
1.5387499,9.421183586120605,-2.9257144927978516,-0.181959331035614,4.0435791015625,-5.340576171875,6.500244140625
1.5412499,9.423578262329102,-3.0119056701660156,-0.1867477297782898,3.6773681640625,-5.1116943359375,6.439208984375
1.5437499,9.425971984863281,-3.093308687210083,-0.19393034279346466,3.23486328125,-5.0048828125,6.5155029296875
1.5462498999999998,9.425971984863281,-3.1507694721221924,-0.2082955539226532,2.8076171875,-4.8980712890625,6.4544677734375
1.5487499,9.428366661071777,-3.1866824626922607,-0.2106897532939911,2.3345947265625,-4.5623779296875,5.8441162109375
1.5512499,9.428366661071777,-3.1890766620635986,-0.21547815203666687,2.288818359375,-4.547119140625,5.615234375
1.5537499,9.430760383605957,-3.1723172664642334,-0.21308395266532898,2.044677734375,-4.608154296875,5.523681640625
1.5562498999999999,9.425971984863281,-3.138798475265503,-0.2059013396501541,1.983642578125,-4.33349609375,5.157470703125
1.5587499,9.425971984863281,-3.1100680828094482,-0.19632454216480255,1.89208984375,-4.2572021484375,4.57763671875
1.5612499,9.41639518737793,-3.0813376903533936,-0.18914192914962769,1.8310546875,-4.150390625,4.33349609375
1.5637499,9.409213066101074,-3.0573954582214355,-0.17477671802043915,1.800537109375,-4.08935546875,3.631591796875
1.5662498999999999,9.390059471130371,-3.0406360626220703,-0.15801730751991272,1.953125,-4.1961669921875,3.2196044921875
1.5687499,9.373299598693848,-3.023876667022705,-0.1412578970193863,1.8768310546875,-4.150390625,2.685546875
1.5712499,9.354146003723145,-3.021482467651367,-0.1173158809542656,2.1209716796875,-3.96728515625,2.288818359375
1.5737499,9.339780807495117,-3.0310592651367188,-0.09576806426048279,2.3345947265625,-3.7384033203125,1.8310546875
1.5762498999999999,9.32541561126709,-3.050212860107422,-0.08140286058187485,2.593994140625,-3.509521484375,1.46484375
1.5787499,9.313444137573242,-3.0765492916107178,-0.0694318488240242,2.6702880859375,-3.4332275390625,1.0528564453125
1.5812499,9.294290542602539,-3.1076738834381104,-0.07182604819536209,3.0517578125,-3.2806396484375,1.1444091796875
1.5837499,9.27034854888916,-3.1292216777801514,-0.08379705995321274,3.72314453125,-3.143310546875,0.9002685546875
1.5862498999999999,9.239224433898926,-3.157952070236206,-0.10055647045373917,3.936767578125,-2.960205078125,0.7781982421875
1.5887499,9.210494041442871,-3.184288263320923,-0.12689268589019775,4.2266845703125,-2.86865234375,0.701904296875
1.5912499,9.186552047729492,-3.2106244564056396,-0.15562310814857483,4.608154296875,-2.5482177734375,0.5340576171875
1.5937499,9.172186851501465,-3.2369606494903564,-0.181959331035614,5.1422119140625,-2.3956298828125,0.7476806640625
1.5962498999999999,9.162610054016113,-3.251325845718384,-0.2059013396501541,5.9051513671875,-2.3345947265625,0.9002685546875
1.5987499,9.157821655273438,-3.2585084438323975,-0.2322375625371933,6.28662109375,-2.25830078125,1.129150390625
1.6012499,9.150638580322266,-3.246537446975708,-0.2561795711517334,6.5765380859375,-2.3345947265625,1.2664794921875
1.6037499,9.14345645904541,-3.227383852005005,-0.2825157940387726,7.1868896484375,-2.3040771484375,1.52587890625
1.6062499,9.136273384094238,-3.201047658920288,-0.3064578175544739,7.7972412109375,-2.105712890625,1.8310546875
1.6087498999999998,9.117119789123535,-3.177105665206909,-0.33518823981285095,8.2550048828125,-2.1820068359375,1.8157958984375
1.6112499,9.097966194152832,-3.155557870864868,-0.363918662071228,8.544921875,-2.288818359375,2.044677734375
1.6137499,9.069235801696777,-3.136404275894165,-0.3902548849582672,9.033203125,-2.3193359375,2.3345947265625
1.6162499,9.045293807983398,-3.1196448802948,-0.4118026793003082,9.185791015625,-2.5787353515625,2.62451171875
1.6187498999999999,9.023746490478516,-3.098097085952759,-0.42377370595932007,9.6282958984375,-2.5787353515625,2.86865234375
1.6212499,9.006986618041992,-3.07415509223938,-0.42856210470199585,10.009765625,-2.7008056640625,3.0517578125
1.6237499,8.995016098022461,-3.0526070594787598,-0.43095630407333374,10.2996826171875,-2.8076171875,3.021240234375
1.6262499,8.98543930053711,-3.028665065765381,-0.4357447028160095,10.6201171875,-2.9144287109375,3.204345703125
1.6287498999999999,8.971074104309082,-3.0119056701660156,-0.4429273009300232,10.68115234375,-2.9144287109375,3.4332275390625
1.6312499,8.959102630615234,-2.9975404739379883,-0.44771572947502136,10.4827880859375,-2.9449462890625,3.509521484375
1.6337499,8.944737434387207,-2.9903578758239746,-0.4572925269603729,10.55908203125,-3.2196044921875,3.72314453125
1.6362499,8.932766914367676,-2.9951462745666504,-0.4644751250743866,10.6353759765625,-3.6468505859375,4.0740966796875
1.6387498999999999,8.927978515625,-3.004723072052002,-0.4812345504760742,10.6201171875,-3.6163330078125,4.2724609375
1.6412499,8.937555313110352,-3.0166940689086914,-0.5027823448181152,10.1165771484375,-3.570556640625,4.608154296875
1.6437499,8.956708908081055,-3.026270866394043,-0.524330198764801,9.8876953125,-3.631591796875,4.8675537109375
1.6462499,8.983044624328613,-3.026270866394043,-0.5434837937355042,9.46044921875,-3.5400390625,5.1727294921875
1.6487498999999999,9.004592895507812,-3.0142998695373535,-0.5554547905921936,9.3536376953125,-3.6163330078125,5.4473876953125
1.6512499,9.026140213012695,-2.9903578758239746,-0.5602431893348694,9.307861328125,-3.5858154296875,5.55419921875
1.6537499,9.038111686706543,-2.959233283996582,-0.5602431893348694,8.97216796875,-3.6468505859375,5.950927734375
1.6562499,9.050082206726074,-2.920926094055176,-0.5602431893348694,8.636474609375,-3.875732421875,5.9356689453125
1.6587498999999999,9.062053680419922,-2.8874073028564453,-0.5554547905921936,8.544921875,-3.936767578125,6.2713623046875
1.6612499,9.07641887664795,-2.868253707885742,-0.5530605912208557,8.2550048828125,-3.84521484375,6.34765625
1.6637499,9.093177795410156,-2.8610711097717285,-0.545877993106842,8.0413818359375,-3.692626953125,6.5460205078125
1.6662499,9.119514465332031,-2.87064790725708,-0.524330198764801,7.720947265625,-3.84521484375,6.9427490234375
1.6687499,9.14585018157959,-2.889801502227783,-0.5051765441894531,7.14111328125,-3.8604736328125,7.0648193359375
1.6712498999999998,9.17697525024414,-2.9065608978271484,-0.47884035110473633,6.591796875,-3.7841796875,7.4310302734375
1.6737499,9.205705642700195,-2.9233202934265137,-0.45250412821769714,6.195068359375,-3.753662109375,8.0108642578125
1.6762499,9.23682975769043,-2.935291290283203,-0.42616790533065796,5.8135986328125,-3.662109375,8.2550048828125
1.6787499,9.26795482635498,-2.940079689025879,-0.3998316824436188,5.3558349609375,-3.84521484375,8.3160400390625
1.6812498999999999,9.296685218811035,-2.942473888397217,-0.3758896589279175,4.9285888671875,-3.662109375,8.48388671875
1.6837499,9.32302188873291,-2.940079689025879,-0.3519476354122162,4.5928955078125,-3.387451171875,8.6822509765625
1.6862499,9.351752281188965,-2.935291290283203,-0.33997663855552673,4.3487548828125,-3.1890869140625,8.9569091796875
1.6887499,9.378087997436523,-2.9328970909118652,-0.33997663855552673,3.997802734375,-2.960205078125,8.941650390625
1.6912498999999999,9.406818389892578,-2.940079689025879,-0.3471592366695404,3.814697265625,-3.0364990234375,9.2010498046875
1.6937499,9.435548782348633,-2.9664158821105957,-0.3663128614425659,3.2196044921875,-2.685546875,9.063720703125
1.6962499,9.457097053527832,-2.999934673309326,-0.3926490843296051,2.6092529296875,-2.6702880859375,9.21630859375
1.6987499,9.47146224975586,-3.045424461364746,-0.4165911078453064,1.77001953125,-2.5482177734375,9.124755859375
1.7012498999999999,9.478644371032715,-3.090914487838745,-0.4405331015586853,1.28173828125,-2.44140625,9.1552734375
1.7037499,9.473855972290039,-3.134010076522827,-0.4572925269603729,0.732421875,-2.166748046875,9.21630859375
1.7062499,9.464279174804688,-3.1675288677215576,-0.4596867263317108,0.0457763671875,-1.9073486328125,9.002685546875
1.7087499,9.452308654785156,-3.1890766620635986,-0.4572925269603729,-0.18310546875,-1.9683837890625,9.1094970703125
1.7112498999999999,9.442731857299805,-3.205836057662964,-0.4357447028160095,-0.48828125,-1.89208984375,8.8958740234375
1.7137499,9.425971984863281,-3.2130186557769775,-0.4141969084739685,-1.1444091796875,-1.678466796875,8.4228515625
1.7162499,9.411606788635254,-3.222595453262329,-0.395043283700943,-1.5869140625,-1.5869140625,8.2550048828125
1.7187499,9.394847869873047,-3.2369606494903564,-0.3687070608139038,-1.922607421875,-1.4801025390625,8.0413818359375
1.7212498999999999,9.3828763961792,-3.2632968425750732,-0.33997663855552673,-2.288818359375,-1.2969970703125,7.6141357421875
1.7237499,9.366117477416992,-3.294421434402466,-0.30885201692581177,-2.7313232421875,-1.220703125,7.2021484375
1.7262499,9.349357604980469,-3.332728862762451,-0.2753331959247589,-3.2806396484375,-1.03759765625,6.6986083984375
1.7287499,9.334992408752441,-3.3686418533325195,-0.24660277366638184,-3.47900390625,-1.0528564453125,6.500244140625
1.7312499,9.320627212524414,-3.4093432426452637,-0.22266076505184174,-3.4332275390625,-0.732421875,5.8135986328125
1.7337498999999998,9.308655738830566,-3.442862033843994,-0.2106897532939911,-3.72314453125,-0.3814697265625,5.2642822265625
1.7362499,9.296685218811035,-3.4763808250427246,-0.21308395266532898,-3.8299560546875,-0.2593994140625,4.730224609375
1.7387499,9.282320022583008,-3.5051112174987793,-0.21787235140800476,-3.6773681640625,-0.18310546875,4.3182373046875
1.7412499,9.26795482635498,-3.5194764137268066,-0.23942017555236816,-3.6163330078125,-0.1373291015625,3.7994384765625
1.7437498999999999,9.258378028869629,-3.531447410583496,-0.26575639843940735,-3.5858154296875,0.0457763671875,3.326416015625
1.7462499,9.248801231384277,-3.536235809326172,-0.2992752194404602,-3.2501220703125,0.1983642578125,2.7313232421875
1.7487499,9.241618156433105,-3.5458126068115234,-0.33997663855552673,-3.0059814453125,0.5035400390625,2.471923828125
1.7512499,9.23682975769043,-3.5721490383148193,-0.38067805767059326,-2.9296875,0.701904296875,2.0751953125
1.7537498999999999,9.23443603515625,-3.60566782951355,-0.42616790533065796,-2.44140625,0.7781982421875,1.8463134765625
1.7562499,9.232041358947754,-3.6391866207122803,-0.4572925269603729,-2.1209716796875,0.885009765625,1.77001953125
1.7587499,9.229647636413574,-3.665522813796997,-0.47884035110473633,-1.6937255859375,0.9765625,1.708984375
1.7612499,9.220070838928223,-3.6727054119110107,-0.4836287498474121,-1.40380859375,1.15966796875,1.5411376953125
1.7637498999999999,9.208099365234375,-3.6607344150543213,-0.4692635238170624,-1.2359619140625,1.5869140625,1.251220703125
1.7662499,9.191340446472168,-3.6343982219696045,-0.4405331015586853,-0.732421875,1.4495849609375,1.3580322265625
1.7687499,9.17697525024414,-3.5913026332855225,-0.4118026793003082,-0.0457763671875,1.64794921875,1.220703125
1.7712499,9.160215377807617,-3.5410242080688477,-0.38307225704193115,0.30517578125,1.77001953125,1.03759765625
1.7737498999999999,9.141061782836914,-3.490746021270752,-0.363918662071228,0.54931640625,2.1514892578125,1.0223388671875
1.7762499,9.121908187866211,-3.4356794357299805,-0.3495534360408783,0.9765625,1.739501953125,1.129150390625
1.7787499,9.107542991638184,-3.3901896476745605,-0.3423708379268646,1.5411376953125,1.8157958984375,1.2969970703125
1.7812499,9.095572471618652,-3.3446998596191406,-0.33758243918418884,1.800537109375,2.1820068359375,1.068115234375
1.7837498999999999,9.095572471618652,-3.3063924312591553,-0.33997663855552673,2.1209716796875,2.349853515625,1.2359619140625
1.7862499,9.095572471618652,-3.272873640060425,-0.3447650372982025,2.3651123046875,2.5787353515625,1.2054443359375
1.7887499,9.102754592895508,-3.251325845718384,-0.35913026332855225,2.7008056640625,2.4566650390625,1.40380859375
1.7912499,9.11233139038086,-3.2369606494903564,-0.38067805767059326,2.9754638671875,2.7313232421875,1.6632080078125
1.7937499,9.119514465332031,-3.222595453262329,-0.395043283700943,3.41796875,3.0059814453125,1.9378662109375
1.7962498999999998,9.126696586608887,-3.203441858291626,-0.4213795065879822,3.570556640625,3.0517578125,2.4871826171875
1.7987499,9.126696586608887,-3.1723172664642334,-0.43095630407333374,3.7994384765625,3.2501220703125,2.7313232421875
1.8012499,9.126696586608887,-3.138798475265503,-0.44532153010368347,4.364013671875,3.4027099609375,2.9754638671875
1.8037499,9.124302864074707,-3.098097085952759,-0.45010992884635925,4.7454833984375,3.4332275390625,3.631591796875
1.8062498999999999,9.121908187866211,-3.066972494125366,-0.45250412821769714,4.9591064453125,3.4027099609375,4.364013671875
1.8087499,9.124302864074707,-3.043030261993408,-0.4596867263317108,5.2337646484375,3.4942626953125,4.7607421875
1.8112499,9.129091262817383,-3.026270866394043,-0.4644751250743866,5.43212890625,3.509521484375,5.3253173828125
1.8137499,9.136273384094238,-3.0142998695373535,-0.47644615173339844,5.37109375,3.60107421875,5.5694580078125
1.8162498999999999,9.136273384094238,-3.0142998695373535,-0.4812345504760742,5.3558349609375,3.7689208984375,5.9661865234375
1.8187499,9.124302864074707,-3.0095114707946777,-0.47644615173339844,5.584716796875,3.7689208984375,6.4239501953125
1.8212499,9.10993766784668,-2.999934673309326,-0.4644751250743866,5.6915283203125,3.662109375,7.049560546875
1.8237499,9.095572471618652,-2.9927520751953125,-0.4405331015586853,5.2490234375,3.6773681640625,7.3089599609375
1.8262498999999999,9.081207275390625,-2.9735984802246094,-0.40940847992897034,5.4931640625,3.6468505859375,7.7056884765625
1.8287499,9.090784072875977,-2.9496564865112305,-0.37828385829925537,5.4168701171875,3.5858154296875,7.9193115234375
1.8312499,9.105149269104004,-2.920926094055176,-0.3519476354122162,5.2032470703125,3.8299560546875,8.1329345703125
1.8337499,9.131484985351562,-2.8850131034851074,-0.3208230137825012,4.82177734375,3.692626953125,8.6212158203125
1.8362498999999999,9.165003776550293,-2.851494312286377,-0.2968810200691223,4.5623779296875,3.662109375,8.514404296875
1.8387499,9.20091724395752,-2.808398485183716,-0.27054479718208313,4.2724609375,3.5247802734375,8.4228515625
1.8412499,9.239224433898926,-2.784456491470337,-0.24899697303771973,4.0740966796875,3.84521484375,8.6517333984375
1.8437499,9.275136947631836,-2.760514497756958,-0.22505496442317963,3.8604736328125,3.9520263671875,8.6517333984375
1.8462498999999999,9.299078941345215,-2.75812029838562,-0.20111294090747833,3.5400390625,3.9825439453125,8.7127685546875
1.8487499,9.318233489990234,-2.760514497756958,-0.181959331035614,3.1890869140625,3.936767578125,8.7738037109375
1.8512499,9.327810287475586,-2.7772738933563232,-0.15562310814857483,2.74658203125,3.8299560546875,8.819580078125
1.8537499,9.346963882446289,-2.7988216876983643,-0.1412578970193863,2.2735595703125,3.7689208984375,8.5906982421875
1.8562499,9.363722801208496,-2.829946517944336,-0.12449848651885986,1.6632080078125,3.9520263671875,8.544921875
1.8587498999999998,9.3828763961792,-2.8634653091430664,-0.10534487664699554,1.373291015625,3.96728515625,8.48388671875
1.8612499,9.402029991149902,-2.9017724990844727,-0.08858546614646912,1.007080078125,4.0283203125,8.575439453125
1.8637499,9.418789863586426,-2.9305028915405273,-0.06224924325942993,0.885009765625,4.3487548828125,8.544921875
1.8662499,9.435548782348633,-2.96162748336792,-0.040701430290937424,0.518798828125,4.241943359375,8.7432861328125
1.8687498999999999,9.44991397857666,-2.985569477081299,-0.019153613597154617,0.1983642578125,4.2266845703125,8.7432861328125
1.8712499,9.464279174804688,-3.0095114707946777,-0.002394201699644327,-0.06103515625,4.425048828125,8.6212158203125
1.8737499,9.473855972290039,-3.023876667022705,0.009576806798577309,-0.335693359375,4.180908203125,8.514404296875
1.8762499,9.478644371032715,-3.0382418632507324,0.026336219161748886,-0.5035400390625,4.3487548828125,8.544921875
1.8787498999999999,9.478644371032715,-3.043030261993408,0.038307227194309235,-0.6561279296875,4.364013671875,8.392333984375
1.8812499,9.476250648498535,-3.045424461364746,0.05267243832349777,-0.640869140625,4.2266845703125,8.1024169921875
1.8837499,9.469067573547363,-3.043030261993408,0.05506663769483566,-0.2288818359375,4.150390625,8.1329345703125
1.8862499,9.464279174804688,-3.047818660736084,0.05506663769483566,-0.030517578125,4.1961669921875,7.7667236328125
1.8887498999999999,9.461885452270508,-3.0526070594787598,0.038307227194309235,0.335693359375,3.8909912109375,7.75146484375
1.8912499,9.459490776062012,-3.064578056335449,0.023942016065120697,0.67138671875,4.0130615234375,7.6141357421875
1.8937499,9.461885452270508,-3.0813376903533936,0,0.9765625,3.7841796875,7.3699951171875
1.8962499,9.464279174804688,-3.1004912853240967,-0.019153613597154617,1.434326171875,3.4332275390625,7.14111328125
1.8987498999999999,9.464279174804688,-3.1220390796661377,-0.031124621629714966,1.7547607421875,3.4942626953125,7.2021484375
1.9012499,9.459490776062012,-3.138798475265503,-0.0454898327589035,2.2430419921875,3.4027099609375,7.232666015625
1.9037499,9.454702377319336,-3.155557870864868,-0.05267243832349777,2.3956298828125,3.2196044921875,6.866455078125
1.9062499,9.44991397857666,-3.1699230670928955,-0.05746084079146385,2.7313232421875,2.899169921875,6.65283203125
1.9087498999999999,9.442731857299805,-3.181894063949585,-0.06224924325942993,3.570556640625,2.899169921875,6.65283203125
1.9112499,9.437943458557129,-3.1866824626922607,-0.0694318488240242,3.7689208984375,2.8228759765625,6.439208984375
1.9137499,9.430760383605957,-3.1914708614349365,-0.07422025501728058,4.058837890625,2.593994140625,6.256103515625
1.9162499,9.418789863586426,-3.201047658920288,-0.08140286058187485,4.5928955078125,2.4871826171875,6.1187744140625
1.9187499,9.409213066101074,-3.205836057662964,-0.08379705995321274,4.974365234375,2.1820068359375,5.8441162109375
1.9212498999999998,9.394847869873047,-3.222595453262329,-0.090979665517807,5.340576171875,2.0294189453125,5.340576171875
1.9237499,9.385271072387695,-3.2345664501190186,-0.09816227108240128,5.67626953125,1.8768310546875,4.9591064453125
1.9262499,9.378087997436523,-3.246537446975708,-0.1149216815829277,5.9661865234375,1.617431640625,4.6539306640625
1.9287499,9.366117477416992,-3.2585084438323975,-0.13168109953403473,6.4697265625,1.40380859375,4.608154296875
1.9312498999999999,9.35654067993164,-3.268085241317749,-0.14604631066322327,7.01904296875,1.2359619140625,4.0740966796875
1.9337499,9.344569206237793,-3.272873640060425,-0.15562310814857483,7.537841796875,1.2359619140625,3.7689208984375
1.9362499,9.32541561126709,-3.2800562381744385,-0.1628057211637497,8.1787109375,0.9765625,3.387451171875
1.9387499,9.313444137573242,-3.2848446369171143,-0.16759411990642548,8.5601806640625,0.7171630859375,3.0975341796875
1.9412498999999999,9.299078941345215,-3.2992098331451416,-0.17717093229293823,9.0484619140625,0.5035400390625,3.2196044921875
1.9437499,9.29189682006836,-3.318363666534424,-0.19393034279346466,9.5672607421875,0.3204345703125,2.9449462890625
1.9462499,9.29189682006836,-3.3423056602478027,-0.21547815203666687,10.0555419921875,0.2593994140625,2.593994140625
1.9487499,9.29189682006836,-3.361459255218506,-0.2346317619085312,10.772705078125,0.213623046875,2.4871826171875
1.9512498999999999,9.29189682006836,-3.380612850189209,-0.2537853717803955,11.04736328125,-0.0152587890625,2.3345947265625
1.9537499,9.289502143859863,-3.3854012489318848,-0.26096799969673157,11.383056640625,-0.30517578125,2.3956298828125
1.9562499,9.275136947631836,-3.3925838470458984,-0.26575639843940735,11.71875,-0.5950927734375,2.3956298828125
1.9587499,9.26795482635498,-3.3877954483032227,-0.26815059781074524,12.0849609375,-0.823974609375,2.197265625
1.9612498999999999,9.260771751403809,-3.378218650817871,-0.2801215946674347,12.451171875,-1.0986328125,2.166748046875
1.9637499,9.253589630126953,-3.3686418533325195,-0.29209262132644653,12.908935546875,-1.2054443359375,1.9378662109375
1.9662499,9.253589630126953,-3.35667085647583,-0.31124621629714966,13.12255859375,-1.5106201171875,1.861572265625
1.9687499,9.260771751403809,-3.3470940589904785,-0.3256114423274994,13.397216796875,-1.8157958984375,1.9073486328125
1.9712498999999999,9.272743225097656,-3.3423056602478027,-0.33518823981285095,13.48876953125,-2.0294189453125,1.5716552734375
1.9737499,9.29189682006836,-3.339911460876465,-0.3423708379268646,13.5955810546875,-2.0599365234375,1.5106201171875
1.9762499,9.313444137573242,-3.3279404640197754,-0.3495534360408783,13.8397216796875,-2.4871826171875,1.64794921875
1.9787499,9.334992408752441,-3.3207578659057617,-0.3519476354122162,14.0228271484375,-2.8839111328125,1.5716552734375
1.9812499,9.351752281188965,-3.31118106842041,-0.35434186458587646,13.8092041015625,-3.35693359375,1.5411376953125
1.9837499,9.373299598693848,-3.2992098331451416,-0.3495534360408783,13.8702392578125,-3.5400390625,1.40380859375
1.9862499,9.385271072387695,-3.287238836288452,-0.3471592366695404,13.7786865234375,-3.7384033203125,1.1444091796875
1.9887499,9.404424667358398,-3.268085241317749,-0.3423708379268646,13.519287109375,-3.631591796875,1.007080078125
1.9912499,9.411606788635254,-3.2393548488616943,-0.3447650372982025,13.48876953125,-3.9825439453125,0.946044921875
1.9937498999999999,9.423578262329102,-3.2106244564056396,-0.3495534360408783,13.2904052734375,-4.302978515625,0.7171630859375
1.9962499,9.437943458557129,-3.181894063949585,-0.363918662071228,12.7105712890625,-4.7149658203125,0.5035400390625
1.9987499,9.457097053527832,-3.1699230670928955,-0.3758896589279175,12.7105712890625,-4.974365234375,0.518798828125
2.0012499,9.481039047241211,-3.162740468978882,-0.38307225704193115,12.3138427734375,-5.0048828125,0.0762939453125
2.0037499,9.500192642211914,-3.162740468978882,-0.3878606855869293,11.8865966796875,-5.2490234375,-0.274658203125
2.0062499,9.516951560974121,-3.1699230670928955,-0.37828385829925537,11.5203857421875,-5.340576171875,-0.2593994140625
2.0087498999999998,9.531316757202148,-3.1723172664642334,-0.363918662071228,10.8795166015625,-5.5084228515625,-0.48828125
2.0112499,9.53849983215332,-3.1699230670928955,-0.3447650372982025,10.040283203125,-5.5999755859375,-0.7781982421875
2.0137499,9.543288230895996,-3.162740468978882,-0.3232172429561615,9.6893310546875,-5.67626953125,-0.7476806640625
2.0162499,9.550470352172852,-3.1483752727508545,-0.3016694188117981,8.880615234375,-5.889892578125,-1.251220703125
2.0187499,9.555258750915527,-3.136404275894165,-0.2849099934101105,7.9498291015625,-5.645751953125,-1.64794921875
2.0212499,9.557653427124023,-3.136404275894165,-0.26815059781074524,7.171630859375,-5.7220458984375,-1.9989013671875
2.0237499,9.560047149658203,-3.1459810733795166,-0.2537853717803955,6.3934326171875,-5.6304931640625,-2.44140625
2.0262499,9.560047149658203,-3.160346269607544,-0.24899697303771973,5.7525634765625,-5.4779052734375,-2.6702880859375
2.0287498999999998,9.548076629638672,-3.1675288677215576,-0.23942017555236816,5.8135986328125,-5.523681640625,-2.50244140625
2.0312499,9.533711433410645,-3.181894063949585,-0.2298433631658554,5.615234375,-5.55419921875,-2.5787353515625
2.0337499,9.516951560974121,-3.1890766620635986,-0.2322375625371933,4.45556640625,-5.4779052734375,-3.4332275390625
2.0362499,9.497797966003418,-3.224989652633667,-0.23702596127986908,3.7078857421875,-5.6610107421875,-3.204345703125
2.0387499,9.490615844726562,-3.2752678394317627,-0.26336219906806946,2.8076171875,-5.5084228515625,-3.2958984375
2.0412499,9.476250648498535,-3.339911460876465,-0.29209262132644653,1.9378662109375,-5.2490234375,-3.5858154296875
2.0437499,9.454702377319336,-3.4093432426452637,-0.3208230137825012,1.1138916015625,-4.8370361328125,-3.6468505859375
2.0462499,9.437943458557129,-3.4620156288146973,-0.3423708379268646,0.7476806640625,-4.8675537109375,-3.753662109375
2.0487499,9.404424667358398,-3.4979286193847656,-0.3519476354122162,0.640869140625,-4.7607421875,-3.2806396484375
2.0512498999999997,9.378087997436523,-3.5170822143554688,-0.35434186458587646,-0.2288818359375,-4.45556640625,-3.1890869140625
2.0537499,9.346963882446289,-3.5170822143554688,-0.3495534360408783,-1.4495849609375,-4.21142578125,-3.6468505859375
2.0562499,9.272743225097656,-3.507505416870117,-0.31364041566848755,-2.0751953125,-4.0283203125,-3.814697265625
2.0587499,9.272743225097656,-3.507505416870117,-0.31364041566848755,-2.0751953125,-4.0283203125,-3.814697265625
2.0612499,9.205705642700195,-3.5170822143554688,-0.2753331959247589,-2.593994140625,-3.6468505859375,-3.84521484375
2.0637499,9.205705642700195,-3.5170822143554688,-0.2753331959247589,-2.593994140625,-3.6468505859375,-3.84521484375
2.0662499,9.17936897277832,-3.5386300086975098,-0.26096799969673157,-3.4942626953125,-3.326416015625,-4.1046142578125
2.0687499,9.17936897277832,-3.5386300086975098,-0.26096799969673157,-3.4942626953125,-3.326416015625,-4.1046142578125
2.0712498999999998,9.153033256530762,-3.555389642715454,-0.26336219906806946,-3.72314453125,-2.716064453125,-4.1351318359375
2.0737499,9.153033256530762,-3.555389642715454,-0.26336219906806946,-3.72314453125,-2.716064453125,-4.1351318359375
2.0762499,9.083600997924805,-3.5721490383148193,-0.272938996553421,-4.8675537109375,-2.471923828125,-4.913330078125
2.0787499,9.083600997924805,-3.5721490383148193,-0.272938996553421,-4.8675537109375,-2.471923828125,-4.913330078125
2.0812499,9.035717010498047,-3.579331636428833,-0.2944868206977844,-4.5623779296875,-2.3345947265625,-5.3558349609375
2.0837499,9.035717010498047,-3.579331636428833,-0.2944868206977844,-4.5623779296875,-2.3345947265625,-5.3558349609375
2.0862499,9.059659004211426,-3.60566782951355,-0.29209262132644653,-4.7760009765625,-1.7242431640625,-5.279541015625
2.0887499,9.059659004211426,-3.60566782951355,-0.29209262132644653,-4.7760009765625,-1.7242431640625,-5.279541015625
2.0912498999999998,9.105149269104004,-3.6607344150543213,-0.22266076505184174,-5.0811767578125,-1.8157958984375,-6.0882568359375
2.0937499,9.105149269104004,-3.6607344150543213,-0.22266076505184174,-5.0811767578125,-1.8157958984375,-6.0882568359375
2.0962499,9.14345645904541,-3.6750996112823486,-0.14844051003456116,-5.340576171875,-2.62451171875,-6.2103271484375
2.0987499,9.14345645904541,-3.6750996112823486,-0.14844051003456116,-5.340576171875,-2.62451171875,-6.2103271484375
2.1012499,9.155426979064941,-3.624821424484253,-0.1412578970193863,-5.4931640625,-1.89208984375,-6.866455078125
2.1037499,9.155426979064941,-3.624821424484253,-0.1412578970193863,-5.4931640625,-1.89208984375,-6.866455078125
2.1062499,9.107542991638184,-3.5745432376861572,-0.16998831927776337,-4.638671875,-1.46484375,-6.2255859375
2.1087499,9.107542991638184,-3.5745432376861572,-0.16998831927776337,-4.638671875,-1.46484375,-6.2255859375
2.1112499,9.009381294250488,-3.5625722408294678,-0.21308395266532898,-6.011962890625,-0.274658203125,-7.537841796875
2.1137498999999997,9.009381294250488,-3.5625722408294678,-0.21308395266532898,-6.011962890625,-0.274658203125,-7.537841796875
2.1162499,8.927978515625,-3.5721490383148193,-0.26815059781074524,-5.2490234375,-1.2359619140625,-7.2784423828125
2.1187499,8.927978515625,-3.5721490383148193,-0.26815059781074524,-5.2490234375,-1.2359619140625,-7.2784423828125
2.1212499,8.925583839416504,-3.5673606395721436,-0.3208230137825012,-5.1116943359375,-0.91552734375,-6.8817138671875
2.1237499,8.925583839416504,-3.5673606395721436,-0.3208230137825012,-5.1116943359375,-0.91552734375,-6.8817138671875
2.1262499,8.96149730682373,-3.5434184074401855,-0.3663128614425659,-5.37109375,-0.1983642578125,-6.77490234375
2.1287499,8.96149730682373,-3.5434184074401855,-0.3663128614425659,-5.37109375,-0.1983642578125,-6.77490234375
2.1312499,8.96389102935791,-3.550601005554199,-0.40701428055763245,-5.31005859375,0.30517578125,-6.5765380859375
2.1337498999999998,8.96389102935791,-3.550601005554199,-0.40701428055763245,-5.31005859375,0.30517578125,-6.5765380859375
2.1362499,8.954314231872559,-3.5889084339141846,-0.42377370595932007,-5.37109375,0.701904296875,-5.9051513671875
2.1387499,8.954314231872559,-3.5889084339141846,-0.42377370595932007,-5.37109375,0.701904296875,-5.9051513671875
2.1412499,8.949525833129883,-3.643975019454956,-0.4213795065879822,-4.9285888671875,1.0833740234375,-5.5389404296875
2.1437499,8.949525833129883,-3.643975019454956,-0.4213795065879822,-4.9285888671875,1.0833740234375,-5.5389404296875
2.1462499,8.923190116882324,-3.6966474056243896,-0.42616790533065796,-4.4097900390625,1.6632080078125,-5.0506591796875
2.1487499,8.923190116882324,-3.6966474056243896,-0.42616790533065796,-4.4097900390625,1.6632080078125,-5.0506591796875
2.1512499,8.87291145324707,-3.7493197917938232,-0.4357447028160095,-4.1656494140625,2.7923583984375,-4.0435791015625
2.1537498999999998,8.87291145324707,-3.7493197917938232,-0.4357447028160095,-4.1656494140625,2.7923583984375,-4.0435791015625
2.1562499,8.81784439086914,-3.8067808151245117,-0.4165911078453064,-4.0283203125,2.8839111328125,-3.0517578125
2.1587499,8.81784439086914,-3.8067808151245117,-0.4165911078453064,-4.0283203125,2.8839111328125,-3.0517578125
2.1612499,8.793902397155762,-3.8379054069519043,-0.3758896589279175,-3.1585693359375,3.5858154296875,-1.9989013671875
2.1637499,8.793902397155762,-3.8379054069519043,-0.3758896589279175,-3.1585693359375,3.5858154296875,-1.9989013671875
2.1662499,8.801085472106934,-3.8067808151245117,-0.35913026332855225,-2.3193359375,4.119873046875,-1.2664794921875
2.1687499,8.801085472106934,-3.8067808151245117,-0.35913026332855225,-2.3193359375,4.119873046875,-1.2664794921875
2.1712499,8.83939266204834,-3.734954595565796,-0.3926490843296051,-1.28173828125,4.21142578125,0.030517578125
2.1737499,8.83939266204834,-3.734954595565796,-0.3926490843296051,-1.28173828125,4.21142578125,0.030517578125
2.1762499,8.87291145324707,-3.6750996112823486,-0.45010992884635925,-0.06103515625,5.126953125,1.03759765625
2.1787499,8.87291145324707,-3.6750996112823486,-0.45010992884635925,-0.06103515625,5.126953125,1.03759765625
2.1812499,8.882488250732422,-3.667917013168335,-0.49320554733276367,1.4495849609375,4.913330078125,2.6397705078125
2.1837499,8.882488250732422,-3.667917013168335,-0.49320554733276367,1.4495849609375,4.913330078125,2.6397705078125
2.1862499,8.918401718139648,-3.691859006881714,-0.5099649429321289,2.3040771484375,5.37109375,4.4097900390625
2.1887499,8.918401718139648,-3.691859006881714,-0.5099649429321289,2.3040771484375,5.37109375,4.4097900390625
2.1912499,8.98543930053711,-3.7181951999664307,-0.5003881454467773,3.3111572265625,5.645751953125,5.9814453125
2.1937499,8.98543930053711,-3.7181951999664307,-0.5003881454467773,3.3111572265625,5.645751953125,5.9814453125
2.1962498999999998,9.035717010498047,-3.734954595565796,-0.48602294921875,5.0048828125,4.8828125,7.965087890625
2.1987499,9.035717010498047,-3.734954595565796,-0.48602294921875,5.0048828125,4.8828125,7.965087890625
2.2012499,9.05487060546875,-3.6942532062530518,-0.49559974670410156,5.2947998046875,5.06591796875,9.521484375
2.2037499,9.05487060546875,-3.6942532062530518,-0.49559974670410156,5.2947998046875,5.06591796875,9.521484375
2.2062499,9.05247688293457,-3.581725835800171,-0.5099649429321289,5.0201416015625,4.69970703125,11.1083984375
2.2087499,9.05247688293457,-3.581725835800171,-0.5099649429321289,5.0201416015625,4.69970703125,11.1083984375
2.2112499,9.023746490478516,-3.4811692237854004,-0.5099649429321289,4.45556640625,4.82177734375,12.054443359375
2.2137499,9.023746490478516,-3.4811692237854004,-0.5099649429321289,4.45556640625,4.82177734375,12.054443359375
2.2162498999999998,9.011775016784668,-3.404554843902588,-0.49799394607543945,3.60107421875,4.8980712890625,13.0462646484375
2.2187499,9.011775016784668,-3.404554843902588,-0.49799394607543945,3.60107421875,4.8980712890625,13.0462646484375
2.2212499,9.08838939666748,-3.3423056602478027,-0.47884035110473633,2.3651123046875,4.669189453125,13.6566162109375
2.2237499,9.08838939666748,-3.3423056602478027,-0.47884035110473633,2.3651123046875,4.669189453125,13.6566162109375
2.2262499,9.205705642700195,-3.3518824577331543,-0.4836287498474121,1.800537109375,4.21142578125,13.427734375
2.2287499,9.205705642700195,-3.3518824577331543,-0.4836287498474121,1.800537109375,4.21142578125,13.427734375
2.2312499,9.26795482635498,-3.3877954483032227,-0.5363011956214905,-0.274658203125,4.180908203125,13.3056640625
2.2337499,9.265560150146484,-3.3925838470458984,-0.5674257874488831,-1.312255859375,4.2266845703125,13.3209228515625
2.2362499,9.246406555175781,-3.3877954483032227,-0.586579442024231,-2.166748046875,3.814697265625,13.5040283203125
2.2387499,9.222464561462402,-3.3877954483032227,-0.5985504388809204,-3.0517578125,3.8299560546875,13.2904052734375
2.2412499,9.208099365234375,-3.3949780464172363,-0.5961562395095825,-3.936767578125,3.7841796875,13.0767822265625
2.2437499,9.208099365234375,-3.4093432426452637,-0.5889736413955688,-4.7607421875,3.753662109375,12.8173828125
2.2462499,9.222464561462402,-3.421314239501953,-0.5770025849342346,-5.462646484375,3.5858154296875,12.3443603515625
2.2487499,9.251194953918457,-3.421314239501953,-0.5578489899635315,-6.1187744140625,3.5858154296875,11.8255615234375
2.2512499,9.279925346374512,-3.4093432426452637,-0.5434837937355042,-6.89697265625,3.4637451171875,11.5509033203125
2.2537499,9.306262016296387,-3.3949780464172363,-0.5267243981361389,-7.6751708984375,3.2958984375,10.9710693359375
2.2562499,9.327810287475586,-3.380612850189209,-0.5123591423034668,-8.60595703125,3.4027099609375,10.5438232421875
2.2587498999999998,9.344569206237793,-3.378218650817871,-0.49320554733276367,-9.46044921875,3.23486328125,10.19287109375
2.2612499,9.363722801208496,-3.3854012489318848,-0.4668693244457245,-9.979248046875,2.9754638671875,9.857177734375
2.2637499,9.38048267364502,-3.404554843902588,-0.42856210470199585,-10.6048583984375,3.204345703125,8.941650390625
2.2662499,9.397241592407227,-3.4332852363586426,-0.38307225704193115,-11.077880859375,3.3416748046875,8.4228515625
2.2687499,9.404424667358398,-3.464409828186035,-0.33518823981285095,-11.6424560546875,3.2196044921875,8.148193359375
2.2712499,9.409213066101074,-3.49314022064209,-0.2849099934101105,-12.237548828125,3.387451171875,7.6446533203125
2.2737499,9.406818389892578,-3.5194764137268066,-0.23702596127986908,-12.5579833984375,3.3721923828125,7.01904296875
2.2762499,9.402029991149902,-3.533841609954834,-0.19632454216480255,-12.8631591796875,3.5552978515625,6.561279296875
2.2787498999999998,9.39245319366455,-3.5410242080688477,-0.16759411990642548,-13.12255859375,4.0435791015625,6.256103515625
2.2812499,9.3828763961792,-3.5410242080688477,-0.14844051003456116,-13.519287109375,4.119873046875,5.889892578125
2.2837499,9.3828763961792,-3.5386300086975098,-0.13407529890537262,-13.5498046875,4.21142578125,5.584716796875
2.2862499,9.3828763961792,-3.533841609954834,-0.12689268589019775,-13.336181640625,4.45556640625,5.126953125
2.2887499,9.394847869873047,-3.5170822143554688,-0.11252748221158981,-13.1683349609375,4.57763671875,4.4708251953125
2.2912499,9.402029991149902,-3.488351821899414,-0.10055647045373917,-13.092041015625,4.5318603515625,4.1046142578125
2.2937499,9.406818389892578,-3.442862033843994,-0.08619125932455063,-12.6800537109375,4.6539306640625,3.9215087890625
2.2962499,9.418789863586426,-3.3925838470458984,-0.06224924325942993,-12.176513671875,4.608154296875,3.5400390625
2.2987499,9.430760383605957,-3.3470940589904785,-0.035913024097681046,-11.6119384765625,4.8065185546875,3.1280517578125
2.3012499,9.44752025604248,-3.31118106842041,-0.002394201699644327,-11.1541748046875,4.9285888671875,2.5634765625
2.3037499,9.459490776062012,-3.287238836288452,0.028730420395731926,-10.650634765625,5.43212890625,2.01416015625
2.3062499,9.461885452270508,-3.272873640060425,0.05746084079146385,-9.8724365234375,5.6304931640625,1.77001953125
2.3087499,9.457097053527832,-3.2776620388031006,0.08379705995321274,-8.9874267578125,5.889892578125,1.678466796875
2.3112499,9.44752025604248,-3.294421434402466,0.11013327538967133,-8.209228515625,6.195068359375,1.6326904296875
2.3137499,9.442731857299805,-3.3255462646484375,0.13407529890537262,-7.3394775390625,6.2713623046875,1.556396484375
2.3162499,9.440337181091309,-3.35667085647583,0.15322890877723694,-6.561279296875,6.28662109375,1.6021728515625
2.3187499,9.445125579833984,-3.375824451446533,0.17238251864910126,-5.828857421875,6.4239501953125,1.739501953125
2.3212498999999998,9.457097053527832,-3.380612850189209,0.17956513166427612,-5.157470703125,6.5765380859375,1.8463134765625
2.3237499,9.469067573547363,-3.3638534545898438,0.19153612852096558,-4.6539306640625,6.8206787109375,1.9683837890625
2.3262499,9.481039047241211,-3.3303346633911133,0.2059013396501541,-4.0435791015625,6.805419921875,1.9683837890625
2.3287499,9.48343276977539,-3.287238836288452,0.22505496442317963,-3.35693359375,6.9122314453125,1.9989013671875
2.3312499,9.476250648498535,-3.2417490482330322,0.24420857429504395,-2.6702880859375,7.01904296875,1.9073486328125
2.3337499,9.466673851013184,-3.201047658920288,0.2537853717803955,-1.8768310546875,7.0648193359375,1.953125
2.3362499,9.454702377319336,-3.162740468978882,0.2585737705230713,-1.0223388671875,6.988525390625,1.9989013671875
2.3387499,9.445125579833984,-3.136404275894165,0.24899697303771973,-0.4425048828125,7.171630859375,1.861572265625
2.3412498999999998,9.442731857299805,-3.1100680828094482,0.2298433631658554,0.1983642578125,6.9732666015625,2.0751953125
2.3437499,9.440337181091309,-3.098097085952759,0.20111294090747833,0.518798828125,6.9732666015625,1.9683837890625
2.3462499,9.440337181091309,-3.0885202884674072,0.17238251864910126,0.9002685546875,6.9427490234375,1.89208984375
2.3487499,9.433155059814453,-3.095702886581421,0.1412578970193863,1.1749267578125,6.8206787109375,1.9378662109375
2.3512499,9.421183586120605,-3.098097085952759,0.11971008777618408,1.8768310546875,6.439208984375,2.0904541015625
2.3537499,9.409213066101074,-3.112462282180786,0.11252748221158981,2.0599365234375,6.34765625,2.25830078125
2.3562499,9.394847869873047,-3.1220390796661377,0.1149216815829277,2.227783203125,6.0577392578125,2.25830078125
2.3587499,9.378087997436523,-3.1244332790374756,0.12689268589019775,2.50244140625,5.6915283203125,2.2125244140625
2.3612499,9.361329078674316,-3.117250680923462,0.1412578970193863,2.1820068359375,5.4779052734375,1.983642578125
2.3637499,9.337387084960938,-3.098097085952759,0.15083470940589905,2.3345947265625,5.0811767578125,2.1514892578125
2.3662499,9.306262016296387,-3.07415509223938,0.15562310814857483,2.716064453125,4.6234130859375,2.1209716796875
2.3687499,9.279925346374512,-3.0526070594787598,0.15801730751991272,2.3651123046875,4.241943359375,2.01416015625
2.3712499,9.258378028869629,-3.0406360626220703,0.15801730751991272,2.288818359375,3.8299560546875,1.89208984375
2.3737499,9.244012832641602,-3.0406360626220703,0.15083470940589905,2.166748046875,3.5247802734375,1.64794921875
2.3762499,9.241618156433105,-3.045424461364746,0.1412578970193863,1.9378662109375,3.1890869140625,1.4495849609375
2.3787499,9.239224433898926,-3.0526070594787598,0.12689268589019775,1.678466796875,2.8076171875,1.190185546875
2.3812499,9.232041358947754,-3.0550012588500977,0.11971008777618408,1.617431640625,2.471923828125,0.8544921875
2.3837498999999998,9.220070838928223,-3.0573954582214355,0.1173158809542656,1.068115234375,2.0599365234375,0.2899169921875
2.3862499,9.2033109664917,-3.0550012588500977,0.11971008777618408,0.8087158203125,1.52587890625,-0.1373291015625
2.3887499,9.188945770263672,-3.0526070594787598,0.12689268589019775,0.4425048828125,1.1138916015625,-0.640869140625
2.3912499,9.186552047729492,-3.050212860107422,0.12689268589019775,0.3662109375,0.7476806640625,-1.1749267578125
2.3937499,9.184157371520996,-3.0526070594787598,0.12689268589019775,0.1068115234375,0.5035400390625,-1.6632080078125
2.3962499,9.196128845214844,-3.0597896575927734,0.13407529890537262,-0.091552734375,0.1373291015625,-2.1209716796875
2.3987499,9.210494041442871,-3.07415509223938,0.1388636976480484,-0.1220703125,-0.274658203125,-2.7008056640625
2.4012499,9.220070838928223,-3.098097085952759,0.15322890877723694,-0.152587890625,-0.6103515625,-3.173828125
2.4037498999999998,9.229647636413574,-3.134010076522827,0.16759411990642548,-0.2288818359375,-0.9002685546875,-3.7841796875
2.4062499,9.229647636413574,-3.179499864578247,0.181959331035614,-0.3509521484375,-1.28173828125,-4.150390625
2.4087499,9.229647636413574,-3.2369606494903564,0.19871874153614044,-0.2899169921875,-1.4495849609375,-4.425048828125
2.4112499,9.224859237670898,-3.2968156337738037,0.21308395266532898,-0.732421875,-1.7852783203125,-4.5928955078125
2.4137499,9.222464561462402,-3.35667085647583,0.2322375625371933,-0.5645751953125,-2.0904541015625,-4.9285888671875
2.4162499,9.217676162719727,-3.399766445159912,0.2561795711517334,-0.54931640625,-1.953125,-5.3558349609375
2.4187499,9.220070838928223,-3.4308910369873047,0.2753331959247589,-0.579833984375,-2.1820068359375,-5.3558349609375
2.4212499,9.224859237670898,-3.4404678344726562,0.2992752194404602,-0.274658203125,-2.288818359375,-5.4931640625
2.4237499,9.23443603515625,-3.4332852363586426,0.31124621629714966,0.18310546875,-2.38037109375,-5.767822265625
2.4262499,9.248801231384277,-3.423708438873291,0.31603461503982544,0.7476806640625,-2.6397705078125,-5.859375
2.4287499,9.263166427612305,-3.4117374420166016,0.2992752194404602,1.5411376953125,-2.74658203125,-5.7373046875
2.4312499,9.284713745117188,-3.4141316413879395,0.272938996553421,2.25830078125,-2.899169921875,-6.1492919921875
2.4337499,9.306262016296387,-3.4308910369873047,0.2346317619085312,2.7923583984375,-2.7618408203125,-6.1798095703125
2.4362499,9.332598686218262,-3.4548330307006836,0.19632454216480255,3.5400390625,-2.9144287109375,-6.256103515625
2.4387499,9.349357604980469,-3.488351821899414,0.1604115068912506,4.1961669921875,-2.9449462890625,-6.195068359375
2.4412499,9.35893440246582,-3.5170822143554688,0.13168109953403473,5.0811767578125,-3.1280517578125,-6.1492919921875
2.4437499,9.361329078674316,-3.5410242080688477,0.10295066982507706,5.5999755859375,-3.1585693359375,-6.0577392578125
2.4462498999999998,9.349357604980469,-3.550601005554199,0.08140286058187485,6.2408447265625,-3.0670166015625,-5.767822265625
2.4487499,9.334992408752441,-3.5482068061828613,0.05985504388809204,7.1258544921875,-3.173828125,-5.7220458984375
2.4512499,9.315838813781738,-3.536235809326172,0.043095629662275314,7.965087890625,-3.0059814453125,-5.5999755859375
2.4537499,9.294290542602539,-3.5194764137268066,0.026336219161748886,8.8653564453125,-3.021240234375,-5.2947998046875
2.4562499,9.26795482635498,-3.5051112174987793,0.014365210197865963,9.6893310546875,-3.0975341796875,-5.0811767578125
2.4587499,9.23443603515625,-3.488351821899414,0.0071826050989329815,10.3302001953125,-3.2806396484375,-4.94384765625
2.4612499,9.210494041442871,-3.464409828186035,0.004788403399288654,11.04736328125,-3.4027099609375,-4.7149658203125
2.4637499,9.193734169006348,-3.4308910369873047,0.002394201699644327,11.810302734375,-3.509521484375,-4.608154296875
2.4662498999999998,9.198522567749023,-3.3901896476745605,-0.002394201699644327,12.2833251953125,-3.448486328125,-4.21142578125
2.4687499,9.224859237670898,-3.3446998596191406,-0.014365210197865963,12.420654296875,-3.4027099609375,-3.7994384765625
2.4712499,9.263166427612305,-3.308786630630493,-0.035913024097681046,12.6495361328125,-3.2958984375,-3.6468505859375
2.4737499,9.306262016296387,-3.2776620388031006,-0.05985504388809204,12.6953125,-3.2806396484375,-3.509521484375
2.4762499,9.337387084960938,-3.2537200450897217,-0.08619125932455063,12.9241943359375,-3.204345703125,-3.4027099609375
2.4787499,9.351752281188965,-3.2321722507476807,-0.10534487664699554,12.847900390625,-3.082275390625,-3.2501220703125
2.4812499,9.344569206237793,-3.2178070545196533,-0.11971008777618408,12.847900390625,-3.265380859375,-3.143310546875
2.4837499,9.330204010009766,-3.203441858291626,-0.12928688526153564,12.6953125,-3.2806396484375,-2.86865234375
2.4862499,9.311050415039062,-3.1938650608062744,-0.12449848651885986,12.4969482421875,-2.9144287109375,-2.960205078125
2.4887499,9.301473617553711,-3.1890766620635986,-0.1173158809542656,12.420654296875,-2.8839111328125,-2.8076171875
2.4912499,9.306262016296387,-3.179499864578247,-0.09816227108240128,12.39013671875,-2.899169921875,-2.8228759765625
2.4937499,9.320627212524414,-3.1747114658355713,-0.08379705995321274,12.054443359375,-3.2501220703125,-2.9449462890625
2.4962499,9.339780807495117,-3.157952070236206,-0.05267243832349777,11.71875,-2.8228759765625,-3.0364990234375
2.4987499,9.363722801208496,-3.134010076522827,-0.023942016065120697,11.260986328125,-2.349853515625,-3.0517578125
2.5012499,9.387664794921875,-3.1076738834381104,-0.004788403399288654,10.43701171875,-2.5482177734375,-3.35693359375
2.5037499,9.411606788635254,-3.069366693496704,0.009576806798577309,10.3302001953125,-2.593994140625,-3.448486328125
2.5062499,9.437943458557129,-3.0358476638793945,0.004788403399288654,9.6588134765625,-2.3040771484375,-3.448486328125
2.5087498999999998,9.454702377319336,-3.0166940689086914,-0.016759412363171577,8.8348388671875,-2.25830078125,-3.7384033203125
2.5112499,9.459490776062012,-3.0095114707946777,-0.035913024097681046,8.331298828125,-2.227783203125,-3.90625
2.5137499,9.459490776062012,-3.0310592651367188,-0.05027823522686958,7.6141357421875,-2.13623046875,-4.3182373046875
2.5162499,9.452308654785156,-3.0621838569641113,-0.06464344263076782,7.1563720703125,-2.2125244140625,-4.425048828125
2.5187499,9.44752025604248,-3.1004912853240967,-0.06464344263076782,6.6986083984375,-2.50244140625,-4.4097900390625
2.5212499,9.442731857299805,-3.134010076522827,-0.07422025501728058,5.950927734375,-2.471923828125,-4.7454833984375
2.5237499,9.442731857299805,-3.1651346683502197,-0.07422025501728058,5.462646484375,-2.197265625,-4.9285888671875
2.5262499,9.442731857299805,-3.1962592601776123,-0.07661445438861847,5.06591796875,-2.0904541015625,-5.0048828125
2.5287498999999998,9.433155059814453,-3.2297780513763428,-0.07900865375995636,4.241943359375,-1.9378662109375,-5.1727294921875
2.5312499,9.425971984863281,-3.270479440689087,-0.07422025501728058,3.47900390625,-2.044677734375,-5.0811767578125
2.5337499,9.406818389892578,-3.308786630630493,-0.07182604819536209,3.3111572265625,-1.9989013671875,-4.94384765625
2.5362499,9.390059471130371,-3.3446998596191406,-0.06703764945268631,2.7313232421875,-1.922607421875,-5.096435546875
2.5387499,9.373299598693848,-3.378218650817871,-0.06703764945268631,2.1820068359375,-1.800537109375,-5.1422119140625
2.5412499,9.354146003723145,-3.404554843902588,-0.07182604819536209,1.983642578125,-1.6021728515625,-4.9896240234375
2.5437499,9.339780807495117,-3.4356794357299805,-0.08379705995321274,1.28173828125,-1.6021728515625,-5.3253173828125
2.5462499,9.32302188873291,-3.464409828186035,-0.10055647045373917,0.9765625,-1.77001953125,-5.096435546875
2.5487499,9.308655738830566,-3.4979286193847656,-0.12210428714752197,1.068115234375,-1.8768310546875,-4.94384765625
