# Time (seconds),Accel_X,Accel_Y,Accel_Z,Gyro_X,Gyro_Y,Gyro_Z
0.0012499,-0.4189853072166443,-7.017405033111572,8.17141056060791,31.3720703125,21.3165283203125,-12.4359130859375
0.0037499,-0.4165911078453064,-6.892906665802002,8.176198959350586,34.6832275390625,23.9105224609375,-10.9710693359375
0.0062499,-0.5027823448181152,-6.696582317352295,8.202534675598145,37.5823974609375,25.634765625,-10.0555419921875
0.0087499,-0.6560112833976746,-6.399701118469238,8.269572257995605,39.55078125,26.5350341796875,-9.4146728515625
0.0112499,-0.8619126081466675,-6.030993938446045,8.389283180236816,40.5426025390625,26.885986328125,-8.72802734375
0.0137499,-1.0342950820922852,-5.592854976654053,8.542511940002441,40.2374267578125,26.214599609375,-8.30078125
0.016249899999999998,-1.1061211824417114,-5.099649429321289,8.700529098510742,39.8101806640625,24.017333984375,-8.11767578125
0.0187499,-0.9672574996948242,-4.568136692047119,8.851364135742188,37.811279296875,21.636962890625,-8.1939697265625
0.021249900000000002,-0.6727706789970398,-4.065354347229004,8.951920509338379,34.1339111328125,19.989013671875,-8.5296630859375
0.023749899999999997,-0.15801730751991272,-3.620033025741577,9.050082206726074,30.0750732421875,18.37158203125,-8.9111328125
0.0262499,0.3998316824436188,-3.3207578659057617,9.0859956741333,25.146484375,16.082763671875,-9.185791015625
0.028749900000000002,1.0127472877502441,-3.090914487838745,9.074024200439453,22.0184326171875,14.617919921875,-10.6964111328125
0.031249899999999997,1.4891934394836426,-2.96162748336792,8.966285705566406,20.0653076171875,14.0838623046875,-13.0462646484375
0.0337499,1.7980455160140991,-2.846705913543701,8.777143478393555,15.5029296875,13.0615234375,-14.6484375
0.0362499,1.968033790588379,-2.8658595085144043,8.530540466308594,8.6822509765625,11.4288330078125,-15.7623291015625
0.0387499,1.922544002532959,-2.918531894683838,8.274360656738281,3.6773681640625,8.2855224609375,-17.3797607421875
0.0412499,1.7764976024627686,-3.179499864578247,8.04691219329834,-1.8310546875,6.4697265625,-17.7764892578125
0.0437499,1.525106430053711,-3.485957622528076,7.857769966125488,-6.8359375,5.2947998046875,-18.6004638671875
0.0462499,1.1635819673538208,-3.9480385780334473,7.7213006019592285,-10.162353515625,3.4637451171875,-19.744873046875
0.0487499,0.8355764150619507,-4.467580318450928,7.618350028991699,-14.007568359375,0.7781982421875,-20.1263427734375
0.0512499,0.5913678407669067,-5.051765441894531,7.560888767242432,-15.5029296875,-1.9378662109375,-20.99609375
0.053749899999999996,0.4620809257030487,-5.671864032745361,7.5201873779296875,-18.98193359375,-3.7078857421875,-20.1873779296875
0.0562499,0.4836287498474121,-6.270414352416992,7.479485988616943,-20.904541015625,-4.1961669921875,-19.5465087890625
0.0587499,0.5363011956214905,-6.818686485290527,7.424419403076172,-21.8505859375,-5.279541015625,-18.7225341796875
0.061249899999999996,0.6200982332229614,-7.280767440795898,7.338228225708008,-23.13232421875,-5.5084228515625,-18.49365234375
0.0637499,0.7422025203704834,-7.65186882019043,7.225700855255127,-23.773193359375,-5.18798828125,-18.707275390625
0.0662499,0.8307880163192749,-7.929595947265625,7.096413612365723,-24.8870849609375,-4.94384765625,-17.6544189453125
0.0687499,0.8810662031173706,-8.169015884399414,6.993463039398193,-25.848388671875,-3.5552978515625,-16.66259765625
0.0712499,0.950498104095459,-8.389283180236816,6.926425457000732,-26.153564453125,-2.532958984375,-15.4571533203125
0.0737499,0.9433154463768005,-8.592789649963379,6.878541469573975,-26.153564453125,-1.068115234375,-14.58740234375
0.0762499,0.9648633003234863,-8.815450668334961,6.878541469573975,-27.4810791015625,0.5950927734375,-13.4429931640625
0.0787499,1.0342950820922852,-9.023746490478516,6.916848659515381,-28.38134765625,1.89208984375,-11.932373046875
0.0812499,1.0821791887283325,-9.205705642700195,6.955155849456787,-28.0609130859375,3.41796875,-11.138916015625
0.0837499,1.0797849893569946,-9.351752281188965,7.058106422424316,-26.9775390625,6.7138671875,-10.772705078125
0.0862499,0.9217676520347595,-9.394847869873047,7.173028469085693,-27.008056640625,10.3759765625,-10.2996826171875
0.0887499,0.5267243981361389,-9.375694274902344,7.311892032623291,-25.87890625,12.481689453125,-10.2081298828125
0.0912499,-0.05746084079146385,-9.29189682006836,7.4770917892456055,-25.177001953125,12.8173828125,-9.21630859375
0.0937499,-0.7613561153411865,-9.14585018157959,7.644686222076416,-25.45166015625,11.474609375,-7.598876953125
0.0962499,-1.4413094520568848,-8.954314231872559,7.797914981842041,-25.3143310546875,9.735107421875,-6.317138671875
0.0987499,-1.9608511924743652,-8.686163902282715,7.931990146636963,-24.8870849609375,6.77490234375,-5.3558349609375
0.1012499,-2.3271639347076416,-8.322244644165039,8.032546997070312,-24.322509765625,2.99072265625,-4.39453125
0.1037499,-2.5091233253479004,-7.955932140350342,8.1139497756958,-24.3682861328125,0.579833984375,-3.4027099609375
0.1062499,-2.540247917175293,-7.565677165985107,8.219294548034668,-24.2462158203125,-3.3111572265625,-2.838134765625
0.1087499,-2.516305923461914,-7.29034423828125,8.334216117858887,-23.101806640625,-7.781982421875,-2.1820068359375
0.1112499,-2.410961151123047,-7.0772600173950195,8.49941635131836,-21.5606689453125,-11.5814208984375,-0.7171630859375
0.1137499,-2.3032219409942627,-6.938396453857422,8.65743350982666,-18.7225341796875,-15.6402587890625,0.1678466796875
0.1162499,-2.140416383743286,-6.801927089691162,8.791508674621582,-16.845703125,-19.6533203125,1.5411376953125
0.1187499,-2.0159177780151367,-6.62236213684082,8.87051773071289,-14.09912109375,-23.223876953125,1.7852783203125
0.1212499,-1.8195933103561401,-6.44279670715332,8.87051773071289,-13.885498046875,-26.18408203125,2.9449462890625
0.1237499,-1.702277421951294,-6.191405773162842,8.829815864562988,-13.5955810546875,-29.2816162109375,3.4942626953125
0.1262499,-1.6184803247451782,-6.045359134674072,8.710105895996094,-13.73291015625,-31.6619873046875,3.753662109375
0.1287499,-1.5634137392044067,-5.9088897705078125,8.564059257507324,-13.885498046875,-34.3017578125,4.3792724609375
0.1312499,-1.4963760375976562,-5.861005783081055,8.374917984008789,-13.1378173828125,-36.8499755859375,3.662109375
0.1337499,-1.3886369466781616,-5.894524574279785,8.125920295715332,-13.885498046875,-38.2232666015625,3.5247802734375
0.1362499,-1.2018892765045166,-5.95677375793457,7.886500358581543,-14.16015625,-39.794921875,4.3792724609375
0.1387499,-0.993593692779541,-6.107608318328857,7.608773231506348,-13.9007568359375,-40.71044921875,4.7149658203125
0.1412499,-0.7757213711738586,-6.3063273429870605,7.357381820678711,-13.824462890625,-42.0684814453125,5.06591796875
0.1437499,-0.5937620401382446,-6.5696892738342285,7.146692276000977,-14.16015625,-43.0145263671875,6.2103271484375
0.1462499,-0.3974374830722809,-6.861782073974609,6.9695210456848145,-13.9617919921875,-44.00634765625,7.4005126953125
0.1487499,-0.272938996553421,-7.151480674743652,6.830657482147217,-12.1307373046875,-45.318603515625,7.8887939453125
0.1512499,-0.20111294090747833,-7.429207801818848,6.701370716094971,-12.0391845703125,-45.9747314453125,9.2315673828125
0.1537499,-0.19393034279346466,-7.666234016418457,6.572083473205566,-11.8865966796875,-47.30224609375,11.077880859375
0.1562499,-0.31124621629714966,-7.931990146636963,6.423643112182617,-11.077880859375,-48.980712890625,12.39013671875
0.1587499,-0.5147533416748047,-8.209717750549316,6.282385349273682,-10.8489990234375,-50.3082275390625,14.22119140625
0.1612499,-0.7374141216278076,-8.513781547546387,6.186617374420166,-9.3231201171875,-52.5054931640625,16.1895751953125
0.1637499,-0.9026140570640564,-8.825027465820312,6.160281181335449,-7.32421875,-54.3670654296875,17.27294921875
0.1662499,-0.8786720037460327,-9.038111686706543,6.224924564361572,-5.4931640625,-55.694580078125,18.0511474609375
0.1687499,-0.7469909191131592,-9.14345645904541,6.375759124755859,-3.8909912109375,-56.33544921875,19.0277099609375
0.1712499,-0.5315127968788147,-9.165003776550293,6.598419666290283,-3.8604736328125,-54.9163818359375,20.9503173828125
0.1737499,-0.3256114423274994,-9.02135181427002,6.835445880889893,-2.38037109375,-54.3212890625,22.2625732421875
0.17624990000000001,-0.1843535304069519,-8.865729331970215,7.110779285430908,-0.9918212890625,-54.595947265625,22.613525390625
0.1787499,-0.014365210197865963,-8.628703117370605,7.374141216278076,-2.0751953125,-53.863525390625,24.0478515625
0.1812499,0.15083470940589905,-8.31985092163086,7.661445617675781,-3.0670166015625,-52.520751953125,24.3377685546875
0.1837499,0.4189853072166443,-8.010998725891113,7.982268333435059,-5.0811767578125,-49.7894287109375,24.688720703125
0.1862499,0.7398083209991455,-7.577648162841797,8.334216117858887,-6.683349609375,-46.93603515625,24.139404296875
0.1887499,1.048660397529602,-7.146692276000977,8.683769226074219,-9.0484619140625,-42.572021484375,22.8424072265625
0.1912499,1.3479355573654175,-6.682217121124268,9.062053680419922,-12.8326416015625,-37.41455078125,22.27783203125
0.1937499,1.5179238319396973,-6.251260757446289,9.390059471130371,-15.19775390625,-33.966064453125,20.843505859375
0.1962499,1.5634137392044067,-5.899312973022461,9.682151794433594,-17.6239013671875,-30.3802490234375,19.195556640625
0.1987499,1.4676456451416016,-5.60722017288208,9.916783332824707,-20.7977294921875,-27.099609375,17.822265625
0.2012499,1.2832920551300049,-5.394136428833008,10.08198356628418,-23.162841796875,-24.383544921875,16.17431640625
0.2037499,1.0414776802062988,-5.260061264038086,10.156203269958496,-25.146484375,-22.5830078125,14.2364501953125
0.2062499,0.5315127968788147,-5.202600479125977,10.146626472473145,-28.350830078125,-19.6685791015625,12.0849609375
0.20874990000000002,0.5315127968788147,-5.202600479125977,10.146626472473145,-28.350830078125,-19.6685791015625,12.0849609375
0.2112499,0.181959331035614,-5.329493045806885,9.967061996459961,-29.388427734375,-18.5394287109375,9.5367431640625
0.2137499,0.181959331035614,-5.329493045806885,9.967061996459961,-29.388427734375,-18.5394287109375,9.5367431640625
0.2162499,0.035913024097681046,-5.48272180557251,9.6989107131958,-28.62548828125,-18.463134765625,8.148193359375
0.2187499,0.035913024097681046,-5.48272180557251,9.6989107131958,-28.62548828125,-18.463134765625,8.148193359375
0.2212499,0.05985504388809204,-5.578489780426025,9.354146003723145,-26.4434814453125,-18.2952880859375,6.134033203125
0.2237499,0.05985504388809204,-5.578489780426025,9.354146003723145,-26.4434814453125,-18.2952880859375,6.134033203125
0.2262499,0.11252748221158981,-5.686229228973389,8.944737434387207,-22.7813720703125,-18.2342529296875,5.0048828125
0.2287499,0.11252748221158981,-5.686229228973389,8.944737434387207,-22.7813720703125,-18.2342529296875,5.0048828125
0.2312499,0.1412578970193863,-5.8203043937683105,8.516175270080566,-19.378662109375,-19.287109375,4.150390625
0.2337499,0.1412578970193863,-5.8203043937683105,8.516175270080566,-19.378662109375,-19.287109375,4.150390625
0.2362499,0.17717093229293823,-5.932831764221191,8.216899871826172,-16.1285400390625,-19.8822021484375,3.753662109375
0.23874990000000001,0.17717093229293823,-5.932831764221191,8.216899871826172,-16.1285400390625,-19.8822021484375,3.753662109375
0.2412499,0.19632454216480255,-6.033388137817383,8.085219383239746,-13.8702392578125,-20.5535888671875,3.7841796875
0.2437499,0.19632454216480255,-6.033388137817383,8.085219383239746,-13.8702392578125,-20.5535888671875,3.7841796875
0.2462499,0.08140286058187485,-6.071695327758789,7.94635534286499,-11.77978515625,-22.0489501953125,4.0283203125
0.2487499,0.08140286058187485,-6.071695327758789,7.94635534286499,-11.77978515625,-22.0489501953125,4.0283203125
0.2512499,-0.2944868206977844,-6.09324312210083,7.7428483963012695,-11.5814208984375,-24.7344970703125,5.0048828125
0.25374990000000003,-0.2944868206977844,-6.09324312210083,7.7428483963012695,-11.5814208984375,-24.7344970703125,5.0048828125
0.25624990000000003,-0.6488286852836609,-6.114790916442871,7.457938194274902,-11.6424560546875,-27.3284912109375,5.5694580078125
0.25874990000000003,-0.6488286852836609,-6.114790916442871,7.457938194274902,-11.6424560546875,-27.3284912109375,5.5694580078125
0.26124990000000003,-0.7972691655158997,-6.260837554931641,7.259219646453857,-13.48876953125,-29.9835205078125,7.8125
0.26374990000000004,-0.7972691655158997,-6.260837554931641,7.259219646453857,-13.48876953125,-29.9835205078125,7.8125
0.26624990000000004,-0.8523358106613159,-6.6391215324401855,7.331045627593994,-14.801025390625,-30.6243896484375,9.9029541015625
0.26874990000000004,-0.8523358106613159,-6.6391215324401855,7.331045627593994,-14.801025390625,-30.6243896484375,9.9029541015625
0.27124990000000004,-0.7876923680305481,-7.089231014251709,7.467514991760254,-15.80810546875,-31.7840576171875,12.5579833984375
0.27374990000000005,-0.7876923680305481,-7.089231014251709,7.467514991760254,-15.80810546875,-31.7840576171875,12.5579833984375
0.27624990000000005,-0.8427590131759644,-7.6111674308776855,7.445967197418213,-16.3116455078125,-32.012939453125,16.7999267578125
0.27874990000000005,-0.8427590131759644,-7.6111674308776855,7.445967197418213,-16.3116455078125,-32.012939453125,16.7999267578125
0.28124990000000005,-0.8092401623725891,-8.015787124633789,7.273584842681885,-12.7105712890625,-34.66796875,18.1121826171875
0.28374990000000005,-0.8092401623725891,-8.015787124633789,7.273584842681885,-12.7105712890625,-34.66796875,18.1121826171875
0.28624990000000006,-0.31603461503982544,-8.142680168151855,7.184999465942383,-10.9100341796875,-33.721923828125,19.6380615234375
0.28874990000000006,-0.31603461503982544,-8.142680168151855,7.184999465942383,-10.9100341796875,-33.721923828125,19.6380615234375
0.2912499,0.5506663918495178,-7.951143741607666,7.340622425079346,-7.1563720703125,-30.70068359375,19.287109375
0.2937499,0.5506663918495178,-7.951143741607666,7.340622425079346,-7.1563720703125,-30.70068359375,19.287109375
0.2962499,1.5634137392044067,-7.3023152351379395,7.613561630249023,-7.3699951171875,-24.4598388671875,16.5557861328125
0.2987499,1.5634137392044067,-7.3023152351379395,7.613561630249023,-7.3699951171875,-24.4598388671875,16.5557861328125
0.3012499,2.140416383743286,-6.502651691436768,7.817068576812744,-8.026123046875,-17.63916015625,14.8162841796875
0.3037499,2.140416383743286,-6.502651691436768,7.817068576812744,-8.026123046875,-17.63916015625,14.8162841796875
0.3062499,2.0590133666992188,-5.805939197540283,7.793126583099365,-10.650634765625,-12.0849609375,10.772705078125
0.3087499,2.0590133666992188,-5.805939197540283,7.793126583099365,-10.650634765625,-12.0849609375,10.772705078125
0.3112499,1.5729905366897583,-5.430049419403076,7.625532627105713,-14.556884765625,-9.5672607421875,8.5296630859375
0.3137499,1.5729905366897583,-5.430049419403076,7.625532627105713,-14.556884765625,-9.5672607421875,8.5296630859375
0.31624990000000003,0.9792284965515137,-5.410895824432373,7.489062786102295,-15.899658203125,-7.9803466796875,4.791259765625
0.31874990000000003,0.6655880808830261,-5.489904403686523,7.438784599304199,-17.3797607421875,-7.62939453125,3.631591796875
0.32124990000000003,0.3471592366695404,-5.600037574768066,7.393294811248779,-17.9443359375,-8.8958740234375,3.11279296875
0.32374990000000003,0.0454898327589035,-5.722142219543457,7.364564418792725,-18.00537109375,-10.25390625,1.8768310546875
0.32624990000000004,-0.20350714027881622,-5.803544998168945,7.33583402633667,-18.402099609375,-11.2152099609375,0.7476806640625
0.32874990000000004,-0.4213795065879822,-5.841852188110352,7.295132637023926,-19.317626953125,-12.359619140625,0.1068115234375
0.33124990000000004,-0.6272808313369751,-5.849034786224365,7.254431247711182,-19.9737548828125,-13.7786865234375,-0.152587890625
0.33374990000000004,-0.8307880163192749,-5.849034786224365,7.187393665313721,-20.2789306640625,-15.2740478515625,-0.7171630859375
0.33624990000000005,-0.9840168952941895,-5.853823184967041,7.103596210479736,-20.3704833984375,-17.2882080078125,-1.1749267578125
0.33874990000000005,-1.1061211824417114,-5.872976779937744,7.01979923248291,-21.3165283203125,-18.9208984375,-1.2359619140625
0.34124990000000005,-1.158793568611145,-5.944802761077881,6.926425457000732,-22.5982666015625,-20.2484130859375,-0.5645751953125
0.34374990000000005,-1.1827356815338135,-6.078877925872803,6.878541469573975,-22.52197265625,-22.735595703125,-0.0762939453125
0.34624990000000005,-1.1468225717544556,-6.296750545501709,6.840234279632568,-21.881103515625,-24.4140625,0.0762939453125
0.34874990000000006,-1.0438719987869263,-6.564900875091553,6.856993675231934,-21.3165283203125,-25.8636474609375,0.2288818359375
0.35124990000000006,-0.8954314589500427,-6.8593878746032715,6.878541469573975,-20.56884765625,-27.16064453125,0.7171630859375
0.3537499,-0.7613561153411865,-7.146692276000977,6.916848659515381,-19.9737548828125,-27.7862548828125,2.01416015625
0.3562499,-0.6248866319656372,-7.400477409362793,6.947973251342773,-18.707275390625,-28.86962890625,2.899169921875
0.3587499,-0.5219359993934631,-7.6111674308776855,6.959944248199463,-17.4102783203125,-30.548095703125,3.1585693359375
0.3612499,-0.42616790533065796,-7.752425193786621,6.964732646942139,-16.8304443359375,-31.6009521484375,4.3487548828125
0.3637499,-0.3208230137825012,-7.841010570526123,6.933608055114746,-15.838623046875,-32.470703125,5.8746337890625
0.3662499,-0.24420857429504395,-7.884106159210205,6.914454460144043,-15.19775390625,-33.905029296875,7.0037841796875
0.3687499,-0.1628057211637497,-7.886500358581543,6.868964672088623,-14.2364501953125,-35.46142578125,7.781982421875
0.3712499,-0.028730420395731926,-7.833827972412109,6.830657482147217,-13.1683349609375,-37.078857421875,8.1634521484375
0.3737499,0.1867477297782898,-7.7428483963012695,6.799532890319824,-12.8936767578125,-38.39111328125,8.880615234375
0.3762499,0.4836287498474121,-7.666234016418457,6.809109687805176,-13.5498046875,-38.39111328125,9.8876953125
0.37874990000000003,0.8140285611152649,-7.615955829620361,6.864176273345947,-13.2904052734375,-38.6199951171875,10.4522705078125
0.38124990000000003,1.1300631761550903,-7.637503623962402,6.995857238769531,-12.2222900390625,-38.3453369140625,10.9100341796875
0.38374990000000003,1.41257905960083,-7.69735860824585,7.161057472229004,-11.29150390625,-37.3382568359375,11.41357421875
0.38624990000000003,1.6663644313812256,-7.769184589385986,7.38132381439209,-10.6353759765625,-35.8734130859375,11.383056640625
0.38874990000000004,1.9249382019042969,-7.807491779327393,7.601590633392334,-9.2620849609375,-34.0423583984375,11.077880859375
0.39124990000000004,2.1715409755706787,-7.771578788757324,7.857769966125488,-7.7362060546875,-31.6162109375,10.528564453125
0.39374990000000004,2.432508945465088,-7.6782050132751465,8.11634349822998,-6.8206787109375,-28.7017822265625,9.9029541015625
0.39624990000000004,2.63362193107605,-7.4986395835876465,8.360552787780762,-6.2713623046875,-25.4974365234375,9.3994140625
0.39874990000000005,2.760514497756958,-7.271190643310547,8.547300338745117,-6.317138671875,-21.881103515625,9.1552734375
0.40124990000000005,2.7676970958709717,-7.0126166343688965,8.662221908569336,-6.77490234375,-18.4326171875,9.2620849609375
0.40374990000000005,2.6791117191314697,-6.739677906036377,8.678980827331543,-7.75146484375,-15.3656005859375,9.0179443359375
0.40624990000000005,2.494758129119873,-6.469132900238037,8.631096839904785,-8.97216796875,-12.8021240234375,7.9345703125
0.40874990000000005,2.2457611560821533,-6.236895561218262,8.540117263793945,-11.0931396484375,-9.674072265625,7.5836181640625
0.41124990000000006,1.9273324012756348,-6.0621185302734375,8.437167167663574,-13.1378173828125,-6.5155029296875,7.6141357421875
0.41374990000000006,1.556231141090393,-5.963956356048584,8.327033042907715,-14.6026611328125,-4.82177734375,7.7056884765625
0.41624990000000006,1.1276689767837524,-5.92325496673584,8.233659744262695,-15.777587890625,-3.509521484375,7.2021484375
0.4187499,0.7493851184844971,-5.954379558563232,8.128314971923828,-16.937255859375,-2.838134765625,6.988525390625
0.4212499,0.4141969084739685,-6.007051944732666,8.044517517089844,-18.2037353515625,-2.6702880859375,6.988525390625
0.4237499,0.15083470940589905,-6.086060523986816,7.982268333435059,-19.0277099609375,-1.9683837890625,7.0343017578125
0.4262499,-0.028730420395731926,-6.189011573791504,7.931990146636963,-19.3939208984375,-1.739501953125,6.5460205078125
0.4287499,-0.1867477297782898,-6.299144744873047,7.903259754180908,-19.6533203125,-2.716064453125,6.53076171875
0.4312499,-0.2801215946674347,-6.406883716583252,7.862558364868164,-19.6075439453125,-3.35693359375,6.805419921875
0.4337499,-0.31603461503982544,-6.521805286407471,7.826645374298096,-19.10400390625,-4.9896240234375,6.317138671875
0.4362499,-0.304063618183136,-6.631938934326172,7.778761386871338,-18.5089111328125,-6.16455078125,5.889892578125
0.4387499,-0.2059013396501541,-6.739677906036377,7.7428483963012695,-17.5933837890625,-7.3394775390625,5.5999755859375
0.44124990000000003,-0.06703764945268631,-6.847416877746582,7.690176010131836,-16.1590576171875,-9.124755859375,5.2947998046875
0.44374990000000003,0.090979665517807,-6.959944248199463,7.659051418304443,-14.95361328125,-10.1776123046875,5.950927734375
0.44624990000000003,0.26096799969673157,-6.995857238769531,7.623138427734375,-12.9852294921875,-11.2152099609375,5.706787109375
0.44874990000000003,0.3926490843296051,-6.97430944442749,7.613561630249023,-11.1236572265625,-12.1917724609375,4.7149658203125
0.45124990000000004,0.4908113479614258,-6.84981107711792,7.65186882019043,-9.9029541015625,-13.1988525390625,3.875732421875
0.45374990000000004,0.5147533416748047,-6.648698329925537,7.716512203216553,-9.2010498046875,-15.0299072265625,3.143310546875
0.45624990000000004,0.47165772318840027,-6.390124320983887,7.793126583099365,-8.270263671875,-16.845703125,2.4261474609375
0.45874990000000004,0.3687070608139038,-6.04775333404541,7.845798969268799,-7.0648193359375,-19.012451171875,1.52587890625
0.46124990000000005,0.22505496442317963,-5.669469833374023,7.82185697555542,-7.598876953125,-21.8658447265625,0
0.46374990000000005,0.0933738648891449,-5.272032260894775,7.740454196929932,-9.1400146484375,-23.8494873046875,-1.983642578125
0.46624990000000005,-0.026336219161748886,-4.932055473327637,7.603984832763672,-11.29150390625,-25.8331298828125,-3.4637451171875
0.46874990000000005,-0.14844051003456116,-4.699818134307861,7.445967197418213,-13.2293701171875,-27.52685546875,-4.486083984375
0.47124990000000005,-0.22266076505184174,-4.60165548324585,7.29034423828125,-15.777587890625,-29.1595458984375,-5.523681640625
0.47374990000000006,-0.24660277366638184,-4.6040496826171875,7.158663272857666,-17.88330078125,-31.341552734375,-7.8125
0.47624990000000006,-0.20111294090747833,-4.683058738708496,7.026981830596924,-19.3634033203125,-32.28759765625,-9.6588134765625
0.47874990000000006,-0.08619125932455063,-4.8267107009887695,6.92881965637207,-22.003173828125,-32.1807861328125,-11.260986328125
0.4812499,0.026336219161748886,-5.035006046295166,6.811503887176514,-23.681640625,-31.4178466796875,-12.6495361328125
0.4837499,0.12689268589019775,-5.327098846435547,6.665457725524902,-23.9715576171875,-31.2347412109375,-14.129638671875
0.4862499,0.2059013396501541,-5.679046630859375,6.490680694580078,-24.6124267578125,-31.7230224609375,-15.0146484375
0.4887499,0.2777273952960968,-6.081272125244141,6.3063273429870605,-24.7039794921875,-31.4483642578125,-16.11328125
0.4912499,0.3280056416988373,-6.507440090179443,6.1267619132995605,-24.0020751953125,-30.6243896484375,-17.15087890625
0.4937499,0.3016694188117981,-6.9455790519714355,6.00226354598999,-23.345947265625,-29.5867919921875,-16.998291015625
0.4962499,0.24181437492370605,-7.362170219421387,5.901707172393799,-21.1181640625,-29.8004150390625,-17.059326171875
0.4987499,0.15083470940589905,-7.726089000701904,5.837063789367676,-18.524169921875,-30.517578125,-17.6544189453125
0.5012499,0.09816227108240128,-7.989450931549072,5.808333396911621,-16.6778564453125,-29.815673828125,-18.1427001953125
0.5037499000000001,0.023942016065120697,-8.185775756835938,5.791574001312256,-15.9149169921875,-28.900146484375,-17.0745849609375
0.5062499,-0.026336219161748886,-8.327033042907715,5.7987565994262695,-14.801025390625,-28.3050537109375,-15.31982421875
0.5087499000000001,-0.07661445438861847,-8.418013572692871,5.815515995025635,-11.5966796875,-29.3121337890625,-14.58740234375
0.5112499,-0.07900865375995636,-8.418013572692871,5.808333396911621,-8.7127685546875,-30.4412841796875,-14.373779296875
0.5137499,-0.038307227194309235,-8.401253700256348,5.815515995025635,-7.14111328125,-30.3955078125,-13.9923095703125
0.5162499,0.05267243832349777,-8.329427719116211,5.832275390625,-5.2490234375,-31.18896484375,-12.6800537109375
0.5187499,0.11971008777618408,-8.259995460510254,5.8442463874816895,-2.13623046875,-32.71484375,-11.810302734375
0.5212499,0.17956513166427612,-8.197746276855469,5.9088897705078125,0.9918212890625,-34.149169921875,-11.1846923828125
0.5237499,0.31364041566848755,-8.08282470703125,5.995080947875977,3.2958984375,-36.56005859375,-11.4898681640625
0.5262499,0.4812345504760742,-7.910442352294922,6.133944988250732,5.18798828125,-37.9791259765625,-11.6424560546875
0.5287499,0.689530074596405,-7.723694801330566,6.327875137329102,6.5460205078125,-38.1927490234375,-10.833740234375
0.5312499,0.8882488012313843,-7.508216381072998,6.54574728012085,6.89697265625,-38.51318359375,-10.2691650390625
0.5337499,0.9888052940368652,-7.268796443939209,6.7923502922058105,7.87353515625,-38.9251708984375,-10.5133056640625
0.5362499000000001,1.0007762908935547,-7.046135425567627,7.007828235626221,8.2244873046875,-39.9322509765625,-11.0931396484375
0.5387499,0.993593692779541,-6.797138690948486,7.182605266571045,8.4228515625,-41.534423828125,-11.932373046875
0.5412499000000001,0.912190854549408,-6.543353080749512,7.340622425079346,8.392333984375,-42.083740234375,-12.542724609375
0.5437499,0.8164227604866028,-6.36378812789917,7.438784599304199,7.3394775390625,-42.3431396484375,-12.847900390625
0.5462499000000001,0.7733271718025208,-6.251260757446289,7.496245384216309,6.8511962890625,-43.914794921875,-13.885498046875
0.5487499,0.7398083209991455,-6.184223175048828,7.546523571014404,7.3699951171875,-46.0968017578125,-14.1448974609375
0.5512499000000001,0.7829039692878723,-6.184223175048828,7.55131196975708,7.01904296875,-45.95947265625,-14.6942138671875
0.5537499,0.8930372595787048,-6.22731876373291,7.570465564727783,4.9285888671875,-45.562744140625,-15.4571533203125
0.5562499000000001,0.9911994934082031,-6.287173748016357,7.615955829620361,4.4097900390625,-46.142578125,-15.6707763671875
0.5587499,1.072602391242981,-6.323086738586426,7.671022415161133,4.638671875,-45.95947265625,-16.29638671875
0.5612499000000001,1.115697979927063,-6.332663536071777,7.7428483963012695,3.4332275390625,-45.318603515625,-17.39501953125
0.5637499,1.091755986213684,-6.224924564361572,7.814674377441406,0.8087158203125,-44.830322265625,-18.768310546875
0.5662499000000001,0.9624691009521484,-6.066906929016113,7.85537576675415,-1.373291015625,-43.670654296875,-20.5230712890625
0.5687499,0.7637503147125244,-5.91128396987915,7.841010570526123,-3.7384033203125,-43.7164306640625,-21.2554931640625
0.5712499000000001,0.4620809257030487,-5.841852188110352,7.771578788757324,-6.805419921875,-44.7540283203125,-21.7132568359375
0.5737499,0.1364694982767105,-5.916072368621826,7.661445617675781,-10.223388671875,-45.83740234375,-21.7742919921875
0.5762499000000001,-0.14365209639072418,-6.090848922729492,7.546523571014404,-12.420654296875,-48.4619140625,-21.1029052734375
0.5787499,-0.3734954595565796,-6.4164605140686035,7.474697589874268,-13.1378173828125,-50.689697265625,-20.7672119140625
0.5812499,-0.5147533416748047,-6.8043212890625,7.429207801818848,-13.8397216796875,-53.22265625,-20.1416015625
0.5837499,-0.5626373887062073,-7.2113356590271,7.436390399932861,-13.885498046875,-55.35888671875,-18.798828125
0.5862499,-0.5746083855628967,-7.623138427734375,7.438784599304199,-14.0838623046875,-57.7545166015625,-18.2952880859375
0.5887499,-0.5434837937355042,-8.008605003356934,7.469909191131592,-13.427734375,-60.60791015625,-16.7236328125
0.5912499,-0.5219359993934631,-8.33182144165039,7.50582218170166,-12.1307373046875,-63.41552734375,-14.739990234375
0.5937499,-0.44532153010368347,-8.56645393371582,7.50582218170166,-11.7340087890625,-65.8111572265625,-12.4359130859375
0.5962499,-0.47165772318840027,-8.69095230102539,7.536946773529053,-10.9405517578125,-68.511962890625,-10.4827880859375
0.5987499000000001,-0.47165772318840027,-8.75080680847168,7.51779317855835,-11.016845703125,-70.709228515625,-8.11767578125
0.6012499,-0.5506663918495178,-8.669404029846191,7.51779317855835,-8.6517333984375,-73.8372802734375,-6.500244140625
0.6037499000000001,-0.47165772318840027,-8.576030731201172,7.467514991760254,-6.3018798828125,-77.1484375,-5.06591796875
0.6062499,-0.3471592366695404,-8.336610794067383,7.436390399932861,-6.4544677734375,-79.498291015625,-3.2501220703125
0.6087499000000001,-0.10534487664699554,-8.142680168151855,7.4100542068481445,-7.3699951171875,-80.4595947265625,-1.983642578125
0.6112499,0.17717093229293823,-7.893682956695557,7.419631004333496,-7.293701171875,-81.0699462890625,-0.0152587890625
0.6137499000000001,0.29209262132644653,-7.73087739944458,7.47230339050293,-5.5389404296875,-82.09228515625,1.3885498046875
0.6162499,0.28969839215278625,-7.60637903213501,7.496245384216309,-5.4473876953125,-83.4197998046875,2.1209716796875
0.6187499000000001,0.0933738648891449,-7.513004779815674,7.503427982330322,-3.814697265625,-84.77783203125,2.4871826171875
0.6212499,-0.181959331035614,-7.424419403076172,7.429207801818848,-4.0283203125,-86.36474609375,2.6092529296875
0.6237499000000001,-0.5482721924781799,-7.319074630737305,7.357381820678711,-2.532958984375,-88.5467529296875,1.8310546875
0.6262499,-0.8690952062606812,-7.161057472229004,7.2783732414245605,-2.1820068359375,-89.5843505859375,1.03759765625
0.6287499000000001,-1.2210428714752197,-6.979097843170166,7.223306655883789,-3.4942626953125,-90.0421142578125,1.3275146484375
0.6312499,-1.5658079385757446,-6.746860504150391,7.204153060913086,-4.150390625,-90.88134765625,1.220703125
0.6337499000000001,-1.9991583824157715,-6.5481414794921875,7.2113356590271,-3.7078857421875,-93.0328369140625,0.3204345703125
0.6362499,-2.3271639347076416,-6.402095317840576,7.216124057769775,-4.4403076171875,-94.451904296875,-0.335693359375
0.6387499000000001,-2.7078421115875244,-6.270414352416992,7.242460250854492,-4.2572021484375,-97.7783203125,-0.823974609375
0.6412499,-3.0406360626220703,-6.172252178192139,7.280767440795898,-4.913330078125,-99.3804931640625,-0.5645751953125
0.6437499,-3.488351821899414,-6.064512729644775,7.2568254470825195,-4.302978515625,-100.40283203125,-0.579833984375
0.6462499,-4.01268196105957,-5.899312973022461,7.189787864685059,-3.8299560546875,-104.1259765625,1.0986328125
0.6487499,-4.496310710906982,-5.767632007598877,7.058106422424316,-4.5166015625,-107.9254150390625,2.4566650390625
0.6512499,-4.836287498474121,-5.664681434631348,6.845022678375244,-3.7841796875,-109.9700927734375,0.823974609375
0.6537499,-4.8482584953308105,-5.738901615142822,6.7061591148376465,-1.64794921875,-111.328125,0.335693359375
0.6562499,-4.611232280731201,-5.906495571136475,6.567295074462891,1.9683837890625,-109.9853515625,1.3275146484375
0.6587499,-4.316745758056641,-6.2392897605896,6.581660270690918,4.8675537109375,-107.0098876953125,0.7781982421875
0.6612499000000001,-4.108449935913086,-6.502651691436768,6.562506675720215,6.866455078125,-104.0191650390625,0.1068115234375
0.6637499,-4.048594951629639,-6.878541469573975,6.670246124267578,6.3018798828125,-101.3336181640625,1.03759765625
0.6662499000000001,-4.0964789390563965,-7.3023152351379395,6.694188117980957,4.5166015625,-99.2889404296875,2.532958984375
0.6687499,-4.07014274597168,-7.802703380584717,6.799532890319824,19.317626953125,-100.2960205078125,2.3651123046875
0.6712499000000001,-3.2393548488616943,-8.51138687133789,7.297526836395264,32.257080078125,-98.8922119140625,3.4637451171875
0.6737499,-1.4413094520568848,-9.136273384094238,8.362946510314941,41.015625,-87.7532958984375,6.195068359375
0.6762499000000001,1.1899182796478271,-9.627084732055664,10.012551307678223,49.8809814453125,-60.7757568359375,6.9122314453125
0.6787499,4.000710964202881,-9.988609313964844,11.870451927185059,57.3272705078125,-27.2979736328125,5.7830810546875
0.6812499000000001,5.9088897705078125,-10.002974510192871,13.309367179870605,70.159912109375,1.495361328125,1.800537109375
0.6837499,6.435614109039307,-9.880870819091797,13.953407287597656,82.305908203125,22.125244140625,0.8087158203125
0.6862499000000001,5.623979568481445,-9.658209800720215,13.745112419128418,92.0867919921875,39.1387939453125,1.52587890625
0.6887499,4.1395745277404785,-9.552865028381348,12.801796913146973,102.5390625,52.3223876953125,3.082275390625
0.6912499000000001,2.669534921646118,-9.548076629638672,11.413159370422363,117.034912109375,61.3861083984375,4.5013427734375
0.6937499,1.501164436340332,-9.44991397857666,9.763554573059082,135.467529296875,68.2830810546875,2.74658203125
0.6962499000000001,1.479616641998291,-9.260771751403809,8.121131896972656,144.0277099609375,70.86181640625,3.47900390625
0.6987499,2.434903144836426,-8.911218643188477,6.873753070831299,142.913818359375,70.5413818359375,4.7454833984375
0.7012499000000001,4.608838081359863,-8.592789649963379,6.3063273429870605,137.908935546875,76.2176513671875,6.6070556640625
0.7037499,7.319074630737305,-8.480262756347656,6.387730121612549,137.5579833984375,84.53369140625,7.1868896484375
0.7062499,10.065223693847656,-8.437167167663574,7.050923824310303,139.16015625,91.064453125,6.53076171875
0.7087499,12.112266540527344,-8.236053466796875,7.857769966125488,141.265869140625,100.2349853515625,6.0577392578125
0.7112499,13.24472427368164,-7.814674377441406,8.470685958862305,140.3961181640625,107.0709228515625,2.8076171875
0.7137499,13.632584571838379,-7.096413612365723,8.580819129943848,136.1083984375,107.940673828125,-4.2572021484375
0.7162499,13.596671104431152,-6.270414352416992,8.300697326660156,125.4425048828125,106.353759765625,-6.4544677734375
0.7187499,13.318943977355957,-5.43723201751709,7.797914981842041,110.260009765625,102.0355224609375,-6.011962890625
0.7212499,13.199234008789062,-4.6950297355651855,7.3454108238220215,97.7783203125,94.7418212890625,-5.6915283203125
0.7237499000000001,13.151350021362305,-4.101267337799072,7.062894821166992,86.5478515625,85.7696533203125,-3.90625
0.7262499,13.120224952697754,-3.6990416049957275,6.914454460144043,77.0263671875,79.742431640625,-4.5013427734375
0.7287499000000001,12.749124526977539,-3.3303346633911133,6.7277069091796875,70.3125,78.3843994140625,-6.500244140625
0.7312499,11.91354751586914,-3.1316158771514893,6.445190906524658,58.6395263671875,76.4617919921875,-7.568359375
0.7337499000000001,10.47942066192627,-3.028665065765381,6.064512729644775,41.6412353515625,69.4122314453125,-7.171630859375
0.7362499,8.65743350982666,-3.0861260890960693,5.566518783569336,27.801513671875,57.1746826171875,-7.659912109375
0.7387499000000001,6.983886241912842,-3.3518824577331543,4.970362663269043,16.571044921875,42.9229736328125,-6.805419921875
0.7412499,5.726930618286133,-3.6296098232269287,4.37420654296875,6.805419921875,31.79931640625,-5.5084228515625
0.7437499000000001,4.994304656982422,-3.801992416381836,3.883395195007324,-1.5869140625,24.017333984375,-4.1351318359375
0.7462499,4.687847137451172,-3.7612907886505127,3.579331636428833,-10.7574462890625,17.6544189453125,-3.173828125
0.7487499000000001,4.496310710906982,-3.5003228187561035,3.4979286193847656,-19.7601318359375,13.458251953125,-4.08935546875
0.7512499,4.170699596405029,-3.1316158771514893,3.5865142345428467,-28.74755859375,10.5438232421875,-5.7373046875
0.7537499000000001,3.641580820083618,-2.8347349166870117,3.758896589279175,-38.2232666015625,6.4239501953125,-6.2255859375
0.7562499,2.875436305999756,-2.698265314102173,3.9049429893493652,-45.6085205078125,2.960205078125,-6.77490234375
0.7587499000000001,2.0231003761291504,-2.82515811920166,3.9815573692321777,-51.2542724609375,1.15966796875,-8.270263671875
0.7612499,1.1899182796478271,-3.179499864578247,3.9839515686035156,-55.84716796875,-0.885009765625,-9.2926025390625
0.7637499000000001,0.48602294921875,-3.648763418197632,3.9217023849487305,-58.746337890625,-3.3111572265625,-10.07080078125
0.7662499,-0.035913024097681046,-4.098873138427734,3.8810009956359863,-60.516357421875,-6.1798095703125,-11.4288330078125
0.7687499000000001,-0.3711012601852417,-4.434061527252197,3.8738183975219727,-62.4237060546875,-8.5601806640625,-12.4359130859375
0.7712499,-0.5770025849342346,-4.730942726135254,4.043806552886963,-69.6868896484375,-12.63427734375,-13.031005859375
0.7737499,-0.5770025849342346,-4.730942726135254,4.043806552886963,-69.6868896484375,-12.63427734375,-13.031005859375
0.7762499,-0.35913026332855225,-4.987122058868408,4.3622355461120605,-74.76806640625,-14.9688720703125,-13.519287109375
0.7787499,-0.35913026332855225,-4.987122058868408,4.3622355461120605,-74.76806640625,-14.9688720703125,-13.519287109375
0.7812499,0.033518824726343155,-5.353435039520264,4.630385875701904,-77.6824951171875,-15.7623291015625,-14.5721435546875
0.7837499,0.033518824726343155,-5.353435039520264,4.630385875701904,-77.6824951171875,-15.7623291015625,-14.5721435546875
0.7862499000000001,0.33518823981285095,-5.652710437774658,4.817133903503418,-81.23779296875,-15.2587890625,-14.892578125
0.7887499,0.33518823981285095,-5.652710437774658,4.817133903503418,-81.23779296875,-15.2587890625,-14.892578125
0.7912499000000001,0.6248866319656372,-5.949591159820557,4.9368438720703125,-83.8470458984375,-13.671875,-15.4571533203125
0.7937499,0.6248866319656372,-5.949591159820557,4.9368438720703125,-83.8470458984375,-13.671875,-15.4571533203125
0.7962499000000001,0.9864110946655273,-6.421248912811279,5.039794445037842,-84.564208984375,-12.8631591796875,-15.289306640625
0.7987499,0.9864110946655273,-6.421248912811279,5.039794445037842,-84.564208984375,-12.8631591796875,-15.289306640625
0.8012499000000001,1.4053963422775269,-7.156269073486328,5.238513469696045,-81.8634033203125,-11.2457275390625,-14.4500732421875
0.8037499,1.4053963422775269,-7.156269073486328,5.238513469696045,-81.8634033203125,-11.2457275390625,-14.4500732421875
0.8062499000000001,1.7956513166427612,-7.970297336578369,5.612008571624756,-75.103759765625,-9.82666015625,-13.092041015625
0.8087499,1.7956513166427612,-7.970297336578369,5.612008571624756,-75.103759765625,-9.82666015625,-13.092041015625
0.8112499000000001,2.1571757793426514,-8.528146743774414,6.088454723358154,-66.558837890625,-9.3536376953125,-12.115478515625
0.8137499,2.1571757793426514,-8.528146743774414,6.088454723358154,-66.558837890625,-9.3536376953125,-12.115478515625
0.8162499000000001,2.5953147411346436,-8.779537200927734,6.50025749206543,-56.0760498046875,-6.866455078125,-11.0015869140625
0.8187499,2.5953147411346436,-8.779537200927734,6.50025749206543,-56.0760498046875,-6.866455078125,-11.0015869140625
0.8212499000000001,2.9496564865112305,-8.746018409729004,6.9240312576293945,-45.22705078125,-4.638671875,-10.040283203125
0.8237499,2.9496564865112305,-8.746018409729004,6.9240312576293945,-45.22705078125,-4.638671875,-10.040283203125
0.8262499000000001,3.026270866394043,-8.418013572692871,7.4100542068481445,-35.7513427734375,-2.3956298828125,-8.6212158203125
0.8287499,3.026270866394043,-8.418013572692871,7.4100542068481445,-35.7513427734375,-2.3956298828125,-8.6212158203125
0.8312499000000001,2.8610711097717285,-7.920019149780273,7.793126583099365,-28.99169921875,0.030517578125,-7.7362060546875
0.8337499,2.8610711097717285,-7.920019149780273,7.793126583099365,-28.99169921875,0.030517578125,-7.7362060546875
0.8362499,2.477998733520508,-7.33583402633667,8.018181800842285,-22.4761962890625,0.9307861328125,-6.134033203125
0.8387499,2.477998733520508,-7.33583402633667,8.018181800842285,-22.4761962890625,0.9307861328125,-6.134033203125
0.8412499,1.9919757843017578,-6.737283706665039,8.027758598327637,-20.4620361328125,1.2359619140625,-5.2947998046875
0.8437499,1.9919757843017578,-6.737283706665039,8.027758598327637,-20.4620361328125,1.2359619140625,-5.2947998046875
0.8462499,1.7405846118927002,-6.191405773162842,7.843404769897461,-19.744873046875,1.0986328125,-5.2490234375
0.8487499000000001,1.7405846118927002,-6.191405773162842,7.843404769897461,-19.744873046875,1.0986328125,-5.2490234375
0.8512499,1.8507179021835327,-5.894524574279785,7.728483200073242,-21.3470458984375,0.885009765625,-5.584716796875
0.8537499000000001,1.8507179021835327,-5.894524574279785,7.728483200073242,-21.3470458984375,0.885009765625,-5.584716796875
0.8562499,2.1954829692840576,-5.990292549133301,7.754819393157959,-22.308349609375,1.6021728515625,-6.256103515625
0.8587499000000001,2.1954829692840576,-5.990292549133301,7.754819393157959,-22.308349609375,1.6021728515625,-6.256103515625
0.8612499,2.760514497756958,-6.3518171310424805,7.7428483963012695,-20.56884765625,1.9989013671875,-6.622314453125
0.8637499000000001,2.760514497756958,-6.3518171310424805,7.7428483963012695,-20.56884765625,1.9989013671875,-6.622314453125
0.8662499,3.4189200401306152,-6.811503887176514,7.570465564727783,-18.524169921875,2.7618408203125,-6.6375732421875
0.8687499000000001,3.4189200401306152,-6.811503887176514,7.570465564727783,-18.524169921875,2.7618408203125,-6.6375732421875
0.8712499,3.7612907886505127,-7.338228225708008,7.3454108238220215,-16.05224609375,4.302978515625,-5.523681640625
0.8737499000000001,3.7612907886505127,-7.338228225708008,7.3454108238220215,-16.05224609375,4.302978515625,-5.523681640625
0.8762499,3.7253777980804443,-7.666234016418457,7.232883453369141,-10.9710693359375,4.08935546875,-4.3487548828125
0.8787499000000001,3.7253777980804443,-7.666234016418457,7.232883453369141,-10.9710693359375,4.08935546875,-4.3487548828125
0.8812499,3.4763808250427246,-7.4986395835876465,7.151480674743652,-10.5743408203125,5.9814453125,-3.9825439453125
0.8837499000000001,3.2968156337738037,-7.309497833251953,7.084442615509033,-10.9710693359375,6.53076171875,-4.5166015625
0.8862499,3.090914487838745,-7.137115478515625,7.024587631225586,-11.1083984375,5.67626953125,-4.5928955078125
0.8887499000000001,2.942473888397217,-7.005434036254883,6.933608055114746,-10.5438232421875,4.669189453125,-4.5013427734375
0.8912499,2.8347349166870117,-6.878541469573975,6.825869083404541,-11.0015869140625,4.0740966796875,-4.6234130859375
0.8937499000000001,2.7940332889556885,-6.780379295349121,6.677428722381592,-12.7410888671875,3.997802734375,-4.791259765625
0.8962499,2.7940332889556885,-6.687005519866943,6.540958881378174,-15.1824951171875,3.631591796875,-5.462646484375
0.8987499,2.80361008644104,-6.619967937469482,6.435614109039307,-17.303466796875,2.8839111328125,-6.53076171875
0.9012499,2.8155810832977295,-6.576871871948242,6.399701118469238,-19.3634033203125,2.4261474609375,-6.866455078125
0.9037499,2.832340717315674,-6.567295074462891,6.430825710296631,-22.9949951171875,1.9073486328125,-7.7362060546875
0.9062499,2.8634653091430664,-6.603208065032959,6.50025749206543,-26.1077880859375,1.52587890625,-8.4991455078125
0.9087499,2.9065608978271484,-6.694188117980957,6.596025466918945,-28.38134765625,1.40380859375,-9.4757080078125
0.9112499000000001,2.964021682739258,-6.8043212890625,6.689399719238281,-29.60205078125,1.6937255859375,-10.5438232421875
0.9137499,3.0406360626220703,-6.890512466430664,6.789956092834473,-31.2957763671875,1.861572265625,-11.4288330078125
0.9162499000000001,3.0789434909820557,-6.914454460144043,6.892906665802002,-33.50830078125,1.739501953125,-11.8560791015625
0.9187499,3.136404275894165,-6.823474884033203,7.000645637512207,-36.07177734375,2.1820068359375,-12.26806640625
0.9212499000000001,3.177105665206909,-6.641515731811523,7.089231014251709,-38.665771484375,2.7618408203125,-13.2293701171875
0.9237499,3.2321722507476807,-6.40927791595459,7.1251444816589355,-41.44287109375,3.4942626953125,-14.0380859375
0.9262499000000001,3.272873640060425,-6.179434776306152,7.0988078117370605,-44.9066162109375,4.4708251953125,-15.0604248046875
0.9287499,3.251325845718384,-6.04775333404541,7.005434036254883,-48.065185546875,5.2337646484375,-16.387939453125
0.9312499000000001,3.1890766620635986,-6.0597243309021,6.866570472717285,-50.811767578125,5.035400390625,-17.2119140625
0.9337499,3.1028854846954346,-6.205770969390869,6.720524311065674,-52.1392822265625,3.96728515625,-18.4783935546875
0.9362499000000001,3.0406360626220703,-6.464344501495361,6.576871871948242,-52.1087646484375,3.1280517578125,-19.6990966796875
0.9387499,3.0526070594787598,-6.775590896606445,6.466738700866699,-51.3763427734375,3.4332275390625,-20.8892822265625
0.9412499000000001,3.098097085952759,-7.067683219909668,6.36378812789917,-50.6744384765625,3.7078857421875,-22.2930908203125
0.9437499,3.138798475265503,-7.304709434509277,6.294356346130371,-49.560546875,4.241943359375,-24.169921875
0.9462499000000001,3.1292216777801514,-7.529764175415039,6.256049156188965,-48.8739013671875,4.3487548828125,-25.115966796875
0.9487499,3.0837318897247314,-7.682993412017822,6.2392897605896,-47.5006103515625,4.5318603515625,-26.214599609375
0.9512499000000001,3.0119056701660156,-7.819462776184082,6.251260757446289,-44.6624755859375,4.1656494140625,-27.77099609375
0.9537499,2.9712042808532715,-7.898471355438232,6.270414352416992,-41.9921875,4.0435791015625,-28.86962890625
0.9562499000000001,2.9712042808532715,-7.893682956695557,6.27280855178833,-39.9169921875,4.2724609375,-30.1513671875
0.9587499,3.026270866394043,-7.819462776184082,6.275202751159668,-39.1082763671875,4.3792724609375,-31.2957763671875
0.9612499,3.0837318897247314,-7.694964408874512,6.2632317543029785,-37.5518798828125,4.8370361328125,-32.89794921875
0.9637499,3.1316158771514893,-7.575253963470459,6.256049156188965,-36.773681640625,5.645751953125,-34.7747802734375
0.9662499,3.1435868740081787,-7.50582218170166,6.246472358703613,-36.4990234375,6.0577392578125,-36.0870361328125
0.9687499,3.1004912853240967,-7.496245384216309,6.229712963104248,-35.4156494140625,5.79833984375,-37.689208984375
0.9712499,3.0190882682800293,-7.515398979187012,6.222530364990234,-34.149169921875,5.6915283203125,-39.36767578125
0.9737499000000001,2.959233283996582,-7.560888767242432,6.210559368133545,-33.3251953125,5.279541015625,-40.8477783203125
0.9762499,2.9544448852539062,-7.649474620819092,6.203376770019531,-32.989501953125,4.5013427734375,-41.9464111328125
0.9787499000000001,3.0334534645080566,-7.800309181213379,6.215347766876221,-31.5399169921875,4.57763671875,-43.1976318359375
0.9812499,3.155557870864868,-8.066065788269043,6.270414352416992,-29.693603515625,5.4779052734375,-44.0673828125
0.9837499000000001,3.313575267791748,-8.370129585266113,6.354211330413818,-26.580810546875,5.31005859375,-44.158935546875
0.9862499,3.421314239501953,-8.650250434875488,6.485892295837402,-24.0631103515625,4.6539306640625,-44.0673828125
0.9887499000000001,3.5027170181274414,-8.829815864562988,6.629544734954834,-22.39990234375,5.096435546875,-44.189453125
0.9912499,3.5745432376861572,-8.892065048217773,6.766014099121094,-20.6298828125,5.4931640625,-44.2352294921875
0.9937499000000001,3.627215623855591,-8.832210540771484,6.873753070831299,-18.0206298828125,5.8746337890625,-44.2352294921875
0.9962499,3.667917013168335,-8.69095230102539,6.955155849456787,-15.869140625,7.049560546875,-45.22705078125
0.9987499000000001,3.706224203109741,-8.513781547546387,6.998251438140869,-15.6707763671875,7.8277587890625,-45.9442138671875
1.0012499,3.708618402481079,-8.312667846679688,6.9910688400268555,-14.2974853515625,8.72802734375,-46.6156005859375
1.0037498999999999,3.7038300037384033,-8.14028549194336,6.943184852600098,-12.0391845703125,9.4757080078125,-47.7447509765625
1.0062499,3.6607344150543213,-7.977479934692383,6.854599475860596,-10.009765625,10.43701171875,-49.2401123046875
1.0087499,3.603273630142212,-7.836222171783447,6.7492547035217285,-8.6822509765625,11.04736328125,-49.957275390625
1.0112499,3.531447410583496,-7.704541206359863,6.648698329925537,-8.026123046875,11.444091796875,-50.6591796875
1.0137498999999999,3.426102638244629,-7.570465564727783,6.600813865661621,-7.5531005859375,12.3748779296875,-51.483154296875
1.0162499,3.3231520652770996,-7.441178798675537,6.629544734954834,-7.7972412109375,12.7410888671875,-51.7730712890625
1.0187499,3.179499864578247,-7.266402244567871,6.710947513580322,-8.1939697265625,12.4969482421875,-52.0782470703125
1.0212499,3.07415509223938,-7.101202011108398,6.830657482147217,-9.7503662109375,11.9476318359375,-52.520751953125
1.0237498999999999,2.96162748336792,-6.912060260772705,6.926425457000732,-12.14599609375,11.688232421875,-53.0548095703125
1.0262498999999998,2.8826189041137695,-6.732495307922363,6.959944248199463,-13.824462890625,12.298583984375,-53.8787841796875
1.0287499,2.806004285812378,-6.588842868804932,6.950367450714111,-16.4794921875,12.451171875,-54.290771484375
1.0312499,2.7461493015289307,-6.497863292694092,6.914454460144043,-19.3328857421875,11.90185546875,-54.473876953125
1.0337498999999999,2.7317841053009033,-6.473921298980713,6.864176273345947,-21.30126953125,10.8642578125,-54.229736328125
1.0362498999999998,2.7437551021575928,-6.531382083892822,6.8043212890625,-22.39990234375,10.4522705078125,-54.718017578125
1.0387499,2.779668092727661,-6.665457725524902,6.730101108551025,-24.444580078125,10.55908203125,-54.962158203125
1.0412499,2.80361008644104,-6.866570472717285,6.629544734954834,-26.5960693359375,10.1470947265625,-54.9774169921875
1.0437499,2.8371291160583496,-7.137115478515625,6.509834289550781,-26.67236328125,9.2010498046875,-55.6793212890625
1.0462498999999998,2.8826189041137695,-7.4555439949035645,6.3973069190979,-26.3214111328125,8.209228515625,-55.4962158203125
1.0487499,2.9688100814819336,-7.793126583099365,6.275202751159668,-25.87890625,8.1787109375,-55.267333984375
1.0512499,3.090914487838745,-8.094796180725098,6.174646377563477,-24.810791015625,8.575439453125,-55.3131103515625
1.0537499,3.2130186557769775,-8.348581314086914,6.09324312210083,-23.01025390625,8.23974609375,-55.206298828125
1.0562498999999999,3.3518824577331543,-8.53532886505127,6.042964935302734,-21.7742919921875,8.880615234375,-55.0689697265625
1.0587499,3.4524388313293457,-8.695740699768066,6.052541732788086,-21.1639404296875,9.6435546875,-54.8858642578125
1.0612499,3.5266590118408203,-8.827422142028809,6.102819919586182,-18.890380859375,10.345458984375,-54.168701171875
1.0637499,3.5625722408294678,-8.935160636901855,6.174646377563477,-15.472412109375,10.6201171875,-53.4820556640625
1.0662498999999999,3.584120035171509,-9.026140213012695,6.253654956817627,-12.8936767578125,10.80322265625,-52.9632568359375
1.0687499,3.6176388263702393,-9.062053680419922,6.313509941101074,-10.31494140625,11.1236572265625,-52.2003173828125
1.0712499,3.6511576175689697,-9.05247688293457,6.339846134185791,-7.049560546875,11.566162109375,-51.361083984375
1.0737499,3.687070608139038,-9.01895809173584,6.361393928527832,-4.1046142578125,11.962890625,-50.6439208984375
1.0762498999999999,3.6750996112823486,-8.939949035644531,6.3733649253845215,-1.8463134765625,12.51220703125,-50.079345703125
1.0787499,3.6176388263702393,-8.813055992126465,6.3949127197265625,0.6103515625,13.24462890625,-49.2706298828125
1.0812499,3.5266590118408203,-8.678980827331543,6.440402507781982,2.6092529296875,13.1988525390625,-48.248291015625
1.0837499,3.3925838470458984,-8.504204750061035,6.497863292694092,4.638671875,13.2904052734375,-47.6226806640625
1.0862498999999999,3.270479440689087,-8.329427719116211,6.567295074462891,6.5765380859375,14.068603515625,-47.5006103515625
1.0887499,3.1747114658355713,-8.176198959350586,6.62236213684082,7.8277587890625,14.0228271484375,-46.5850830078125
1.0912499,3.112462282180786,-8.030152320861816,6.651092529296875,9.58251953125,14.404296875,-45.7305908203125
1.0937499,3.117250680923462,-7.8960771560668945,6.6630635261535645,11.505126953125,15.2435302734375,-45.59326171875
1.0962498999999999,3.160346269607544,-7.752425193786621,6.6630635261535645,13.702392578125,15.5487060546875,-45.10498046875
1.0987498999999998,3.248931646347046,-7.5848307609558105,6.651092529296875,15.44189453125,16.204833984375,-44.4793701171875
1.1012499,3.3279404640197754,-7.38132381439209,6.62236213684082,15.9912109375,17.303466796875,-43.8995361328125
1.1037499,3.3686418533325195,-7.168240070343018,6.560112476348877,16.8914794921875,18.8446044921875,-43.88427734375
1.1062499,3.3279404640197754,-7.003039836883545,6.464344501495361,17.6239013671875,19.5770263671875,-43.0450439453125
1.1087498999999998,3.2082302570343018,-6.904877662658691,6.339846134185791,17.76123046875,19.622802734375,-42.5262451171875
1.1112499,3.0789434909820557,-6.88332986831665,6.208165168762207,18.341064453125,19.59228515625,-42.1295166015625
1.1137499,2.9975404739379883,-6.933608055114746,6.064512729644775,18.85986328125,18.6767578125,-41.168212890625
1.1162499,2.9927520751953125,-7.0126166343688965,5.904101371765137,19.8974609375,18.9361572265625,-40.34423828125
1.1187498999999999,3.0142998695373535,-7.06528902053833,5.729324817657471,21.5301513671875,20.3704833984375,-40.1763916015625
1.1212499,2.959233283996582,-7.062894821166992,5.564124584197998,22.796630859375,21.3623046875,-39.9932861328125
1.1237499,2.7724854946136475,-6.971915245056152,5.456385612487793,22.705078125,21.575927734375,-39.12353515625
1.1262499,2.4827871322631836,-6.75883150100708,5.47075080871582,20.8587646484375,20.538330078125,-37.7960205078125
1.1287498999999999,2.2457611560821533,-6.476315498352051,5.6455278396606445,17.913818359375,18.24951171875,-36.102294921875
1.1312499,2.296039342880249,-6.277596950531006,5.966350555419922,14.129638671875,15.07568359375,-34.1644287109375
1.1337499,2.6384103298187256,-6.234501361846924,6.244078159332275,12.02392578125,13.3056640625,-33.5845947265625
1.1362499,3.026270866394043,-6.4595561027526855,6.445190906524658,13.519287109375,17.547607421875,-35.675048828125
1.1387498999999999,3.1866824626922607,-7.029376029968262,6.464344501495361,14.739990234375,22.2320556640625,-35.3851318359375
1.1412499,2.9233202934265137,-7.82185697555542,6.3949127197265625,16.6168212890625,21.881103515625,-33.69140625
1.1437499,2.3511061668395996,-8.619126319885254,6.3302693367004395,21.42333984375,18.157958984375,-31.646728515625
1.1462499,1.7932571172714233,-9.141061782836914,6.337451934814453,25.543212890625,14.9688720703125,-28.7017822265625
1.1487498999999999,1.5083470344543457,-9.160215377807617,6.3973069190979,25.6805419921875,13.12255859375,-25.32958984375
1.1512499,1.5298948287963867,-8.667010307312012,6.4834980964660645,21.5606689453125,12.8631591796875,-23.193359375
1.1537499,1.7573440074920654,-7.893682956695557,6.567295074462891,17.2271728515625,12.8936767578125,-21.881103515625
1.1562499,2.0398597717285156,-7.1251444816589355,6.6127848625183105,14.404296875,12.1917724609375,-20.721435546875
1.1587498999999999,2.2673089504241943,-6.5696892738342285,6.603208065032959,12.6495361328125,12.0391845703125,-20.1263427734375
1.1612498999999998,2.38462495803833,-6.275202751159668,6.509834289550781,11.90185546875,11.9171142578125,-19.744873046875
1.1637499,2.3942017555236816,-6.189011573791504,6.356605529785156,11.2152099609375,11.7645263671875,-19.4854736328125
1.1662499,2.3127987384796143,-6.222530364990234,6.179434776306152,10.3759765625,11.0626220703125,-19.6380615234375
1.1687499,2.169146776199341,-6.294356346130371,5.9974751472473145,9.033203125,10.3302001953125,-19.622802734375
1.1712498999999998,1.98958158493042,-6.356605529785156,5.858611583709717,6.7291259765625,9.796142578125,-19.927978515625
1.1737499,1.800439715385437,-6.382941722869873,5.784391403198242,4.1046142578125,8.3770751953125,-19.47021484375
1.1762499,1.6400281190872192,-6.358999729156494,5.808333396911621,0.9613037109375,6.9732666015625,-19.1192626953125
1.1787499,1.556231141090393,-6.27280855178833,5.937620162963867,-2.197265625,5.706787109375,-18.49365234375
1.1812498999999999,1.5634137392044067,-6.13633918762207,6.155492782592773,-5.92041015625,4.7149658203125,-17.8680419921875
1.1837499,1.6639702320098877,-5.966350555419922,6.4164605140686035,-9.918212890625,4.2724609375,-17.5628662109375
1.1862499,1.8100165128707886,-5.803544998168945,6.655880928039551,-13.6871337890625,4.058837890625,-17.2576904296875
1.1887499,1.968033790588379,-5.674258232116699,6.842628479003906,-17.059326171875,3.6163330078125,-17.0745849609375
1.1912498999999999,2.10210919380188,-5.583278179168701,6.94079065322876,-20.6451416015625,3.11279296875,-17.2576904296875
1.1937499,2.2026655673980713,-5.521028995513916,6.957550048828125,-24.0478515625,3.326416015625,-17.4102783203125
1.1962499,2.2673089504241943,-5.497087001800537,6.916848659515381,-27.4200439453125,3.0364990234375,-17.51708984375
1.1987499,2.3104045391082764,-5.51624059677124,6.876147270202637,-30.731201171875,2.6397705078125,-17.852783203125
1.2012498999999999,2.341529369354248,-5.600037574768066,6.856993675231934,-33.9508056640625,2.25830078125,-18.218994140625
1.2037499,2.3965959548950195,-5.772420406341553,6.890512466430664,-36.895751953125,1.7242431640625,-18.6767578125
1.2062499,2.4803929328918457,-6.050147533416748,6.955155849456787,-39.24560546875,1.1749267578125,-18.9666748046875
1.2087499,2.58813214302063,-6.435614109039307,7.053318023681641,-40.1763916015625,0.518798828125,-19.10400390625
1.2112498999999999,2.7078421115875244,-6.904877662658691,7.156269073486328,-40.0543212890625,0.244140625,-19.3023681640625
1.2137499,2.8179752826690674,-7.419631004333496,7.275979042053223,-39.1693115234375,-0.06103515625,-19.3634033203125
1.2162499,2.920926094055176,-7.922413349151611,7.390900611877441,-37.4603271484375,-0.396728515625,-18.98193359375
1.2187499,3.0166940689086914,-8.35097599029541,7.515398979187012,-35.125732421875,-0.9307861328125,-18.3563232421875
1.2212498999999999,3.112462282180786,-8.655038833618164,7.623138427734375,-32.3638916015625,-1.2359619140625,-17.791748046875
1.2237498999999998,3.203441858291626,-8.801085472106934,7.728483200073242,-29.3731689453125,-1.2054443359375,-17.303466796875
1.2262499,3.265691041946411,-8.78432559967041,7.819462776184082,-27.069091796875,-1.0223388671875,-16.78466796875
1.2287499,3.294421434402466,-8.62391471862793,7.915230751037598,-25.2227783203125,-1.15966796875,-16.3116455078125
1.2312499,3.265691041946411,-8.339004516601562,8.01339340209961,-23.3306884765625,-1.739501953125,-15.899658203125
1.2337498999999998,3.205836057662964,-7.95832633972168,8.11634349822998,-21.9879150390625,-2.3651123046875,-15.5181884765625
1.2362499,3.1268274784088135,-7.4770917892456055,8.209717750549316,-21.54541015625,-3.11279296875,-15.56396484375
1.2387499,3.047818660736084,-6.92881965637207,8.259995460510254,-21.91162109375,-3.2806396484375,-15.8843994140625
1.2412499,2.9688100814819336,-6.361393928527832,8.245630264282227,-23.7274169921875,-3.5247802734375,-16.2353515625
1.2437498999999999,2.8874073028564453,-5.801150798797607,8.17141056060791,-25.87890625,-3.448486328125,-16.876220703125
1.2462499,2.7892448902130127,-5.286397457122803,8.044517517089844,-27.587890625,-3.8604736328125,-18.2952880859375
1.2487499,2.6839001178741455,-4.802768707275391,7.9176249504089355,-30.2886962890625,-4.8980712890625,-19.134521484375
1.2512499,2.5905263423919678,-4.350264549255371,7.800309181213379,-34.393310546875,-5.950927734375,-20.2789306640625
1.2537498999999999,2.5234885215759277,-3.9384617805480957,7.716512203216553,-39.7186279296875,-7.354736328125,-21.453857421875
1.2562499,2.5306711196899414,-3.622427225112915,7.637503623962402,-45.684814453125,-7.904052734375,-22.7813720703125
1.2587499,2.58813214302063,-3.40216064453125,7.479485988616943,-51.1932373046875,-7.4462890625,-24.505615234375
1.2612499,2.628833532333374,-3.354276657104492,7.29034423828125,-57.55615234375,-6.4849853515625,-26.580810546875
1.2637498999999999,2.647987127304077,-3.466804027557373,7.0557122230529785,-63.4918212890625,-6.34765625,-27.8472900390625
1.2662499,2.6216509342193604,-3.691859006881714,6.847416877746582,-67.0166015625,-7.26318359375,-29.205322265625
1.2687499,2.612074136734009,-3.971980571746826,6.708553314208984,-70.1446533203125,-8.3465576171875,-30.609130859375
1.2712499,2.6599581241607666,-4.225766181945801,6.619967937469482,-74.859619140625,-8.4075927734375,-31.92138671875
1.2737498999999999,2.7557260990142822,-4.436455726623535,6.54574728012085,-80.4595947265625,-8.056640625,-32.958984375
1.2762499,2.87064790725708,-4.649539470672607,6.457161903381348,-85.906982421875,-7.720947265625,-33.8592529296875
1.2787499,2.96162748336792,-4.912901878356934,6.342240333557129,-90.2862548828125,-7.5531005859375,-35.0799560546875
1.2812499,3.0334534645080566,-5.257667064666748,6.1985883712768555,-93.5821533203125,-7.5225830078125,-35.9649658203125
1.2837498999999999,3.1028854846954346,-5.66228723526001,6.042964935302734,-96.3134765625,-7.32421875,-36.773681640625
1.2862498999999998,3.1866824626922607,-6.095637321472168,5.884947776794434,-98.93798828125,-7.110595703125,-37.4603271484375
1.2887499,3.3063924312591553,-6.519411087036133,5.765237808227539,-101.5167236328125,-7.171630859375,-38.26904296875
1.2912499,3.4739866256713867,-6.914454460144043,5.686229228973389,-103.546142578125,-6.6375732421875,-38.3758544921875
1.2937499,3.670311212539673,-7.275979042053223,5.6455278396606445,-103.9276123046875,-6.16455078125,-38.39111328125
1.2962498999999998,3.8762125968933105,-7.608773231506348,5.655104637145996,-104.1107177734375,-5.523681640625,-38.5284423828125
1.2987499,4.062960147857666,-7.91283655166626,5.698200225830078,-103.5614013671875,-4.8828125,-38.2232666015625
1.3012499,4.201824188232422,-8.190564155578613,5.762843608856201,-102.5238037109375,-4.08935546875,-37.65869140625
1.3037499,4.292803764343262,-8.429984092712402,5.822698593139648,-101.7303466796875,-3.631591796875,-37.2161865234375
1.3062498999999999,4.335899353027344,-8.640673637390137,5.841852188110352,-101.226806640625,-2.99072265625,-36.4532470703125
1.3087499,4.345476150512695,-8.829815864562988,5.813121795654297,-100.067138671875,-2.1514892578125,-35.82763671875
1.3112499,4.323928356170654,-9.014169692993164,5.729324817657471,-98.114013671875,-1.2969970703125,-34.97314453125
1.3137499,4.280832767486572,-9.188945770263672,5.612008571624756,-96.0845947265625,-0.7171630859375,-34.210205078125
1.3162498999999999,4.228160381317139,-9.370905876159668,5.485116004943848,-93.7957763671875,-0.18310546875,-33.3709716796875
1.3187499,4.180276393890381,-9.576807022094727,5.374982833862305,-90.7745361328125,0.3662109375,-33.1878662109375
1.3212499,4.170699596405029,-9.80904483795166,5.307945251464844,-86.5020751953125,0.4730224609375,-32.9132080078125
1.3237499,4.19224739074707,-10.043676376342773,5.279214859008789,-80.87158203125,0.396728515625,-32.53173828125
1.3262498999999999,4.252102375030518,-10.259154319763184,5.295974254608154,-75.4547119140625,0.9613037109375,-31.9061279296875
1.3287499,4.323928356170654,-10.412383079528809,5.329493045806885,-69.7479248046875,1.4495849609375,-31.18896484375
1.3312499,4.431667327880859,-10.498574256896973,5.480327606201172,-56.915283203125,1.800537109375,-30.3802490234375
1.3337499,4.431667327880859,-10.498574256896973,5.480327606201172,-56.915283203125,1.800537109375,-30.3802490234375
1.3362498999999999,4.503493309020996,-10.335768699645996,5.702988624572754,-44.097900390625,2.0904541015625,-30.1513671875
1.3387499,4.503493309020996,-10.335768699645996,5.702988624572754,-44.097900390625,2.0904541015625,-30.1513671875
1.3412499,4.553771495819092,-10.02691650390625,5.839457988739014,-32.3944091796875,3.0670166015625,-30.9295654296875
1.3437499,4.553771495819092,-10.02691650390625,5.839457988739014,-32.3944091796875,3.0670166015625,-30.9295654296875
1.3462498999999999,4.481945514678955,-9.780313491821289,5.791574001312256,-22.5677490234375,3.72314453125,-31.4788818359375
1.3487498999999998,4.481945514678955,-9.780313491821289,5.791574001312256,-22.5677490234375,3.72314453125,-31.4788818359375
1.3512499,4.280832767486572,-9.651026725769043,5.5976433753967285,-15.045166015625,3.5552978515625,-30.6396484375
1.3537499,4.280832767486572,-9.651026725769043,5.5976433753967285,-15.045166015625,3.5552978515625,-30.6396484375
1.3562499,4.031835556030273,-9.533711433410645,5.3582234382629395,-10.1776123046875,3.4332275390625,-29.5562744140625
1.3587498999999998,4.031835556030273,-9.533711433410645,5.3582234382629395,-10.1776123046875,3.4332275390625,-29.5562744140625
1.3612499,3.7636849880218506,-9.452308654785156,5.2480902671813965,-6.16455078125,0.9613037109375,-29.1748046875
1.3637499,3.7636849880218506,-9.452308654785156,5.2480902671813965,-6.16455078125,0.9613037109375,-29.1748046875
1.3662499,3.711012601852417,-9.459490776062012,5.257667064666748,-0.3509521484375,-0.274658203125,-30.2734375
1.3687498999999999,3.711012601852417,-9.459490776062012,5.257667064666748,-0.3509521484375,-0.274658203125,-30.2734375
1.3712499,3.8522706031799316,-9.330204010009766,5.260061264038086,5.859375,-0.0457763671875,-30.853271484375
1.3737499,3.8522706031799316,-9.330204010009766,5.260061264038086,5.859375,-0.0457763671875,-30.853271484375
1.3762499,3.9240965843200684,-8.789113998413086,5.1595048904418945,5.9661865234375,-1.678466796875,-30.5633544921875
1.3787498999999999,3.9240965843200684,-8.789113998413086,5.1595048904418945,5.9661865234375,-1.678466796875,-30.5633544921875
1.3812499,3.9815573692321777,-8.109161376953125,5.008669853210449,3.7994384765625,-2.2735595703125,-31.1431884765625
1.3837499,3.9815573692321777,-8.109161376953125,5.008669853210449,3.7994384765625,-2.2735595703125,-31.1431884765625
1.3862499,4.120420932769775,-7.527369976043701,5.03021764755249,0.4425048828125,-3.5858154296875,-30.609130859375
1.3887498999999999,4.120420932769775,-7.527369976043701,5.03021764755249,0.4425048828125,-3.5858154296875,-30.609130859375
1.3912499,4.388571739196777,-7.0126166343688965,5.178658485412598,-6.5155029296875,-3.7078857421875,-30.914306640625
1.3937499,4.388571739196777,-7.0126166343688965,5.178658485412598,-6.5155029296875,-3.7078857421875,-30.914306640625
1.3962499,4.616020679473877,-6.624756336212158,5.286397457122803,-12.4359130859375,-3.082275390625,-31.463623046875
1.3987498999999999,4.616020679473877,-6.624756336212158,5.286397457122803,-12.4359130859375,-3.082275390625,-31.463623046875
1.4012499,4.697423934936523,-6.275202751159668,5.327098846435547,-21.8963623046875,-3.7384033203125,-31.7840576171875
1.4037499,4.697423934936523,-6.275202751159668,5.327098846435547,-21.8963623046875,-3.7384033203125,-31.7840576171875
1.4062499,4.7620673179626465,-6.114790916442871,5.355829238891602,-29.4189453125,-3.2806396484375,-33.6456298828125
1.4087498999999999,4.7620673179626465,-6.114790916442871,5.355829238891602,-29.4189453125,-3.2806396484375,-33.6456298828125
1.4112498999999998,4.843470096588135,-6.172252178192139,5.489904403686523,-35.430908203125,-4.2266845703125,-33.8592529296875
1.4137499,4.843470096588135,-6.172252178192139,5.489904403686523,-35.430908203125,-4.2266845703125,-33.8592529296875
1.4162499,4.944026470184326,-6.253654956817627,5.726930618286133,-40.9698486328125,-3.72314453125,-35.858154296875
1.4187499,4.944026470184326,-6.253654956817627,5.726930618286133,-40.9698486328125,-3.72314453125,-35.858154296875
1.4212498999999998,4.991910457611084,-6.490680694580078,5.942408561706543,-44.4183349609375,-4.21142578125,-37.78076171875
1.4237499,4.991910457611084,-6.490680694580078,5.942408561706543,-44.4183349609375,-4.21142578125,-37.78076171875
1.4262499,4.977545261383057,-7.175422668457031,5.978321552276611,-45.1812744140625,-4.1351318359375,-39.6881103515625
1.4287499,4.977545261383057,-7.175422668457031,5.978321552276611,-45.1812744140625,-4.1351318359375,-39.6881103515625
1.4312498999999999,4.929661273956299,-8.101978302001953,5.880159378051758,-41.3360595703125,-5.2337646484375,-38.6199951171875
1.4337499,4.929661273956299,-8.101978302001953,5.880159378051758,-41.3360595703125,-5.2337646484375,-38.6199951171875
1.4362499,4.929661273956299,-8.671798706054688,5.817910194396973,-39.1693115234375,-6.3629150390625,-36.6668701171875
1.4387499,4.929661273956299,-8.671798706054688,5.817910194396973,-39.1693115234375,-6.3629150390625,-36.6668701171875
1.4412498999999999,5.015852451324463,-8.769960403442383,5.825092792510986,-34.423828125,-6.927490234375,-34.3475341796875
1.4437499,5.003881454467773,-8.7268648147583,5.863399982452393,-31.8756103515625,-6.622314453125,-33.9813232421875
1.4462499,4.932055473327637,-8.635885238647461,5.8873419761657715,-28.2440185546875,-6.8206787109375,-33.63037109375
1.4487499,4.800374507904053,-8.492233276367188,5.916072368621826,-25.238037109375,-7.781982421875,-32.440185546875
1.4512498999999999,4.6471452713012695,-8.281543731689453,5.935225963592529,-23.6968994140625,-8.6517333984375,-31.7840576171875
1.4537499,4.525041103363037,-8.02536392211914,5.9304375648498535,-22.2625732421875,-9.4146728515625,-31.5093994140625
1.4562499,4.443638324737549,-7.757213592529297,5.899312973022461,-20.6451416015625,-9.7198486328125,-30.7769775390625
1.4587499,4.398148536682129,-7.4770917892456055,5.856217384338379,-19.04296875,-10.467529296875,-30.181884765625
1.4612498999999999,4.390965938568115,-7.2568254470825195,5.781997203826904,-17.852783203125,-11.2457275390625,-29.449462890625
1.4637499,4.371812343597412,-7.070077419281006,5.7125654220581055,-16.8609619140625,-11.77978515625,-29.083251953125
1.4662499,4.352658748626709,-6.914454460144043,5.638344764709473,-14.5721435546875,-11.962890625,-29.11376953125
1.4687499,4.32871675491333,-6.754043102264404,5.564124584197998,-12.7105712890625,-13.1988525390625,-28.62548828125
1.4712498999999999,4.299986362457275,-6.552929878234863,5.494692802429199,-12.8021240234375,-14.2059326171875,-28.7322998046875
1.4737498999999998,4.2951979637146,-6.313509941101074,5.427655220031738,-13.7481689453125,-14.434814453125,-28.74755859375
1.4762499,4.311957359313965,-6.086060523986816,5.3582234382629395,-14.251708984375,-15.106201171875,-28.6712646484375
1.4787499,4.338293552398682,-5.899312973022461,5.30076265335083,-14.556884765625,-15.625,-28.533935546875
1.4812499,4.359841346740723,-5.767632007598877,5.252878665924072,-15.3045654296875,-16.204833984375,-28.80859375
1.4837498999999998,4.378994941711426,-5.674258232116699,5.214571475982666,-16.4642333984375,-16.387939453125,-28.961181640625
1.4862499,4.400542736053467,-5.612008571624756,5.185841083526611,-17.791748046875,-16.78466796875,-29.083251953125
1.4887499,4.426878929138184,-5.56173038482666,5.166687488555908,-19.439697265625,-17.4102783203125,-29.296875
1.4912499,4.474762916564941,-5.535394191741943,5.145139217376709,-21.4080810546875,-17.608642578125,-29.2816162109375
1.4937498999999999,4.537012100219727,-5.535394191741943,5.114014625549316,-23.6663818359375,-17.8680419921875,-29.1290283203125
1.4962499,4.611232280731201,-5.556941986083984,5.0685248374938965,-25.8331298828125,-18.2647705078125,-29.052734375
1.4987499,4.6734819412231445,-5.590460777282715,5.008669853210449,-27.64892578125,-18.4783935546875,-28.564453125
1.5012499,4.721365928649902,-5.631162166595459,4.95120906829834,-29.6173095703125,-18.73779296875,-28.2440185546875
1.5037498999999999,4.738125324249268,-5.643133640289307,4.910507678985596,-32.3028564453125,-18.9666748046875,-28.167724609375
1.5062499,4.730942726135254,-5.628767967224121,4.8937482833862305,-34.8358154296875,-19.4854736328125,-28.25927734375
1.5087499,4.714183330535889,-5.583278179168701,4.891354084014893,-37.6739501953125,-19.9127197265625,-28.3355712890625
1.5112499,4.6950297355651855,-5.509057998657227,4.908113479614258,-40.740966796875,-20.2789306640625,-28.38134765625
1.5137498999999999,4.699818134307861,-5.4252610206604,4.912901878356934,-43.8690185546875,-20.5078125,-29.052734375
1.5162499,4.7189717292785645,-5.351040840148926,4.910507678985596,-47.5006103515625,-20.843505859375,-30.0140380859375
1.5187499,4.750096321105957,-5.315127849578857,4.891354084014893,-51.08642578125,-20.7977294921875,-30.6396484375
1.5212499,4.778826713562012,-5.327098846435547,4.862623691558838,-54.38232421875,-21.0113525390625,-31.2957763671875
1.5237498999999999,4.795586109161377,-5.382165431976318,4.81473970413208,-58.1207275390625,-20.9503173828125,-32.1197509765625
1.5262499,4.812345504760742,-5.449203014373779,4.7405195236206055,-61.6302490234375,-21.026611328125,-33.3099365234375
1.5287499,4.843470096588135,-5.518634796142578,4.632780075073242,-65.24658203125,-21.270751953125,-34.24072265625
1.5312499,4.8937482833862305,-5.609614372253418,4.486733913421631,-69.0460205078125,-21.270751953125,-35.7208251953125
1.5337498999999999,4.955997467041016,-5.717353820800781,4.331110954284668,-72.296142578125,-21.0723876953125,-37.2161865234375
1.5362499,5.0254292488098145,-5.868188381195068,4.180276393890381,-75.25634765625,-21.30126953125,-38.57421875
1.5387499,5.085284233093262,-6.050147533416748,4.048594951629639,-77.7740478515625,-21.3775634765625,-39.8101806640625
1.5412499,5.135562419891357,-6.246472358703613,3.952826976776123,-80.3070068359375,-20.9808349609375,-41.412353515625
1.5437499,5.1810526847839355,-6.428431510925293,3.8786067962646484,-82.977294921875,-20.2484130859375,-43.365478515625
1.5462498999999998,5.216965675354004,-6.631938934326172,3.8498764038085938,-84.9761962890625,-19.6990966796875,-45.654296875
1.5487499,5.25527286529541,-6.885724067687988,3.847482204437256,-86.85302734375,-19.3023681640625,-48.004150390625
1.5512499,5.324704647064209,-7.2568254470825195,3.84269380569458,-88.1805419921875,-19.3328857421875,-49.3621826171875
1.5537499,5.396530628204346,-7.783549785614014,3.8331170082092285,-88.3331298828125,-18.98193359375,-50.5523681640625
1.5562498999999999,5.477933406829834,-8.422801971435547,3.7900211811065674,-85.87646484375,-18.24951171875,-51.08642578125
1.5587499,5.547365188598633,-9.093177795410156,3.7397429943084717,-82.94677734375,-18.2952880859375,-50.933837890625
1.5612499,5.595249176025391,-9.68694019317627,3.7014358043670654,-80.413818359375,-18.4326171875,-50.78125
1.5637499,5.635950565338135,-10.11789608001709,3.691859006881714,-77.63671875,-17.974853515625,-50.6591796875
1.5662498999999999,5.683835029602051,-10.369287490844727,3.7205893993377686,-73.8677978515625,-17.7764892578125,-50.384521484375
1.5687499,5.717353820800781,-10.448296546936035,3.778050184249878,-70.0531005859375,-17.5628662109375,-50.2166748046875
1.5712499,5.74129581451416,-10.398017883300781,3.8570590019226074,-66.741943359375,-17.059326171875,-50.323486328125
1.5737499,5.74129581451416,-10.261548042297363,3.9480385780334473,-63.3087158203125,-17.1661376953125,-50.5218505859375
1.5762498999999999,5.736507415771484,-10.074800491333008,4.027047157287598,-59.9212646484375,-17.1051025390625,-50.3997802734375
1.5787499,5.736507415771484,-9.8784761428833,4.082113742828369,-56.2896728515625,-16.8304443359375,-50.6591796875
1.5812499,5.7556610107421875,-9.670180320739746,4.110844135284424,-53.16162109375,-16.4794921875,-51.177978515625
1.5837499,5.789179801940918,-9.469067573547363,4.113238334655762,-50.384521484375,-15.9149169921875,-51.69677734375
1.5862498999999999,5.827486991882324,-9.258378028869629,4.089296340942383,-47.576904296875,-15.2435302734375,-52.0172119140625
1.5887499,5.863399982452393,-9.045293807983398,4.05817174911499,-45.41015625,-14.7552490234375,-52.5360107421875
1.5912499,5.8873419761657715,-8.822632789611816,4.015076160430908,-43.609619140625,-14.3280029296875,-53.131103515625
1.5937499,5.894524574279785,-8.595184326171875,3.974374771118164,-42.388916015625,-14.1448974609375,-53.863525390625
1.5962498999999999,5.884947776794434,-8.367734909057617,3.936067581176758,-41.5496826171875,-13.9312744140625,-54.6112060546875
1.5987499,5.868188381195068,-8.147468566894531,3.9049429893493652,-41.07666015625,-14.007568359375,-55.23681640625
1.6012499,5.8442463874816895,-7.9415669441223145,3.8810009956359863,-40.985107421875,-14.2059326171875,-56.15234375
1.6037499,5.808333396911621,-7.752425193786621,3.861847400665283,-41.56494140625,-14.2669677734375,-56.9915771484375
1.6062499,5.774814605712891,-7.575253963470459,3.845088005065918,-42.755126953125,-14.09912109375,-57.9681396484375
1.6087498999999998,5.74129581451416,-7.393294811248779,3.8331170082092285,-44.0826416015625,-14.434814453125,-58.8836669921875
1.6112499,5.726930618286133,-7.201758861541748,3.8091750144958496,-46.295166015625,-14.5111083984375,-59.967041015625
1.6137499,5.736507415771484,-6.995857238769531,3.77565598487854,-48.9501953125,-14.7705078125,-61.004638671875
1.6162499,5.770026206970215,-6.787561893463135,3.7229835987091064,-52.001953125,-15.1824951171875,-62.0269775390625
1.6187498999999999,5.822698593139648,-6.6127848625183105,3.648763418197632,-55.84716796875,-14.9993896484375,-63.1103515625
1.6212499,5.8873419761657715,-6.481103897094727,3.5458126068115234,-60.028076171875,-15.0909423828125,-64.697265625
1.6237499,5.947196960449219,-6.430825710296631,3.426102638244629,-63.7969970703125,-14.9993896484375,-65.7501220703125
1.6262499,5.9974751472473145,-6.4380083084106445,3.2824504375457764,-67.047119140625,-14.8162841796875,-66.6961669921875
1.6287498999999999,6.028599739074707,-6.495469093322754,3.1316158771514893,-70.404052734375,-14.7857666015625,-67.87109375
1.6312499,6.042964935302734,-6.584054470062256,2.985569477081299,-73.6541748046875,-14.7705078125,-68.695068359375
1.6337499,6.0405707359313965,-6.670246124267578,2.8562827110290527,-77.0111083984375,-14.83154296875,-69.64111328125
1.6362499,6.023811340332031,-6.768408298492432,2.7533318996429443,-80.169677734375,-15.228271484375,-70.5718994140625
1.6387498999999999,6.009446144104004,-6.871358871459961,2.6886885166168213,-83.3740234375,-15.716552734375,-71.3653564453125
1.6412499,5.9974751472473145,-7.005434036254883,2.6599581241607666,-86.517333984375,-15.7318115234375,-72.3876953125
1.6437499,6.009446144104004,-7.180211067199707,2.6599581241607666,-88.8671875,-16.0064697265625,-72.8912353515625
1.6462499,6.04775333404541,-7.402871608734131,2.6862943172454834,-90.4083251953125,-16.0675048828125,-73.30322265625
1.6487498999999999,6.100425720214844,-7.659051418304443,2.736572504043579,-91.3238525390625,-16.11328125,-73.8983154296875
1.6512499,6.162675380706787,-7.915230751037598,2.80361008644104,-91.73583984375,-16.0980224609375,-74.2034912109375
1.6537499,6.2201361656188965,-8.159439086914062,2.8826189041137695,-91.583251953125,-16.754150390625,-74.2034912109375
1.6562499,6.265625953674316,-8.377311706542969,2.96162748336792,-90.63720703125,-16.7694091796875,-74.4476318359375
1.6587498999999999,6.313509941101074,-8.592789649963379,3.0190882682800293,-89.569091796875,-16.693115234375,-74.432373046875
1.6612499,6.3518171310424805,-8.813055992126465,3.0573954582214355,-87.6922607421875,-16.6473388671875,-74.249267578125
1.6637499,6.390124320983887,-9.006986618041992,3.07415509223938,-84.41162109375,-16.6015625,-73.8677978515625
1.6662499,6.426037311553955,-9.124302864074707,3.093308687210083,-80.5511474609375,-16.4337158203125,-73.6236572265625
1.6687499,6.452373504638672,-9.119514465332031,3.1268274784088135,-77.3468017578125,-16.54052734375,-73.4405517578125
1.6712498999999998,6.481103897094727,-8.975862503051758,3.1866824626922607,-74.9053955078125,-16.448974609375,-73.8372802734375
1.6737499,6.5050458908081055,-8.760383605957031,3.2632968425750732,-72.784423828125,-16.4642333984375,-74.27978515625
1.6762499,6.531382083892822,-8.542511940002441,3.3231520652770996,-70.4498291015625,-16.66259765625,-74.3408203125
1.6787499,6.557718276977539,-8.382100105285645,3.354276657104492,-67.5506591796875,-16.5252685546875,-74.7222900390625
1.6812498999999999,6.584054470062256,-8.281543731689453,3.332728862762451,-64.5751953125,-16.448974609375,-74.8748779296875
1.6837499,6.610390663146973,-8.2312650680542,3.2752678394317627,-61.9964599609375,-16.265869140625,-74.8748779296875
1.6862499,6.636727333068848,-8.185775756835938,3.1866824626922607,-59.3414306640625,-16.0980224609375,-75.01220703125
1.6887499,6.682217121124268,-8.130708694458008,3.0837318897247314,-56.7779541015625,-16.5252685546875,-75.13427734375
1.6912498999999999,6.739677906036377,-8.04930591583252,2.9496564865112305,-54.443359375,-16.8914794921875,-75.4852294921875
1.6937499,6.789956092834473,-7.965508937835693,2.8131868839263916,-52.764892578125,-16.0369873046875,-75.8514404296875
1.6962499,6.806715488433838,-7.90086555480957,2.691082715988159,-51.177978515625,-15.350341796875,-75.897216796875
1.6987499,6.782773494720459,-7.864952564239502,2.5977089405059814,-48.88916015625,-15.869140625,-76.2786865234375
1.7012498999999999,6.71334171295166,-7.864952564239502,2.5546131134033203,-46.7376708984375,-16.693115234375,-76.5838623046875
1.7037499,6.641515731811523,-7.886500358581543,2.564189910888672,-44.464111328125,-16.8914794921875,-76.47705078125
1.7062499,6.581660270690918,-7.903259754180908,2.5929205417633057,-42.449951171875,-17.1051025390625,-76.6754150390625
1.7087499,6.560112476348877,-7.898471355438232,2.628833532333374,-40.496826171875,-17.4102783203125,-77.0263671875
1.7112498999999999,6.576871871948242,-7.864952564239502,2.647987127304077,-39.1845703125,-17.547607421875,-77.1331787109375
1.7137499,6.641515731811523,-7.793126583099365,2.6144683361053467,-37.8875732421875,-17.8985595703125,-77.1636962890625
1.7162499,6.7277069091796875,-7.716512203216553,2.535459518432617,-36.92626953125,-18.0511474609375,-77.362060546875
1.7187499,6.806715488433838,-7.654263019561768,2.410961151123047,-35.888671875,-17.6849365234375,-77.3468017578125
1.7212498999999999,6.8593878746032715,-7.627926826477051,2.2697031497955322,-35.3240966796875,-17.425537109375,-77.20947265625
1.7237499,6.878541469573975,-7.637503623962402,2.1380221843719482,-34.637451171875,-17.88330078125,-76.84326171875
1.7262499,6.890512466430664,-7.666234016418457,2.0590133666992188,-33.843994140625,-17.9595947265625,-76.1566162109375
1.7287499,6.904877662658691,-7.694964408874512,2.030282974243164,-33.3251953125,-18.06640625,-75.6072998046875
1.7312499,6.900089263916016,-7.7213006019592285,2.078166961669922,-33.3404541015625,-18.00537109375,-75.1800537109375
1.7337498999999998,6.885724067687988,-7.733271598815918,2.1739351749420166,-33.6456298828125,-18.1732177734375,-74.249267578125
1.7362499,6.8378400802612305,-7.738059997558594,2.2864625453948975,-33.7982177734375,-18.890380859375,-73.699951171875
1.7387499,6.775590896606445,-7.740454196929932,2.3918075561523438,-34.7137451171875,-19.5159912109375,-72.723388671875
1.7412499,6.720524311065674,-7.716512203216553,2.4851813316345215,-35.4766845703125,-19.9432373046875,-71.7315673828125
1.7437498999999999,6.689399719238281,-7.642292022705078,2.540247917175293,-35.552978515625,-20.965576171875,-70.9381103515625
1.7462499,6.660669326782227,-7.501033782958984,2.5977089405059814,-36.19384765625,-21.30126953125,-69.8699951171875
1.7487499,6.641515731811523,-7.268796443939209,2.6455929279327393,-37.6434326171875,-21.5911865234375,-69.2596435546875
1.7512499,6.615179061889648,-6.959944248199463,2.7054479122161865,-38.8336181640625,-22.491455078125,-68.78662109375
1.7537498999999999,6.5912370681762695,-6.596025466918945,2.7724854946136475,-40.6036376953125,-23.162841796875,-69.000244140625
1.7562499,6.560112476348877,-6.22731876373291,2.849100112915039,-43.15185546875,-23.4375,-69.366455078125
1.7587499,6.524199485778809,-5.892130374908447,2.9233202934265137,-45.928955078125,-23.86474609375,-69.8699951171875
1.7612499,6.473921298980713,-5.647922039031982,2.985569477081299,-48.5382080078125,-24.6734619140625,-70.6939697265625
1.7637498999999999,6.404489517211914,-5.513846397399902,3.028665065765381,-50.72021484375,-25.543212890625,-71.0906982421875
1.7662499,6.335057735443115,-5.494692802429199,3.0406360626220703,-53.3905029296875,-26.275634765625,-71.5179443359375
1.7687499,6.299144744873047,-5.57370138168335,3.00711727142334,-55.84716796875,-27.618408203125,-71.929931640625
1.7712499,6.301538944244385,-5.719748020172119,2.9305028915405273,-57.342529296875,-28.4881591796875,-72.235107421875
1.7737498999999999,6.344634532928467,-5.896918773651123,2.8155810832977295,-58.3648681640625,-28.900146484375,-72.4334716796875
1.7762499,6.421248912811279,-6.086060523986816,2.691082715988159,-59.6160888671875,-29.0374755859375,-72.20458984375
1.7787499,6.502651691436768,-6.2632317543029785,2.561795711517334,-61.2030029296875,-29.1900634765625,-72.0977783203125
1.7812499,6.588842868804932,-6.440402507781982,2.4229321479797363,-62.4237060546875,-29.449462890625,-71.8231201171875
1.7837498999999999,6.643909931182861,-6.615179061889648,2.2912509441375732,-63.2476806640625,-29.449462890625,-71.4874267578125
1.7862499,6.6846113204956055,-6.797138690948486,2.1523873805999756,-63.4613037109375,-29.9224853515625,-71.0601806640625
1.7887499,6.67982292175293,-7.005434036254883,2.0231003761291504,-63.8427734375,-30.548095703125,-70.098876953125
1.7912499,6.641515731811523,-7.232883453369141,1.9345149993896484,-63.5986328125,-30.82275390625,-69.2596435546875
1.7937499,6.588842868804932,-7.474697589874268,1.8722656965255737,-61.8896484375,-31.73828125,-68.5577392578125
1.7962498999999998,6.528987884521484,-7.659051418304443,1.845929503440857,-59.7381591796875,-32.440185546875,-67.6116943359375
1.7987499,6.495469093322754,-7.759607791900635,1.8363527059555054,-58.4716796875,-32.6995849609375,-66.6656494140625
1.8012499,6.476315498352051,-7.738059997558594,1.8363527059555054,-57.4798583984375,-32.562255859375,-66.2384033203125
1.8037499,6.4834980964660645,-7.642292022705078,1.8363527059555054,-56.4117431640625,-32.8369140625,-65.5517578125
1.8062498999999999,6.48828649520874,-7.513004779815674,1.8291701078414917,-55.2215576171875,-33.26416015625,-65.61279296875
1.8087499,6.476315498352051,-7.371747016906738,1.824381709098816,-53.7567138671875,-33.5540771484375,-65.0634765625
1.8112499,6.461950302124023,-7.264008045196533,1.8052281141281128,-52.55126953125,-34.11865234375,-64.422607421875
1.8137499,6.428431510925293,-7.182605266571045,1.7860745191574097,-51.971435546875,-34.820556640625,-64.3157958984375
1.8162498999999999,6.3949127197265625,-7.146692276000977,1.7717092037200928,-51.3916015625,-35.4461669921875,-64.2547607421875
1.8187499,6.36378812789917,-7.168240070343018,1.7549498081207275,-50.59814453125,-36.6058349609375,-63.8427734375
1.8212499,6.3518171310424805,-7.230489253997803,1.7477672100067139,-49.9114990234375,-37.3687744140625,-63.0645751953125
1.8237499,6.382941722869873,-7.3023152351379395,1.7310078144073486,-48.553466796875,-37.90283203125,-62.652587890625
1.8262498999999999,6.464344501495361,-7.371747016906738,1.6855180263519287,-47.1038818359375,-38.26904296875,-62.6068115234375
1.8287499,6.567295074462891,-7.407660007476807,1.6376339197158813,-45.83740234375,-38.055419921875,-61.6607666015625
1.8312499,6.67982292175293,-7.395689010620117,1.5729905366897583,-44.4488525390625,-38.2843017578125,-61.309814453125
1.8337499,6.761225700378418,-7.3454108238220215,1.50355863571167,-42.938232421875,-38.970947265625,-61.2945556640625
1.8362498999999999,6.813898086547852,-7.2568254470825195,1.4317326545715332,-42.2515869140625,-39.12353515625,-60.699462890625
1.8387499,6.842628479003906,-7.163451671600342,1.3623007535934448,-41.412353515625,-39.2608642578125,-60.4705810546875
1.8412499,6.871358871459961,-7.082048416137695,1.2976573705673218,-40.618896484375,-39.6270751953125,-60.4248046875
1.8437499,6.873753070831299,-7.0126166343688965,1.2832920551300049,-39.61181640625,-39.9169921875,-59.6923828125
1.8462498999999999,6.868964672088623,-6.933608055114746,1.3096283674240112,-38.330078125,-40.9698486328125,-59.26513671875
1.8487499,6.854599475860596,-6.871358871459961,1.3503297567367554,-38.3148193359375,-41.3665771484375,-58.990478515625
1.8512499,6.842628479003906,-6.823474884033203,1.4221558570861816,-38.1622314453125,-41.412353515625,-58.89892578125
1.8537499,6.856993675231934,-6.8043212890625,1.4628572463989258,-35.919189453125,-41.8548583984375,-58.7615966796875
1.8562499,6.89530086517334,-6.868964672088623,1.4891934394836426,-34.4696044921875,-41.8548583984375,-58.65478515625
1.8587498999999998,6.92881965637207,-6.952761650085449,1.5203180313110352,-32.5469970703125,-41.3360595703125,-58.197021484375
1.8612499,6.94079065322876,-7.017405033111572,1.5873557329177856,-29.78515625,-41.56494140625,-57.5714111328125
1.8637499,6.952761650085449,-7.062894821166992,1.6424223184585571,-28.5491943359375,-42.78564453125,-56.1676025390625
1.8662499,6.979097843170166,-7.072471618652344,1.7310078144073486,-27.5726318359375,-43.0145263671875,-55.938720703125
1.8687498999999999,7.0317702293396,-7.070077419281006,1.7908629179000854,-25.482177734375,-42.3431396484375,-55.96923828125
1.8712499,7.122750282287598,-7.113173484802246,1.7956513166427612,-22.9949951171875,-41.5191650390625,-55.2520751953125
1.8737499,7.156269073486328,-7.158663272857666,1.800439715385437,-20.56884765625,-40.3900146484375,-54.9468994140625
1.8762499,7.086836814880371,-7.151480674743652,1.8100165128707886,-18.1732177734375,-40.252685546875,-54.3212890625
1.8787498999999999,6.964732646942139,-7.122750282287598,1.778891921043396,-17.425537109375,-42.022705078125,-52.5970458984375
1.8812499,6.854599475860596,-7.070077419281006,1.7381904125213623,-16.937255859375,-42.3736572265625,-52.581787109375
1.8837499,6.785167694091797,-6.993463039398193,1.656787633895874,-14.0380859375,-41.229248046875,-53.558349609375
1.8862499,6.773196697235107,-6.900089263916016,1.556231141090393,-10.55908203125,-40.52734375,-53.1768798828125
1.8887498999999999,6.8043212890625,-6.811503887176514,1.4269442558288574,-10.2996826171875,-41.4886474609375,-51.7578125
1.8912499,6.94079065322876,-6.607996463775635,1.1899182796478271,-8.209228515625,-41.6412353515625,-52.1697998046875
1.8937499,6.94079065322876,-6.607996463775635,1.1899182796478271,-8.209228515625,-41.6412353515625,-52.1697998046875
1.8962499,7.0772600173950195,-6.497863292694092,1.048660397529602,-5.096435546875,-39.9322509765625,-51.8798828125
1.8987498999999999,7.0772600173950195,-6.497863292694092,1.048660397529602,-5.096435546875,-39.9322509765625,-51.8798828125
1.9012499,6.988674640655518,-6.399701118469238,1.091755986213684,-6.5155029296875,-42.7703857421875,-49.5147705078125
1.9037499,6.988674640655518,-6.399701118469238,1.091755986213684,-6.5155029296875,-42.7703857421875,-49.5147705078125
1.9062499,6.9455790519714355,-6.224924564361572,1.1635819673538208,-4.1351318359375,-42.144775390625,-49.2401123046875
1.9087498999999999,6.9455790519714355,-6.224924564361572,1.1635819673538208,-4.1351318359375,-42.144775390625,-49.2401123046875
1.9112499,6.981492042541504,-6.007051944732666,1.161187767982483,-6.16455078125,-42.877197265625,-48.675537109375
1.9137499,6.981492042541504,-6.007051944732666,1.161187767982483,-6.16455078125,-42.877197265625,-48.675537109375
1.9162499,6.890512466430664,-5.7125654220581055,1.216254472732544,-4.913330078125,-43.9300537109375,-47.6531982421875
1.9187499,6.890512466430664,-5.7125654220581055,1.216254472732544,-4.913330078125,-43.9300537109375,-47.6531982421875
1.9212498999999998,6.98628044128418,-5.449203014373779,1.194706678390503,-8.7432861328125,-45.5780029296875,-47.30224609375
1.9237499,6.98628044128418,-5.449203014373779,1.194706678390503,-8.7432861328125,-45.5780029296875,-47.30224609375
1.9262499,7.343016624450684,-5.372588634490967,0.9050082564353943,-7.110595703125,-43.51806640625,-46.4630126953125
1.9287499,7.343016624450684,-5.372588634490967,0.9050082564353943,-7.110595703125,-43.51806640625,-46.4630126953125
1.9312498999999999,7.422025203704834,-5.4228668212890625,0.5889736413955688,-9.857177734375,-44.5709228515625,-44.9066162109375
1.9337499,7.422025203704834,-5.4228668212890625,0.5889736413955688,-9.857177734375,-44.5709228515625,-44.9066162109375
1.9362499,7.331045627593994,-5.635950565338135,0.3495534360408783,-9.4451904296875,-44.6929931640625,-43.4722900390625
1.9387499,7.331045627593994,-5.635950565338135,0.3495534360408783,-9.4451904296875,-44.6929931640625,-43.4722900390625
1.9412498999999999,7.156269073486328,-5.674258232116699,0.3974374830722809,-7.5531005859375,-44.5404052734375,-42.6483154296875
1.9437499,7.156269073486328,-5.674258232116699,0.3974374830722809,-7.5531005859375,-44.5404052734375,-42.6483154296875
1.9462499,7.062894821166992,-5.485116004943848,0.7254431247711182,-11.932373046875,-47.7294921875,-40.2069091796875
1.9487499,7.062894821166992,-5.485116004943848,0.7254431247711182,-11.932373046875,-47.7294921875,-40.2069091796875
1.9512498999999999,7.307103633880615,-5.219359874725342,0.8954314589500427,-8.819580078125,-45.3948974609375,-40.191650390625
1.9537499,7.307103633880615,-5.219359874725342,0.8954314589500427,-8.819580078125,-45.3948974609375,-40.191650390625
1.9562499,7.340622425079346,-5.0014872550964355,0.7972691655158997,-10.3759765625,-46.0662841796875,-39.8712158203125
1.9587499,7.340622425079346,-5.0014872550964355,0.7972691655158997,-10.3759765625,-46.0662841796875,-39.8712158203125
1.9612498999999999,7.089231014251709,-4.970362663269043,0.5027823448181152,-8.8958740234375,-48.3856201171875,-40.130615234375
1.9637499,7.089231014251709,-4.970362663269043,0.5027823448181152,-8.8958740234375,-48.3856201171875,-40.130615234375
1.9662499,7.022193431854248,-4.989516258239746,0.19632454216480255,-7.4615478515625,-48.9501953125,-40.5120849609375
1.9687499,7.022193431854248,-4.989516258239746,0.19632454216480255,-7.4615478515625,-48.9501953125,-40.5120849609375
1.9712498999999999,7.129932880401611,-4.991910457611084,0.11013327538967133,-7.4615478515625,-49.2401123046875,-40.924072265625
1.9737499,7.129932880401611,-4.991910457611084,0.11013327538967133,-7.4615478515625,-49.2401123046875,-40.924072265625
1.9762499,7.230489253997803,-5.023035049438477,0.16998831927776337,-6.53076171875,-49.4232177734375,-41.046142578125
1.9787499,7.230489253997803,-5.023035049438477,0.16998831927776337,-6.53076171875,-49.4232177734375,-41.046142578125
1.9812499,7.3023152351379395,-4.967968463897705,0.22026655077934265,-6.8206787109375,-48.7518310546875,-41.0919189453125
1.9837499,7.3023152351379395,-4.967968463897705,0.22026655077934265,-6.8206787109375,-48.7518310546875,-41.0919189453125
1.9862499,7.38132381439209,-4.702212333679199,0.2513911724090576,-8.60595703125,-48.7060546875,-40.6341552734375
1.9887499,7.38132381439209,-4.702212333679199,0.2513911724090576,-8.60595703125,-48.7060546875,-40.6341552734375
1.9912499,7.4770917892456055,-4.357447147369385,0.2753331959247589,-11.9476318359375,-48.583984375,-40.52734375
1.9937498999999999,7.4770917892456055,-4.357447147369385,0.2753331959247589,-11.9476318359375,-48.583984375,-40.52734375
1.9962499,7.515398979187012,-4.122815132141113,0.3208230137825012,-15.0909423828125,-47.943115234375,-40.34423828125
1.9987499,7.515398979187012,-4.122815132141113,0.3208230137825012,-15.0909423828125,-47.943115234375,-40.34423828125
2.0012499,7.469909191131592,-4.000710964202881,0.3878606855869293,-18.707275390625,-47.7447509765625,-40.3900146484375
2.0037499,7.433996200561523,-3.950432777404785,0.43095630407333374,-20.751953125,-47.2869873046875,-40.58837890625
2.0062499,7.390900611877441,-3.885789394378662,0.48602294921875,-22.5830078125,-47.088623046875,-40.5731201171875
2.0087498999999998,7.38132381439209,-3.825934410095215,0.49320554733276367,-24.90234375,-47.4395751953125,-40.496826171875
2.0112499,7.395689010620117,-3.732560396194458,0.47405192255973816,-27.191162109375,-46.38671875,-41.534423828125
2.0137499,7.429207801818848,-3.6320040225982666,0.3758896589279175,-28.656005859375,-45.379638671875,-42.1600341796875
2.0162499,7.453149795532227,-3.5410242080688477,0.24181437492370605,-30.9600830078125,-45.0439453125,-42.2515869140625
2.0187499,7.422025203704834,-3.4596214294433594,0.09576806426048279,-33.7371826171875,-44.73876953125,-43.487548828125
2.0212499,7.347805023193359,-3.4308910369873047,-0.038307227194309235,-36.3922119140625,-45.318603515625,-44.403076171875
2.0237499,7.2568254470825195,-3.442862033843994,-0.14365209639072418,-38.9556884765625,-46.112060546875,-44.708251953125
2.0262499,7.194576263427734,-3.4979286193847656,-0.22505496442317963,-41.07666015625,-46.875,-44.9981689453125
2.0287498999999998,7.1921820640563965,-3.584120035171509,-0.2753331959247589,-43.243408203125,-47.4395751953125,-45.34912109375
2.0312499,7.252037048339844,-3.708618402481079,-0.31364041566848755,-45.8831787109375,-47.5006103515625,-45.83740234375
2.0337499,7.376535415649414,-3.8570590019226074,-0.3447650372982025,-47.821044921875,-47.7142333984375,-45.9747314453125
2.0362499,7.5417351722717285,-4.015076160430908,-0.38307225704193115,-49.3927001953125,-47.6531982421875,-46.0205078125
2.0387499,7.740454196929932,-4.144362926483154,-0.4357447028160095,-51.4373779296875,-47.210693359375,-46.0968017578125
2.0412499,7.922413349151611,-4.228160381317139,-0.49799394607543945,-53.466796875,-46.4935302734375,-45.8984375
2.0437499,8.075642585754395,-4.2760443687438965,-0.5722141861915588,-55.96923828125,-45.806884765625,-45.928955078125
2.0462499,8.161833763122559,-4.314351558685303,-0.6536170840263367,-58.28857421875,-45.4254150390625,-45.867919921875
2.0487499,8.176198959350586,-4.350264549255371,-0.7230489253997803,-59.8602294921875,-44.8760986328125,-46.1578369140625
2.0512498999999997,8.164227485656738,-4.431667327880859,-0.7996633648872375,-61.4776611328125,-45.1507568359375,-46.1578369140625
2.0537499,8.133103370666504,-4.5394062995910645,-0.8475474119186401,-63.04931640625,-45.318603515625,-46.142578125
2.0562499,8.135497093200684,-4.661510944366455,-0.871489405632019,-63.751220703125,-45.3948974609375,-46.20361328125
2.0587499,8.180987358093262,-4.797980308532715,-0.8762778043746948,-64.4683837890625,-45.5169677734375,-45.7611083984375
2.0612499,8.267178535461426,-4.9152960777282715,-0.8475474119186401,-65.277099609375,-45.5474853515625,-45.379638671875
2.0637499,8.38688850402832,-5.03021764755249,-0.8259995579719543,-66.10107421875,-45.135498046875,-45.074462890625
2.0662499,8.497021675109863,-5.116408824920654,-0.8044517636299133,-66.314697265625,-44.342041015625,-45.1507568359375
2.0687499,8.56884765625,-5.190629482269287,-0.8020575642585754,-65.8111572265625,-43.6859130859375,-45.0439453125
2.0712498999999998,8.571242332458496,-5.214571475982666,-0.8068459630012512,-65.7501220703125,-43.4722900390625,-44.98291015625
2.0737499,8.516175270080566,-5.224148273468018,-0.8523358106613159,-66.0858154296875,-43.5028076171875,-44.3572998046875
2.0762499,8.425195693969727,-5.183446884155273,-0.8906430602073669,-66.2994384765625,-43.2586669921875,-44.9371337890625
2.0787499,8.35336971282959,-5.123591423034668,-0.9528923034667969,-66.2841796875,-43.182373046875,-45.135498046875
2.0812499,8.334216117858887,-5.061342239379883,-1.0055646896362305,-66.6961669921875,-43.0755615234375,-44.8455810546875
2.0837499,8.348581314086914,-4.987122058868408,-1.0295066833496094,-67.047119140625,-42.4957275390625,-45.379638671875
2.0862499,8.401253700256348,-4.953603267669678,-1.0247182846069336,-67.1234130859375,-42.236328125,-45.623779296875
2.0887499,8.458714485168457,-4.95120906829834,-0.9672574996948242,-67.2454833984375,-42.327880859375,-45.3643798828125
2.0912498999999998,8.540117263793945,-5.015852451324463,-0.912190854549408,-67.1844482421875,-42.5567626953125,-45.1507568359375
2.0937499,8.619126319885254,-5.125985622406006,-0.8451532125473022,-66.7572021484375,-41.8243408203125,-45.41015625
2.0962499,8.686163902282715,-5.2696380615234375,-0.8068459630012512,-66.1468505859375,-40.283203125,-45.3643798828125
2.0987499,8.71728801727295,-5.430049419403076,-0.8020575642585754,-66.0247802734375,-39.5965576171875,-44.5709228515625
2.1012499,8.702922821044922,-5.571307182312012,-0.8355764150619507,-65.49072265625,-39.642333984375,-44.0216064453125
2.1037499,8.688557624816895,-5.679046630859375,-0.9193734526634216,-64.63623046875,-39.6575927734375,-43.64013671875
2.1062499,8.702922821044922,-5.719748020172119,-1.048660397529602,-63.934326171875,-39.24560546875,-43.45703125
2.1087499,8.774748802185059,-5.686229228973389,-1.1971008777618408,-63.1103515625,-38.6505126953125,-43.121337890625
2.1112499,8.884882926940918,-5.600037574768066,-1.3431471586227417,-62.9119873046875,-38.1927490234375,-42.4041748046875
2.1137498999999997,9.002198219299316,-5.473145008087158,-1.4700398445129395,-62.591552734375,-37.322998046875,-42.2515869140625
2.1162499,9.083600997924805,-5.372588634490967,-1.5753847360610962,-61.8133544921875,-36.376953125,-42.236328125
2.1187499,9.10993766784668,-5.327098846435547,-1.656787633895874,-61.8438720703125,-35.9649658203125,-41.8853759765625
2.1212499,9.066842079162598,-5.360617637634277,-1.7094600200653076,-61.492919921875,-35.3851318359375,-41.900634765625
2.1237499,8.968679428100586,-5.47075080871582,-1.7310078144073486,-60.3790283203125,-34.9578857421875,-41.9921875
2.1262499,8.851364135742188,-5.631162166595459,-1.723825216293335,-59.4940185546875,-34.60693359375,-41.4886474609375
2.1287499,8.741230010986328,-5.762843608856201,-1.6831238269805908,-58.380126953125,-34.2864990234375,-41.0614013671875
2.1312499,8.702922821044922,-5.856217384338379,-1.6280571222305298,-57.1746826171875,-34.1033935546875,-40.679931640625
2.1337498999999998,8.724471092224121,-5.916072368621826,-1.577778935432434,-56.0760498046875,-33.8897705078125,-40.435791015625
2.1362499,8.789113998413086,-5.916072368621826,-1.5083470344543457,-53.9093017578125,-32.623291015625,-41.2139892578125
2.1387499,8.868123054504395,-5.904101371765137,-1.460463047027588,-51.3458251953125,-31.9976806640625,-40.6494140625
2.1412499,8.93037223815918,-5.856217384338379,-1.4173674583435059,-49.9267578125,-32.1502685546875,-39.8712158203125
2.1437499,8.980650901794434,-5.781997203826904,-1.381454348564148,-48.5076904296875,-31.7840576171875,-39.73388671875
2.1462499,9.023746490478516,-5.717353820800781,-1.3694833517074585,-46.93603515625,-31.005859375,-40.0848388671875
2.1487499,9.05487060546875,-5.686229228973389,-1.3694833517074585,-44.9676513671875,-30.2581787109375,-40.0238037109375
2.1512499,9.05487060546875,-5.69580602645874,-1.3766659498214722,-43.0755615234375,-29.754638671875,-39.794921875
2.1537498999999998,9.014169692993164,-5.748478412628174,-1.3862427473068237,-40.6951904296875,-29.510498046875,-39.85595703125
2.1562499,8.93037223815918,-5.767632007598877,-1.3551181554794312,-38.787841796875,-28.9764404296875,-39.8406982421875
2.1587499,8.887276649475098,-5.856217384338379,-1.359906554222107,-37.5213623046875,-29.6173095703125,-39.7186279296875
2.1612499,8.875306129455566,-5.91128396987915,-1.3311761617660522,-35.7513427734375,-28.8543701171875,-39.4439697265625
2.1637499,8.882488250732422,-5.9519853591918945,-1.2689268589019775,-32.196044921875,-27.801513671875,-38.9404296875
2.1662499,8.920795440673828,-6.076483726501465,-1.278503656387329,-31.06689453125,-27.5726318359375,-38.6810302734375
2.1687499,8.978256225585938,-6.1530985832214355,-1.2521674633026123,-27.2369384765625,-28.80859375,-37.567138671875
2.1712499,9.035717010498047,-6.203376770019531,-1.256955862045288,-22.003173828125,-27.191162109375,-36.62109375
2.1737499,9.117119789123535,-6.208165168762207,-1.2665326595306396,-21.331787109375,-25.634765625,-36.468505859375
2.1762499,9.17936897277832,-6.114790916442871,-1.2665326595306396,-20.416259765625,-24.993896484375,-35.82763671875
2.1787499,9.181763648986816,-5.949591159820557,-1.278503656387329,-17.486572265625,-24.47509765625,-35.33935546875
2.1812499,9.121908187866211,-5.796362400054932,-1.3431471586227417,-15.5181884765625,-24.0936279296875,-35.0799560546875
2.1837499,9.028534889221191,-5.679046630859375,-1.4460978507995605,-13.702392578125,-23.651123046875,-34.5611572265625
2.1862499,8.9064302444458,-5.595249176025391,-1.556231141090393,-10.8489990234375,-23.4222412109375,-33.99658203125
2.1887499,8.793902397155762,-5.549759387969971,-1.6519991159439087,-8.4075927734375,-23.4375,-33.5693359375
2.1912499,8.698134422302246,-5.489904403686523,-1.699883222579956,-6.805419921875,-23.3612060546875,-32.9742431640625
2.1937499,8.628703117370605,-5.394136428833008,-1.702277421951294,-5.8135986328125,-23.193359375,-32.745361328125
2.1962498999999998,8.585607528686523,-5.262455463409424,-1.6639702320098877,-5.7373046875,-22.9034423828125,-32.440185546875
2.1987499,8.571242332458496,-5.125985622406006,-1.6089035272598267,-5.55419921875,-22.64404296875,-32.318115234375
2.2012499,8.583212852478027,-5.018246650695801,-1.5514427423477173,-5.035400390625,-22.52197265625,-32.1044921875
2.2037499,8.614337921142578,-4.963180065155029,-1.5203180313110352,-4.241943359375,-22.1099853515625,-32.04345703125
2.2062499,8.655038833618164,-4.946420669555664,-1.5131354331970215,-3.11279296875,-21.1944580078125,-31.55517578125
2.2087499,8.686163902282715,-4.95120906829834,-1.5298948287963867,-2.0599365234375,-20.6756591796875,-31.3873291015625
2.2112499,8.695740699768066,-4.948814868927002,-1.5610195398330688,-1.4190673828125,-20.172119140625,-30.9906005859375
2.2137499,8.688557624816895,-4.929661273956299,-1.5945383310317993,-0.6866455078125,-19.6380615234375,-30.914306640625
2.2162498999999998,8.669404029846191,-4.891354084014893,-1.6304513216018677,0,-19.10400390625,-30.853271484375
2.2187499,8.65982723236084,-4.843470096588135,-1.6543933153152466,0.79345703125,-18.707275390625,-31.158447265625
2.2212499,8.65743350982666,-4.788403511047363,-1.678335428237915,1.5869140625,-18.1732177734375,-31.2347412109375
2.2237499,8.650250434875488,-4.728548526763916,-1.6974890232086182,2.4871826171875,-17.76123046875,-31.0516357421875
2.2262499,8.640673637390137,-4.656722068786621,-1.7142484188079834,3.509521484375,-17.547607421875,-31.3262939453125
2.2287499,8.611943244934082,-4.577713489532471,-1.721431016921997,4.33349609375,-17.333984375,-31.4178466796875
2.2312499,8.588001251220703,-4.503493309020996,-1.723825216293335,5.0811767578125,-17.3187255859375,-31.3720703125
2.2337499,8.571242332458496,-4.448426723480225,-1.7142484188079834,6.2255859375,-17.1051025390625,-31.158447265625
2.2362499,8.573636054992676,-4.414907932281494,-1.6974890232086182,6.9732666015625,-16.9525146484375,-31.0516357421875
2.2387499,8.585607528686523,-4.400542736053467,-1.6711528301239014,8.23974609375,-16.6473388671875,-31.1126708984375
2.2412499,8.59997272491455,-4.393360137939453,-1.6400281190872192,9.2620849609375,-16.2200927734375,-31.036376953125
2.2437499,8.60236644744873,-4.37420654296875,-1.599326729774475,10.2386474609375,-16.265869140625,-30.670166015625
2.2462499,8.595184326171875,-4.304774761199951,-1.5442601442337036,11.4898681640625,-15.9759521484375,-30.6549072265625
2.2487499,8.585607528686523,-4.110844135284424,-1.4987702369689941,12.3443603515625,-15.411376953125,-30.975341796875
2.2512499,8.583212852478027,-3.823540210723877,-1.4628572463989258,11.5966796875,-14.9383544921875,-31.3262939453125
2.2537499,8.56884765625,-3.5051112174987793,-1.460463047027588,8.5906982421875,-14.0533447265625,-31.92138671875
2.2562499,8.53293514251709,-3.2537200450897217,-1.5083470344543457,7.3699951171875,-13.427734375,-32.745361328125
2.2587498999999998,8.47547435760498,-3.184288263320923,-1.6089035272598267,7.4005126953125,-13.885498046875,-32.6690673828125
2.2612499,8.398859977722168,-3.2561142444610596,-1.745373010635376,7.50732421875,-13.824462890625,-32.3944091796875
2.2637499,8.346187591552734,-3.354276657104492,-1.9105730056762695,7.99560546875,-13.7939453125,-31.890869140625
2.2662499,8.31985092163086,-3.3279404640197754,-2.056619167327881,7.6446533203125,-13.336181640625,-31.5704345703125
2.2687499,8.329427719116211,-3.162740468978882,-2.1763293743133545,4.9591064453125,-12.9547119140625,-31.2957763671875
2.2712499,8.33182144165039,-2.920926094055176,-2.2577321529388428,0.8392333984375,-12.5274658203125,-31.6314697265625
2.2737499,8.315062522888184,-2.719813108444214,-2.3032219409942627,-1.15966796875,-12.1917724609375,-32.3028564453125
2.2762499,8.267178535461426,-2.6431987285614014,-2.33913516998291,-1.0833740234375,-12.14599609375,-32.257080078125
2.2787498999999998,8.20492935180664,-2.6455929279327393,-2.3582887649536133,-1.1138916015625,-12.664794921875,-32.0587158203125
2.2812499,8.154650688171387,-2.6384103298187256,-2.3535003662109375,-2.0599365234375,-12.6190185546875,-31.9671630859375
2.2837499,8.130708694458008,-2.580949544906616,-2.3271639347076416,-3.875732421875,-12.02392578125,-32.4554443359375
2.2862499,8.121131896972656,-2.4851813316345215,-2.2673089504241943,-5.7525634765625,-11.6119384765625,-32.958984375
2.2887499,8.123526573181152,-2.4205379486083984,-2.1930887699127197,-7.293701171875,-11.474609375,-33.294677734375
2.2912499,8.1139497756958,-2.4133553504943848,-2.1045033931732178,-8.36181640625,-11.3525390625,-33.4320068359375
2.2937499,8.106766700744629,-2.4636335372924805,-2.008735179901123,-8.8958740234375,-11.53564453125,-33.7982177734375
2.2962499,8.097189903259277,-2.5306711196899414,-1.900996208190918,-9.1094970703125,-11.474609375,-33.966064453125
2.2987499,8.10437297821045,-2.559401512145996,-1.7860745191574097,-9.6893310546875,-11.474609375,-33.9202880859375
2.3012499,8.130708694458008,-2.5330653190612793,-1.6735470294952393,-10.55908203125,-11.3525390625,-34.3017578125
2.3037499,8.180987358093262,-2.4660277366638184,-1.5849615335464478,-11.6119384765625,-10.772705078125,-34.8968505859375
2.3062499,8.236053466796875,-2.3918075561523438,-1.522712230682373,-12.39013671875,-10.406494140625,-35.21728515625
2.3087499,8.288725852966309,-2.3558945655822754,-1.4963760375976562,-13.031005859375,-10.345458984375,-35.675048828125
2.3112499,8.310274124145508,-2.3774423599243164,-1.482010841369629,-13.3514404296875,-9.9945068359375,-36.102294921875
2.3137499,8.317456245422363,-2.470816135406494,-1.479616641998291,-13.7176513671875,-10.009765625,-36.376953125
2.3162499,8.307879447937012,-2.63362193107605,-1.479616641998291,-14.16015625,-9.8724365234375,-36.224365234375
2.3187499,8.303091049194336,-2.875436305999756,-1.4724340438842773,-14.16015625,-9.7503662109375,-36.3311767578125
2.3212498999999998,8.303091049194336,-3.1675288677215576,-1.4652514457702637,-12.87841796875,-9.46044921875,-36.651611328125
2.3237499,8.329427719116211,-3.4380736351013184,-1.4317326545715332,-10.8489990234375,-9.246826171875,-36.0260009765625
2.3262499,8.403648376464844,-3.555389642715454,-1.41257905960083,-8.697509765625,-9.3231201171875,-35.064697265625
2.3287499,8.504204750061035,-3.4763808250427246,-1.3766659498214722,-7.7362060546875,-9.09423828125,-34.2864990234375
2.3312499,8.62630844116211,-3.2609026432037354,-1.338358759880066,-9.9029541015625,-8.2244873046875,-34.3170166015625
2.3337499,8.746018409729004,-3.0837318897247314,-1.3192051649093628,-11.871337890625,-7.8277587890625,-33.9202880859375
2.3362499,8.822632789611816,-3.098097085952759,-1.3215993642807007,-10.9405517578125,-7.4920654296875,-33.0352783203125
2.3387499,8.87291145324707,-3.3207578659057617,-1.3670891523361206,-7.2021484375,-6.4544677734375,-31.92138671875
2.3412498999999998,8.875306129455566,-3.643975019454956,-1.4532804489135742,-3.662109375,-5.7220458984375,-30.57861328125
2.3437499,8.841787338256836,-3.9001545906066895,-1.5514427423477173,-1.617431640625,-5.5694580078125,-28.8848876953125
2.3462499,8.78432559967041,-4.015076160430908,-1.647210717201233,-0.8544921875,-4.8828125,-27.6336669921875
2.3487499,8.734047889709473,-4.005499362945557,-1.7142484188079834,-0.091552734375,-4.608154296875,-26.397705078125
2.3512499,8.712499618530273,-3.9193081855773926,-1.766920804977417,1.0986328125,-4.4403076171875,-25.2532958984375
2.3537499,8.724471092224121,-3.8115692138671875,-1.7932571172714233,3.0517578125,-3.8909912109375,-24.0478515625
2.3562499,8.765172004699707,-3.706224203109741,-1.802833914756775,4.791259765625,-3.0975341796875,-22.857666015625
2.3587499,8.808267593383789,-3.584120035171509,-1.8124107122421265,6.744384765625,-2.655029296875,-21.66748046875
2.3612499,8.846575736999512,-3.4356794357299805,-1.821987509727478,8.270263671875,-2.227783203125,-20.6756591796875
2.3637499,8.865729331970215,-3.272873640060425,-1.843535304069519,9.27734375,-1.40380859375,-20.1568603515625
2.3662499,8.865729331970215,-3.1028854846954346,-1.8818424940109253,10.3759765625,-0.54931640625,-19.47021484375
2.3687499,8.856152534484863,-2.96162748336792,-1.9177556037902832,11.566162109375,-0.18310546875,-18.98193359375
2.3712499,8.841787338256836,-2.87064790725708,-1.9512743949890137,12.5579833984375,0.1373291015625,-18.4783935546875
2.3737499,8.83699893951416,-2.8395233154296875,-1.9632453918457031,13.763427734375,0.3662109375,-17.8680419921875
2.3762499,8.848969459533691,-2.8802247047424316,-1.965639591217041,14.892578125,0.6561279296875,-17.059326171875
2.3787499,8.884882926940918,-2.978386878967285,-1.9512743949890137,16.3116455078125,1.1138916015625,-16.2353515625
2.3812499,8.942343711853027,-3.1244332790374756,-1.941697597503662,17.578125,1.40380859375,-15.380859375
2.3837498999999998,9.01895809173584,-3.2824504375457764,-1.941697597503662,19.1497802734375,1.77001953125,-14.3890380859375
2.3862499,9.102754592895508,-3.421314239501953,-1.968033790588379,20.5230712890625,2.227783203125,-13.4429931640625
2.3887499,9.186552047729492,-3.5218706130981445,-2.013523578643799,22.15576171875,2.8839111328125,-12.3291015625
2.3912499,9.253589630126953,-3.5721490383148193,-2.0590133666992188,23.6053466796875,3.1280517578125,-11.3677978515625
2.3937499,9.301473617553711,-3.579331636428833,-2.10210919380188,24.871826171875,3.4027099609375,-10.55908203125
2.3962499,9.32541561126709,-3.5625722408294678,-2.121262788772583,25.87890625,3.509521484375,-9.6282958984375
2.3987499,9.330204010009766,-3.5434184074401855,-2.10210919380188,26.9012451171875,3.5858154296875,-8.9569091796875
2.4012499,9.327810287475586,-3.531447410583496,-2.054224967956543,27.923583984375,3.7994384765625,-8.148193359375
2.4037498999999998,9.32541561126709,-3.5458126068115234,-1.9823989868164062,29.0679931640625,3.7841796875,-7.38525390625
2.4062499,9.339780807495117,-3.5697548389434814,-1.889025092124939,29.7698974609375,3.8604736328125,-6.7901611328125
2.4087499,9.363722801208496,-3.5865142345428467,-1.7980455160140991,30.7464599609375,4.2572021484375,-5.79833984375
2.4112499,9.402029991149902,-3.5960910320281982,-1.7142484188079834,31.280517578125,4.3792724609375,-5.126953125
2.4137499,9.437943458557129,-3.5745432376861572,-1.647210717201233,31.707763671875,4.547119140625,-4.791259765625
2.4162499,9.47146224975586,-3.5194764137268066,-1.6065093278884888,32.65380859375,4.974365234375,-4.6234130859375
2.4187499,9.497797966003418,-3.4356794357299805,-1.5969325304031372,33.3709716796875,5.3558349609375,-4.6844482421875
2.4212499,9.512163162231445,-3.3303346633911133,-1.6136919260025024,33.7371826171875,5.3863525390625,-4.852294921875
2.4237499,9.514557838439941,-3.2178070545196533,-1.6639702320098877,33.6151123046875,5.3558349609375,-5.2642822265625
2.4262499,9.50737476348877,-3.1268274784088135,-1.7190368175506592,33.6456298828125,5.5389404296875,-5.37109375
2.4287499,9.493009567260742,-3.066972494125366,-1.7693150043487549,33.8287353515625,5.5389404296875,-5.4779052734375
2.4312499,9.478644371032715,-3.045424461364746,-1.7956513166427612,33.6151123046875,5.3863525390625,-5.9814453125
2.4337499,9.47146224975586,-3.0526070594787598,-1.7884687185287476,33.5235595703125,5.096435546875,-6.317138671875
2.4362499,9.473855972290039,-3.0765492916107178,-1.7549498081207275,33.050537109375,5.0811767578125,-6.65283203125
2.4387499,9.490615844726562,-3.1100680828094482,-1.699883222579956,32.7911376953125,4.69970703125,-6.7596435546875
2.4412499,9.509769439697266,-3.138798475265503,-1.6400281190872192,32.6080322265625,4.4097900390625,-6.7138671875
2.4437499,9.524134635925293,-3.1459810733795166,-1.580173134803772,32.318115234375,4.5318603515625,-6.89697265625
2.4462498999999998,9.53849983215332,-3.0573954582214355,-1.4987702369689941,31.341552734375,4.1046142578125,-6.9122314453125
2.4487499,9.53849983215332,-3.0573954582214355,-1.4987702369689941,31.341552734375,4.1046142578125,-6.9122314453125
2.4512499,9.5624418258667,-2.8658595085144043,-1.5442601442337036,29.5257568359375,4.33349609375,-7.1868896484375
2.4537499,9.5624418258667,-2.8658595085144043,-1.5442601442337036,29.5257568359375,4.33349609375,-7.1868896484375
2.4562499,9.605537414550781,-2.7006595134735107,-1.7334020137786865,26.9775390625,4.3487548828125,-7.0037841796875
2.4587499,9.605537414550781,-2.7006595134735107,-1.7334020137786865,26.9775390625,4.3487548828125,-7.0037841796875
2.4612499,9.600749015808105,-2.585737943649292,-1.9512743949890137,24.0936279296875,3.875732421875,-6.4849853515625
2.4637499,9.600749015808105,-2.585737943649292,-1.9512743949890137,24.0936279296875,3.875732421875,-6.4849853515625
2.4662498999999998,9.488221168518066,-2.451662540435791,-2.0590133666992188,20.050048828125,3.5400390625,-5.9051513671875
2.4687499,9.488221168518066,-2.451662540435791,-2.0590133666992188,20.050048828125,3.5400390625,-5.9051513671875
2.4712499,9.327810287475586,-2.2577321529388428,-2.0015525817871094,15.5792236328125,2.166748046875,-5.767822265625
2.4737499,9.327810287475586,-2.2577321529388428,-2.0015525817871094,15.5792236328125,2.166748046875,-5.767822265625
2.4762499,9.263166427612305,-1.9991583824157715,-1.8339585065841675,11.0321044921875,1.1444091796875,-6.103515625
2.4787499,9.263166427612305,-1.9991583824157715,-1.8339585065841675,11.0321044921875,1.1444091796875,-6.103515625
2.4812499,9.301473617553711,-1.7573440074920654,-1.656787633895874,5.828857421875,0.2288818359375,-6.622314453125
2.4837499,9.301473617553711,-1.7573440074920654,-1.656787633895874,5.828857421875,0.2288818359375,-6.622314453125
2.4862499,9.349357604980469,-1.6759412288665771,-1.53707754611969,1.64794921875,-0.885009765625,-7.3394775390625
2.4887499,9.349357604980469,-1.6759412288665771,-1.53707754611969,1.64794921875,-0.885009765625,-7.3394775390625
2.4912499,9.35654067993164,-1.7717092037200928,-1.4939818382263184,-2.2735595703125,-1.7547607421875,-7.720947265625
2.4937499,9.35654067993164,-1.7717092037200928,-1.4939818382263184,-2.2735595703125,-1.7547607421875,-7.720947265625
2.4962499,9.337387084960938,-1.9704279899597168,-1.4844050407409668,-5.218505859375,-2.44140625,-8.23974609375
2.4987499,9.337387084960938,-1.9704279899597168,-1.4844050407409668,-5.218505859375,-2.44140625,-8.23974609375
2.5012499,9.299078941345215,-2.2026655673980713,-1.4484920501708984,-7.659912109375,-3.35693359375,-8.4686279296875
2.5037499,9.299078941345215,-2.2026655673980713,-1.4484920501708984,-7.659912109375,-3.35693359375,-8.4686279296875
2.5062499,9.244012832641602,-2.4420857429504395,-1.37906014919281,-9.033203125,-4.1351318359375,-8.5601806640625
2.5087498999999998,9.244012832641602,-2.4420857429504395,-1.37906014919281,-9.033203125,-4.1351318359375,-8.5601806640625
2.5112499,9.196128845214844,-2.6599581241607666,-1.2976573705673218,-9.21630859375,-4.8370361328125,-8.2550048828125
2.5137499,9.196128845214844,-2.6599581241607666,-1.2976573705673218,-9.21630859375,-4.8370361328125,-8.2550048828125
2.5162499,9.23682975769043,-2.808398485183716,-1.278503656387329,-9.246826171875,-4.7607421875,-7.9193115234375
2.5187499,9.23682975769043,-2.808398485183716,-1.278503656387329,-9.246826171875,-4.7607421875,-7.9193115234375
2.5212499,9.368511199951172,-2.9520506858825684,-1.3838485479354858,-8.270263671875,-4.180908203125,-7.5531005859375
2.5237499,9.368511199951172,-2.9520506858825684,-1.3838485479354858,-8.270263671875,-4.180908203125,-7.5531005859375
2.5262499,9.418789863586426,-3.184288263320923,-1.5107412338256836,-6.7291259765625,-3.8909912109375,-6.8206787109375
2.5287498999999998,9.418789863586426,-3.184288263320923,-1.5107412338256836,-6.7291259765625,-3.8909912109375,-6.8206787109375
2.5312499,9.320627212524414,-3.4763808250427246,-1.5179238319396973,-4.5623779296875,-3.875732421875,-5.9356689453125
2.5337499,9.320627212524414,-3.4763808250427246,-1.5179238319396973,-4.5623779296875,-3.875732421875,-5.9356689453125
