# Time (seconds),Accel_X,Accel_Y,Accel_Z,Gyro_X,Gyro_Y,Gyro_Z
0.0012499,8.741230010986328,-6.303933143615723,0.23702596127986908,-9.979248046875,-14.8468017578125,-0.9002685546875
0.0037499,8.753201484680176,-6.31829833984375,0.2322375625371933,-9.6588134765625,-14.70947265625,-1.9073486328125
0.0062499,8.755595207214355,-6.332663536071777,0.21547815203666687,-9.5977783203125,-14.95361328125,-2.9296875
0.0087499,8.755595207214355,-6.344634532928467,0.18914192914962769,-9.27734375,-15.0604248046875,-3.9825439453125
0.0112499,8.746018409729004,-6.356605529785156,0.14365209639072418,-8.7127685546875,-14.7247314453125,-4.6844482421875
0.0137499,8.736441612243652,-6.36378812789917,0.08858546614646912,-8.453369140625,-14.892578125,-5.5389404296875
0.016249899999999998,8.722076416015625,-6.366182327270508,0.033518824726343155,-8.1787109375,-14.9993896484375,-6.34765625
0.0187499,8.705317497253418,-6.36378812789917,-0.014365210197865963,-7.6751708984375,-15.13671875,-7.1258544921875
0.021249900000000002,8.678980827331543,-6.358999729156494,-0.05506663769483566,-7.4615478515625,-15.0604248046875,-7.8125
0.023749899999999997,8.652645111083984,-6.349422931671143,-0.08379705995321274,-7.1258544921875,-14.9383544921875,-8.5906982421875
0.0262499,8.616731643676758,-6.344634532928467,-0.10534487664699554,-6.7901611328125,-15.167236328125,-9.5367431640625
0.028749900000000002,8.588001251220703,-6.337451934814453,-0.12449848651885986,-6.3934326171875,-15.2740478515625,-10.2996826171875
0.031249899999999997,8.564059257507324,-6.3302693367004395,-0.1364694982767105,-6.0577392578125,-15.3350830078125,-10.8184814453125
0.0337499,8.537723541259766,-6.323086738586426,-0.15083470940589905,-5.8135986328125,-14.9383544921875,-11.41357421875
0.0362499,8.516175270080566,-6.313509941101074,-0.16759411990642548,-5.5694580078125,-14.923095703125,-12.359619140625
0.0387499,8.497021675109863,-6.301538944244385,-0.181959331035614,-5.31005859375,-14.892578125,-12.8021240234375
0.0412499,8.480262756347656,-6.294356346130371,-0.19871874153614044,-4.730224609375,-14.70947265625,-13.3056640625
0.0437499,8.468291282653809,-6.287173748016357,-0.22026655077934265,-4.4097900390625,-14.8773193359375,-14.3280029296875
0.0462499,8.458714485168457,-6.282385349273682,-0.24181437492370605,-3.692626953125,-14.984130859375,-14.923095703125
0.0487499,8.449137687683105,-6.282385349273682,-0.272938996553421,-3.173828125,-14.8162841796875,-15.411376953125
0.0512499,8.446743965148926,-6.282385349273682,-0.2944868206977844,-2.9296875,-14.6636962890625,-16.29638671875
0.053749899999999996,8.453926086425781,-6.287173748016357,-0.3208230137825012,-2.197265625,-14.862060546875,-16.876220703125
0.0562499,8.470685958862305,-6.303933143615723,-0.33758243918418884,-1.4190673828125,-14.7552490234375,-17.2271728515625
0.0587499,8.49941635131836,-6.315904140472412,-0.3519476354122162,-0.6256103515625,-14.5721435546875,-17.791748046875
0.061249899999999996,8.528146743774414,-6.327875137329102,-0.36152446269989014,0.1373291015625,-14.4805908203125,-18.3868408203125
0.0637499,8.561665534973145,-6.335057735443115,-0.3711012601852417,0.9002685546875,-14.3585205078125,-18.5089111328125
0.0662499,8.592789649963379,-6.327875137329102,-0.37828385829925537,1.8463134765625,-14.6026611328125,-18.7225341796875
0.0687499,8.609549522399902,-6.325480937957764,-0.3878606855869293,2.777099609375,-14.4500732421875,-19.2413330078125
0.0712499,8.621520042419434,-6.320692539215088,-0.3974374830722809,3.5400390625,-14.312744140625,-19.5159912109375
0.0737499,8.621520042419434,-6.311115741729736,-0.40940847992897034,4.486083984375,-14.2974853515625,-19.71435546875
0.0762499,8.62630844116211,-6.299144744873047,-0.4189853072166443,5.43212890625,-14.16015625,-19.71435546875
0.0787499,8.62630844116211,-6.277596950531006,-0.43095630407333374,6.16455078125,-14.09912109375,-19.8974609375
0.0812499,8.631096839904785,-6.251260757446289,-0.45010992884635925,6.9427490234375,-13.671875,-20.233154296875
0.0837499,8.635885238647461,-6.215347766876221,-0.4668693244457245,7.659912109375,-13.73291015625,-20.3399658203125
0.0862499,8.640673637390137,-6.174646377563477,-0.49320554733276367,8.23974609375,-13.5345458984375,-20.599365234375
0.0887499,8.650250434875488,-6.1267619132995605,-0.5171475410461426,9.0179443359375,-13.48876953125,-20.660400390625
0.0912499,8.662221908569336,-6.081272125244141,-0.5386953949928284,9.796142578125,-13.427734375,-21.0113525390625
0.0937499,8.681375503540039,-6.035782337188721,-0.5626373887062073,10.406494140625,-13.18359375,-21.270751953125
0.0962499,8.695740699768066,-5.987898349761963,-0.5770025849342346,10.986328125,-13.153076171875,-21.3165283203125
0.0987499,8.712499618530273,-5.944802761077881,-0.5889736413955688,11.53564453125,-13.0767822265625,-21.3775634765625
0.1012499,8.71728801727295,-5.904101371765137,-0.5937620401382446,11.90185546875,-13.2293701171875,-21.820068359375
0.1037499,8.71728801727295,-5.868188381195068,-0.5937620401382446,12.237548828125,-13.1378173828125,-21.97265625
0.1062499,8.707711219787598,-5.832275390625,-0.5913678407669067,12.6800537109375,-12.8936767578125,-22.0947265625
0.1087499,8.686163902282715,-5.7987565994262695,-0.5889736413955688,12.939453125,-12.8173828125,-22.39990234375
0.1112499,8.667010307312012,-5.762843608856201,-0.5889736413955688,13.4124755859375,-12.847900390625,-22.613525390625
0.1137499,8.635885238647461,-5.722142219543457,-0.5961562395095825,13.7786865234375,-12.8631591796875,-22.5982666015625
0.1162499,8.604761123657227,-5.683835029602051,-0.608127236366272,13.671875,-13.0157470703125,-22.7813720703125
0.1187499,8.573636054992676,-5.647922039031982,-0.6344634294509888,13.9007568359375,-12.939453125,-23.2391357421875
0.1212499,8.544905662536621,-5.612008571624756,-0.6607996821403503,14.0533447265625,-13.00048828125,-23.4832763671875
0.1237499,8.523358345031738,-5.583278179168701,-0.6967126727104187,13.8702392578125,-13.1378173828125,-23.651123046875
0.1262499,8.508993148803711,-5.552153587341309,-0.727837324142456,13.9923095703125,-13.1683349609375,-23.8037109375
0.1287499,8.49941635131836,-5.521028995513916,-0.768538773059845,13.885498046875,-13.2904052734375,-24.0936279296875
0.1312499,8.492233276367188,-5.4875102043151855,-0.7996633648872375,13.5345458984375,-13.3209228515625,-24.566650390625
0.1337499,8.487444877624512,-5.446808815002441,-0.8331822156906128,13.519287109375,-13.7176513671875,-24.7039794921875
0.1362499,8.485051155090332,-5.403713226318359,-0.8595184087753296,13.6871337890625,-13.916015625,-24.871826171875
0.1387499,8.487444877624512,-5.353435039520264,-0.8786720037460327,13.5040283203125,-14.2974853515625,-25.115966796875
0.1412499,8.489839553833008,-5.298368453979492,-0.8906430602073669,13.2598876953125,-14.6484375,-25.543212890625
0.1437499,8.506598472595215,-5.240907669067383,-0.9002198576927185,12.8326416015625,-15.045166015625,-25.81787109375
0.1462499,8.523358345031738,-5.188235282897949,-0.8930372595787048,12.481689453125,-15.289306640625,-26.031494140625
0.1487499,8.547300338745117,-5.142745018005371,-0.8858546018600464,12.1612548828125,-15.7012939453125,-26.3519287109375
0.1512499,8.576030731201172,-5.106832027435303,-0.8643068075180054,11.71875,-15.9454345703125,-26.336669921875
0.1537499,8.604761123657227,-5.073313236236572,-0.849941611289978,11.0626220703125,-16.357421875,-26.67236328125
0.1562499,8.633491516113281,-5.04218864440918,-0.8379706144332886,10.5133056640625,-16.5557861328125,-27.069091796875
0.1587499,8.662221908569336,-5.008669853210449,-0.8355764150619507,10.0555419921875,-16.815185546875,-27.2216796875
0.1612499,8.69095230102539,-4.977545261383057,-0.8451532125473022,9.3536376953125,-17.1661376953125,-27.6031494140625
0.1637499,8.710105895996094,-4.948814868927002,-0.8547300100326538,8.72802734375,-17.4560546875,-27.679443359375
0.1662499,8.724471092224121,-4.917690277099609,-0.8738836050033569,8.331298828125,-17.6544189453125,-27.7557373046875
0.1687499,8.731653213500977,-4.888959884643555,-0.8858546018600464,7.8277587890625,-17.9595947265625,-28.3660888671875
0.1712499,8.731653213500977,-4.855441093444824,-0.9026140570640564,7.171630859375,-18.2342529296875,-28.5491943359375
0.1737499,8.722076416015625,-4.817133903503418,-0.9169792532920837,6.591796875,-18.4783935546875,-28.778076171875
0.17624990000000001,8.702922821044922,-4.7836151123046875,-0.933738648891449,6.1187744140625,-18.707275390625,-29.052734375
0.1787499,8.686163902282715,-4.745307922363281,-0.9433154463768005,5.584716796875,-19.2108154296875,-29.3731689453125
0.1812499,8.645462036132812,-4.680664539337158,-0.9433154463768005,4.608154296875,-19.8974609375,-29.8309326171875
0.1837499,8.645462036132812,-4.680664539337158,-0.9433154463768005,4.608154296875,-19.8974609375,-29.8309326171875
0.1862499,8.62391471862793,-4.63517427444458,-0.9217676520347595,3.2958984375,-20.721435546875,-30.426025390625
0.1887499,8.62391471862793,-4.63517427444458,-0.9217676520347595,3.2958984375,-20.721435546875,-30.426025390625
0.1912499,8.631096839904785,-4.611232280731201,-0.8810662031173706,2.838134765625,-21.1181640625,-31.036376953125
0.1937499,8.631096839904785,-4.611232280731201,-0.8810662031173706,2.838134765625,-21.1181640625,-31.036376953125
0.1962499,8.652645111083984,-4.587290287017822,-0.8212111592292786,1.983642578125,-21.453857421875,-31.494140625
0.1987499,8.652645111083984,-4.587290287017822,-0.8212111592292786,1.983642578125,-21.453857421875,-31.494140625
0.2012499,8.662221908569336,-4.558559894561768,-0.751779317855835,1.28173828125,-21.97265625,-31.73828125
0.2037499,8.662221908569336,-4.558559894561768,-0.751779317855835,1.28173828125,-21.97265625,-31.73828125
0.2062499,8.683769226074219,-4.527435302734375,-0.689530074596405,0.885009765625,-21.9268798828125,-31.768798828125
0.20874990000000002,8.683769226074219,-4.527435302734375,-0.689530074596405,0.885009765625,-21.9268798828125,-31.768798828125
0.2112499,8.738836288452148,-4.477157115936279,-0.6368576288223267,0.3509521484375,-22.0947265625,-31.6162109375
0.2137499,8.738836288452148,-4.477157115936279,-0.6368576288223267,0.3509521484375,-22.0947265625,-31.6162109375
0.2162499,8.798690795898438,-4.4077253341674805,-0.5937620401382446,-0.457763671875,-21.6217041015625,-31.8603515625
0.2187499,8.798690795898438,-4.4077253341674805,-0.5937620401382446,-0.457763671875,-21.6217041015625,-31.8603515625
0.2212499,8.844181060791016,-4.345476150512695,-0.5602431893348694,-0.7171630859375,-21.148681640625,-31.3873291015625
0.2237499,8.844181060791016,-4.345476150512695,-0.5602431893348694,-0.7171630859375,-21.148681640625,-31.3873291015625
0.2262499,8.856152534484863,-4.304774761199951,-0.5434837937355042,-1.007080078125,-20.7977294921875,-31.1431884765625
0.2287499,8.856152534484863,-4.304774761199951,-0.5434837937355042,-1.007080078125,-20.7977294921875,-31.1431884765625
0.2312499,8.827422142028809,-4.280832767486572,-0.5267243981361389,-1.52587890625,-20.4925537109375,-30.6396484375
0.2337499,8.827422142028809,-4.280832767486572,-0.5267243981361389,-1.52587890625,-20.4925537109375,-30.6396484375
0.2362499,8.765172004699707,-4.268861770629883,-0.507570743560791,-1.6632080078125,-19.927978515625,-30.0140380859375
0.23874990000000001,8.765172004699707,-4.268861770629883,-0.507570743560791,-1.6632080078125,-19.927978515625,-30.0140380859375
0.2412499,8.683769226074219,-4.2760443687438965,-0.5051765441894531,-2.044677734375,-19.4549560546875,-29.3731689453125
0.2437499,8.683769226074219,-4.2760443687438965,-0.5051765441894531,-2.044677734375,-19.4549560546875,-29.3731689453125
0.2462499,8.592789649963379,-4.292803764343262,-0.5267243981361389,-1.8157958984375,-19.317626953125,-28.3966064453125
0.2487499,8.592789649963379,-4.292803764343262,-0.5267243981361389,-1.8157958984375,-19.317626953125,-28.3966064453125
0.2512499,8.506598472595215,-4.290409564971924,-0.5530605912208557,-1.6326904296875,-18.9056396484375,-27.4810791015625
0.25374990000000003,8.506598472595215,-4.290409564971924,-0.5530605912208557,-1.6326904296875,-18.9056396484375,-27.4810791015625
0.25624990000000003,8.427590370178223,-4.271255970001221,-0.5602431893348694,-1.03759765625,-18.4783935546875,-26.763916015625
0.25874990000000003,8.427590370178223,-4.271255970001221,-0.5602431893348694,-1.03759765625,-18.4783935546875,-26.763916015625
0.26124990000000003,8.35097599029541,-4.247313976287842,-0.5602431893348694,-0.6103515625,-18.3563232421875,-26.092529296875
0.26374990000000004,8.35097599029541,-4.247313976287842,-0.5602431893348694,-0.6103515625,-18.3563232421875,-26.092529296875
0.26624990000000004,8.281543731689453,-4.199429988861084,-0.5530605912208557,-0.06103515625,-18.218994140625,-25.2227783203125
0.26874990000000004,8.281543731689453,-4.199429988861084,-0.5530605912208557,-0.06103515625,-18.218994140625,-25.2227783203125
0.27124990000000004,8.224082946777344,-4.129997730255127,-0.5410895943641663,0.7171630859375,-18.280029296875,-24.5819091796875
0.27374990000000005,8.224082946777344,-4.129997730255127,-0.5410895943641663,0.7171630859375,-18.280029296875,-24.5819091796875
0.27624990000000005,8.176198959350586,-4.062960147857666,-0.5339069962501526,1.373291015625,-18.157958984375,-24.35302734375
0.27874990000000005,8.176198959350586,-4.062960147857666,-0.5339069962501526,1.373291015625,-18.157958984375,-24.35302734375
0.28124990000000005,8.145073890686035,-4.005499362945557,-0.5315127968788147,1.9378662109375,-18.0816650390625,-23.92578125
0.28374990000000005,8.145073890686035,-4.005499362945557,-0.5315127968788147,1.9378662109375,-18.0816650390625,-23.92578125
0.28624990000000006,8.121131896972656,-3.9217023849487305,-0.5291185975074768,2.410888671875,-18.1732177734375,-23.5748291015625
0.28874990000000006,8.121131896972656,-3.9217023849487305,-0.5291185975074768,2.410888671875,-18.1732177734375,-23.5748291015625
0.2912499,8.109161376953125,-3.8067808151245117,-0.524330198764801,2.62451171875,-18.0511474609375,-23.162841796875
0.2937499,8.109161376953125,-3.8067808151245117,-0.524330198764801,2.62451171875,-18.0511474609375,-23.162841796875
0.2962499,8.11634349822998,-3.6846764087677,-0.5339069962501526,2.4566650390625,-17.822265625,-22.918701171875
0.2987499,8.11634349822998,-3.6846764087677,-0.5339069962501526,2.4566650390625,-17.822265625,-22.918701171875
0.3012499,8.13789176940918,-3.5649664402008057,-0.5578489899635315,2.1514892578125,-17.8375244140625,-22.64404296875
0.3037499,8.13789176940918,-3.5649664402008057,-0.5578489899635315,2.1514892578125,-17.8375244140625,-22.64404296875
0.3062499,8.166622161865234,-3.4548330307006836,-0.5746083855628967,1.5411376953125,-17.3187255859375,-22.5372314453125
0.3087499,8.166622161865234,-3.4548330307006836,-0.5746083855628967,1.5411376953125,-17.3187255859375,-22.5372314453125
0.3112499,8.197746276855469,-3.361459255218506,-0.5650315880775452,0.6256103515625,-17.2882080078125,-22.735595703125
0.3137499,8.197746276855469,-3.361459255218506,-0.5650315880775452,0.6256103515625,-17.2882080078125,-22.735595703125
0.31624990000000003,8.24084186553955,-3.268085241317749,-0.545877993106842,-0.091552734375,-16.8609619140625,-22.52197265625
0.31874990000000003,8.24084186553955,-3.268085241317749,-0.545877993106842,-0.091552734375,-16.8609619140625,-22.52197265625
0.32124990000000003,8.288725852966309,-3.1699230670928955,-0.545877993106842,-1.434326171875,-15.8538818359375,-22.552490234375
0.32374990000000003,8.288725852966309,-3.1699230670928955,-0.545877993106842,-1.434326171875,-15.8538818359375,-22.552490234375
0.32624990000000004,8.327033042907715,-3.07415509223938,-0.5506663918495178,-2.7313232421875,-15.167236328125,-22.552490234375
0.32874990000000004,8.327033042907715,-3.07415509223938,-0.5506663918495178,-2.7313232421875,-15.167236328125,-22.552490234375
0.33124990000000004,8.360552787780762,-2.9903578758239746,-0.5386953949928284,-4.058837890625,-14.4500732421875,-22.3846435546875
0.33374990000000004,8.360552787780762,-2.9903578758239746,-0.5386953949928284,-4.058837890625,-14.4500732421875,-22.3846435546875
0.33624990000000005,8.398859977722168,-2.9328970909118652,-0.5051765441894531,-5.126953125,-13.2598876953125,-22.0184326171875
0.33874990000000005,8.398859977722168,-2.9328970909118652,-0.5051765441894531,-5.126953125,-13.2598876953125,-22.0184326171875
0.34124990000000005,8.439560890197754,-2.8826189041137695,-0.47884035110473633,-6.561279296875,-11.932373046875,-21.4385986328125
0.34374990000000005,8.439560890197754,-2.8826189041137695,-0.47884035110473633,-6.561279296875,-11.932373046875,-21.4385986328125
0.34624990000000005,8.47547435760498,-2.8443117141723633,-0.4405331015586853,-7.4462890625,-10.894775390625,-20.8282470703125
0.34874990000000006,8.47547435760498,-2.8443117141723633,-0.4405331015586853,-7.4462890625,-10.894775390625,-20.8282470703125
0.35124990000000006,8.508993148803711,-2.82515811920166,-0.3878606855869293,-8.209228515625,-9.521484375,-19.8516845703125
0.3537499,8.53532886505127,-2.8227639198303223,-0.363918662071228,-8.7738037109375,-8.4991455078125,-19.6533203125
0.3562499,8.56645393371582,-2.827552318572998,-0.3423708379268646,-9.063720703125,-8.0108642578125,-19.10400390625
0.3587499,8.604761123657227,-2.8347349166870117,-0.3208230137825012,-9.1094970703125,-7.1258544921875,-18.49365234375
0.3612499,8.638279914855957,-2.846705913543701,-0.304063618183136,-9.3231201171875,-6.2713623046875,-18.2037353515625
0.3637499,8.674192428588867,-2.853888511657715,-0.2801215946674347,-9.521484375,-5.584716796875,-17.63916015625
0.3662499,8.702922821044922,-2.8586769104003906,-0.26096799969673157,-9.4146728515625,-4.730224609375,-16.845703125
0.3687499,8.734047889709473,-2.8658595085144043,-0.23942017555236816,-9.2010498046875,-3.875732421875,-16.265869140625
0.3712499,8.765172004699707,-2.873042106628418,-0.21787235140800476,-9.09423828125,-2.9144287109375,-15.716552734375
0.3737499,8.801085472106934,-2.8826189041137695,-0.19871874153614044,-9.0179443359375,-1.9989013671875,-15.19775390625
0.3762499,8.827422142028809,-2.8993782997131348,-0.181959331035614,-8.4991455078125,-1.2359619140625,-14.4500732421875
0.37874990000000003,8.858546257019043,-2.9161376953125,-0.16759411990642548,-7.7972412109375,-0.5035400390625,-13.48876953125
0.38124990000000003,8.877699851989746,-2.940079689025879,-0.15562310814857483,-7.38525390625,0.2899169921875,-12.8021240234375
0.38374990000000003,8.901641845703125,-2.964021682739258,-0.14844051003456116,-6.7291259765625,0.9613037109375,-11.9781494140625
0.38624990000000003,8.923190116882324,-2.985569477081299,-0.14604631066322327,-5.8441162109375,1.7547607421875,-11.138916015625
0.38874990000000004,8.942343711853027,-3.00711727142334,-0.14365209639072418,-5.1116943359375,2.4871826171875,-10.31494140625
0.39124990000000004,8.959102630615234,-3.0142998695373535,-0.14604631066322327,-4.3182373046875,3.2196044921875,-9.307861328125
0.39374990000000004,8.973467826843262,-3.0190882682800293,-0.14365209639072418,-3.448486328125,3.6773681640625,-8.697509765625
0.39624990000000004,8.978256225585938,-3.00711727142334,-0.14604631066322327,-2.593994140625,4.5013427734375,-7.62939453125
0.39874990000000005,8.987833023071289,-2.999934673309326,-0.1412578970193863,-1.708984375,5.218505859375,-6.8359375
0.40124990000000005,8.995016098022461,-2.9879636764526367,-0.1412578970193863,-0.5950927734375,5.9356689453125,-6.072998046875
0.40374990000000005,9.009381294250488,-2.980781078338623,-0.14365209639072418,0.457763671875,6.3323974609375,-4.8828125
0.40624990000000005,9.026140213012695,-2.9712042808532715,-0.15083470940589905,1.373291015625,7.0648193359375,-3.9825439453125
0.40874990000000005,9.05247688293457,-2.9544448852539062,-0.1604115068912506,2.38037109375,7.4920654296875,-3.0364990234375
0.41124990000000006,9.078812599182129,-2.9257144927978516,-0.17477671802043915,3.4027099609375,8.1024169921875,-2.3040771484375
0.41374990000000006,9.105149269104004,-2.894589900970459,-0.1843535304069519,4.1351318359375,8.5906982421875,-1.5716552734375
0.41624990000000006,9.131484985351562,-2.8586769104003906,-0.19632454216480255,5.0811767578125,9.0484619140625,-0.4119873046875
0.4187499,9.150638580322266,-2.82515811920166,-0.20350714027881622,5.6915283203125,9.3536376953125,0.3814697265625
0.4212499,9.165003776550293,-2.786850690841675,-0.2106897532939911,6.40869140625,9.82666015625,1.2359619140625
0.4237499,9.169792175292969,-2.7461493015289307,-0.21308395266532898,7.0953369140625,10.2386474609375,2.105712890625
0.4262499,9.169792175292969,-2.7006595134735107,-0.21787235140800476,7.62939453125,10.2081298828125,2.74658203125
0.4287499,9.167398452758789,-2.6647465229034424,-0.22744916379451752,8.0108642578125,10.4522705078125,3.6773681640625
0.4312499,9.165003776550293,-2.628833532333374,-0.24181437492370605,8.4075927734375,10.589599609375,4.425048828125
0.4337499,9.165003776550293,-2.607285737991333,-0.2561795711517334,8.697509765625,10.8795166015625,5.31005859375
0.4362499,9.165003776550293,-2.58813214302063,-0.2777273952960968,9.063720703125,11.1236572265625,5.9356689453125
0.4387499,9.162610054016113,-2.580949544906616,-0.29209262132644653,9.2620849609375,11.3983154296875,6.3934326171875
0.44124990000000003,9.155426979064941,-2.5761611461639404,-0.304063618183136,9.1552734375,11.444091796875,7.049560546875
0.44374990000000003,9.14585018157959,-2.5761611461639404,-0.31364041566848755,9.1552734375,11.383056640625,7.62939453125
0.44624990000000003,9.136273384094238,-2.5785553455352783,-0.31842881441116333,9.4451904296875,11.260986328125,8.4228515625
0.44874990000000003,9.129091262817383,-2.583343744277954,-0.31842881441116333,9.6282958984375,11.3525390625,8.9111328125
0.45124990000000004,9.124302864074707,-2.5905263423919678,-0.3208230137825012,9.5367431640625,11.3983154296875,9.2010498046875
0.45374990000000004,9.121908187866211,-2.6024973392486572,-0.3256114423274994,9.6282958984375,11.3525390625,9.6893310546875
0.45624990000000004,9.119514465332031,-2.6144683361053467,-0.33039984107017517,9.429931640625,11.1846923828125,10.223388671875
0.45874990000000004,9.124302864074707,-2.63362193107605,-0.33758243918418884,9.5062255859375,10.833740234375,10.8642578125
0.46124990000000005,9.124302864074707,-2.655169725418091,-0.3423708379268646,9.521484375,10.9100341796875,11.4898681640625
0.46374990000000005,9.131484985351562,-2.6815059185028076,-0.33997663855552673,9.429931640625,10.80322265625,11.65771484375
0.46624990000000005,9.14345645904541,-2.7030537128448486,-0.33039984107017517,9.246826171875,10.406494140625,12.0391845703125
0.46874990000000005,9.160215377807617,-2.7246015071868896,-0.31124621629714966,9.002685546875,10.162353515625,12.2222900390625
0.47124990000000005,9.17697525024414,-2.734178304672241,-0.2849099934101105,8.880615234375,10.0555419921875,12.5274658203125
0.47374990000000006,9.198522567749023,-2.7461493015289307,-0.2537853717803955,8.636474609375,9.8724365234375,13.1988525390625
0.47624990000000006,9.21288776397705,-2.7557260990142822,-0.2322375625371933,8.48388671875,9.429931640625,13.4124755859375
0.47874990000000006,9.224859237670898,-2.7700912952423096,-0.2106897532939911,8.148193359375,9.2010498046875,13.3819580078125
0.4812499,9.229647636413574,-2.786850690841675,-0.19153612852096558,7.8887939453125,8.9874267578125,13.824462890625
0.4837499,9.232041358947754,-2.8107926845550537,-0.17717093229293823,7.598876953125,8.697509765625,13.763427734375
0.4862499,9.224859237670898,-2.8395233154296875,-0.15801730751991272,7.5836181640625,8.48388671875,13.85498046875
0.4887499,9.215282440185547,-2.8778305053710938,-0.1412578970193863,7.4462890625,8.087158203125,13.916015625
0.4912499,9.2033109664917,-2.920926094055176,-0.11971008777618408,7.049560546875,7.720947265625,14.09912109375
0.4937499,9.193734169006348,-2.9735984802246094,-0.0933738648891449,6.89697265625,7.6751708984375,14.1448974609375
0.4962499,9.191340446472168,-3.028665065765381,-0.06464344263076782,6.744384765625,7.2479248046875,14.495849609375
0.4987499,9.186552047729492,-3.0861260890960693,-0.028730420395731926,6.683349609375,6.866455078125,14.22119140625
0.5012499,9.188945770263672,-3.1531636714935303,0.002394201699644327,6.53076171875,6.6680908203125,14.190673828125
0.5037499000000001,9.186552047729492,-3.224989652633667,0.043095629662275314,6.3629150390625,6.561279296875,14.5263671875
0.5062499,9.17936897277832,-3.3063924312591553,0.07900865375995636,6.256103515625,6.2103271484375,14.6484375
0.5087499000000001,9.169792175292969,-3.3901896476745605,0.1149216815829277,6.195068359375,6.072998046875,14.678955078125
0.5112499,9.160215377807617,-3.4763808250427246,0.15083470940589905,6.34765625,5.8135986328125,14.556884765625
0.5137499,9.138668060302734,-3.555389642715454,0.1867477297782898,6.28662109375,5.4931640625,14.5721435546875
0.5162499,9.121908187866211,-3.6343982219696045,0.22266076505184174,6.28662109375,5.096435546875,14.70947265625
0.5187499,9.093177795410156,-3.7038300037384033,0.24899697303771973,6.4849853515625,4.7760009765625,14.6636962890625
0.5212499,9.071630477905273,-3.7684733867645264,0.27054479718208313,6.65283203125,4.69970703125,14.6636962890625
0.5237499,9.047688484191895,-3.825934410095215,0.2801215946674347,6.744384765625,4.4097900390625,14.4805908203125
0.5262499,9.026140213012695,-3.8762125968933105,0.28730419278144836,6.9580078125,3.90625,14.3280029296875
0.5287499,9.016563415527344,-3.9240965843200684,0.29209262132644653,7.2174072265625,3.875732421875,14.2364501953125
0.5312499,9.004592895507812,-3.9647979736328125,0.3016694188117981,7.232666015625,3.5247802734375,14.0228271484375
0.5337499,9.002198219299316,-4.005499362945557,0.3208230137825012,7.568359375,3.082275390625,13.5650634765625
0.5362499000000001,9.009381294250488,-4.039018154144287,0.3423708379268646,7.781982421875,2.7008056640625,13.336181640625
0.5387499,9.011775016784668,-4.07014274597168,0.3687070608139038,7.99560546875,2.3345947265625,13.0462646484375
0.5412499000000001,9.02135181427002,-4.10366153717041,0.3974374830722809,8.392333984375,1.953125,12.481689453125
0.5437499,9.023746490478516,-4.132391929626465,0.42616790533065796,8.6212158203125,1.800537109375,12.054443359375
0.5462499000000001,9.023746490478516,-4.1611223220825195,0.45010992884635925,8.941650390625,1.5869140625,11.688232421875
0.5487499,9.028534889221191,-4.19224739074707,0.4644751250743866,9.1705322265625,1.28173828125,11.260986328125
0.5512499000000001,9.028534889221191,-4.220977783203125,0.47405192255973816,9.4146728515625,0.946044921875,11.016845703125
0.5537499,9.040505409240723,-4.247313976287842,0.47405192255973816,9.735107421875,0.6866455078125,10.43701171875
0.5562499000000001,9.050082206726074,-4.273650169372559,0.47884035110473633,9.7503662109375,0.4425048828125,9.94873046875
0.5587499,9.062053680419922,-4.290409564971924,0.49320554733276367,9.8876953125,0.1678466796875,9.429931640625
0.5612499000000001,9.081207275390625,-4.302380561828613,0.5027823448181152,10.040283203125,-0.0762939453125,8.880615234375
0.5637499,9.093177795410156,-4.311957359313965,0.5171475410461426,10.31494140625,-0.3509521484375,8.4991455078125
0.5662499000000001,9.107542991638184,-4.3191399574279785,0.524330198764801,10.589599609375,-0.42724609375,8.0718994140625
0.5687499,9.114726066589355,-4.326322555541992,0.5291185975074768,10.3912353515625,-0.6866455078125,7.476806640625
0.5712499000000001,9.117119789123535,-4.331110954284668,0.5315127968788147,10.528564453125,-0.9613037109375,6.988525390625
0.5737499,9.114726066589355,-4.335899353027344,0.5339069962501526,10.711669921875,-1.129150390625,6.6070556640625
0.5762499000000001,9.114726066589355,-4.343081951141357,0.5339069962501526,10.6658935546875,-1.5106201171875,6.134033203125
0.5787499,9.117119789123535,-4.343081951141357,0.5267243981361389,10.55908203125,-1.678466796875,5.4473876953125
0.5812499,9.124302864074707,-4.3406877517700195,0.5147533416748047,10.711669921875,-1.8157958984375,4.913330078125
0.5837499,9.131484985351562,-4.333505153656006,0.4908113479614258,10.1318359375,-2.0599365234375,4.5166015625
0.5862499,9.133879661560059,-4.323928356170654,0.4596867263317108,9.918212890625,-2.3040771484375,4.1656494140625
0.5887499,9.129091262817383,-4.314351558685303,0.43095630407333374,9.8724365234375,-2.3651123046875,3.6163330078125
0.5912499,9.129091262817383,-4.302380561828613,0.40462008118629456,9.70458984375,-2.6397705078125,3.204345703125
0.5937499,9.129091262817383,-4.290409564971924,0.38546648621559143,9.4757080078125,-2.9449462890625,2.8533935546875
0.5962499,9.138668060302734,-4.2760443687438965,0.3687070608139038,8.9874267578125,-2.899169921875,2.0904541015625
0.5987499000000001,9.148244857788086,-4.256890773773193,0.35673606395721436,8.5296630859375,-3.0670166015625,1.8463134765625
0.6012499,9.162610054016113,-4.23773717880249,0.3423708379268646,8.1329345703125,-3.204345703125,1.46484375
0.6037499000000001,9.169792175292969,-4.216189384460449,0.3280056416988373,7.6141357421875,-3.3416748046875,0.885009765625
0.6062499,9.17936897277832,-4.197035789489746,0.31124621629714966,7.0953369140625,-3.3416748046875,0.579833984375
0.6087499000000001,9.186552047729492,-4.180276393890381,0.28969839215278625,6.6070556640625,-3.3416748046875,0.18310546875
0.6112499,9.186552047729492,-4.173093795776367,0.27054479718208313,6.2103271484375,-3.4637451171875,-0.152587890625
0.6137499000000001,9.188945770263672,-4.173093795776367,0.2513911724090576,6.011962890625,-3.4332275390625,-0.5950927734375
0.6162499,9.188945770263672,-4.173093795776367,0.2346317619085312,5.3863525390625,-3.448486328125,-0.762939453125
0.6187499000000001,9.188945770263672,-4.170699596405029,0.21547815203666687,5.2032470703125,-3.5858154296875,-0.9613037109375
0.6212499,9.191340446472168,-4.165910720825195,0.20111294090747833,4.5013427734375,-3.814697265625,-1.15966796875
0.6237499000000001,9.198522567749023,-4.153939723968506,0.17956513166427612,3.692626953125,-3.4637451171875,-1.312255859375
0.6262499,9.208099365234375,-4.144362926483154,0.1604115068912506,3.41796875,-3.4637451171875,-1.556396484375
0.6287499000000001,9.222464561462402,-4.134786128997803,0.13407529890537262,2.960205078125,-3.6468505859375,-1.7852783203125
0.6312499,9.232041358947754,-4.122815132141113,0.10534487664699554,2.6397705078125,-3.326416015625,-1.8157958984375
0.6337499000000001,9.23443603515625,-4.108449935913086,0.07422025501728058,2.3193359375,-3.4637451171875,-1.8463134765625
0.6362499,9.222464561462402,-4.089296340942383,0.043095629662275314,1.678466796875,-3.3416748046875,-2.044677734375
0.6387499000000001,9.20091724395752,-4.065354347229004,0.014365210197865963,1.2359619140625,-3.0059814453125,-2.1209716796875
0.6412499,9.17697525024414,-4.043806552886963,-0.019153613597154617,0.8087158203125,-3.0670166015625,-2.3040771484375
0.6437499,9.157821655273438,-4.022258758544922,-0.05027823522686958,0.6866455078125,-3.1890869140625,-2.3193359375
0.6462499,9.14585018157959,-4.0078935623168945,-0.08140286058187485,0.1068115234375,-3.0364990234375,-2.4566650390625
0.6487499,9.141061782836914,-3.9911341667175293,-0.11013327538967133,-0.42724609375,-3.1280517578125,-2.50244140625
0.6512499,9.141061782836914,-3.97916316986084,-0.13168109953403473,-0.640869140625,-3.1280517578125,-2.410888671875
0.6537499,9.14585018157959,-3.971980571746826,-0.15322890877723694,-0.7781982421875,-3.0670166015625,-2.3956298828125
0.6562499,9.150638580322266,-3.974374771118164,-0.17238251864910126,-1.0223388671875,-3.143310546875,-2.25830078125
0.6587499,9.153033256530762,-3.9815573692321777,-0.1867477297782898,-1.0833740234375,-3.11279296875,-1.9683837890625
0.6612499000000001,9.155426979064941,-3.995922565460205,-0.20111294090747833,-1.64794921875,-2.7313232421875,-1.953125
0.6637499,9.148244857788086,-4.0078935623168945,-0.21547815203666687,-1.9683837890625,-2.7008056640625,-1.678466796875
0.6662499000000001,9.138668060302734,-4.017470359802246,-0.2298433631658554,-2.288818359375,-2.5634765625,-1.3885498046875
0.6687499,9.124302864074707,-4.022258758544922,-0.24181437492370605,-2.349853515625,-2.349853515625,-1.52587890625
0.6712499000000001,9.107542991638184,-4.02465295791626,-0.2513911724090576,-2.50244140625,-2.532958984375,-1.129150390625
0.6737499,9.093177795410156,-4.022258758544922,-0.2537853717803955,-2.9144287109375,-2.4871826171875,-0.6561279296875
0.6762499000000001,9.083600997924805,-4.017470359802246,-0.26336219906806946,-3.173828125,-2.0751953125,-0.54931640625
0.6787499,9.0859956741333,-4.017470359802246,-0.26575639843940735,-3.3721923828125,-1.739501953125,-0.335693359375
0.6812499000000001,9.0859956741333,-4.015076160430908,-0.2801215946674347,-3.3721923828125,-1.678466796875,0.0152587890625
0.6837499,9.093177795410156,-4.019864559173584,-0.2944868206977844,-3.4637451171875,-1.6326904296875,0.1983642578125
0.6862499000000001,9.093177795410156,-4.031835556030273,-0.3064578175544739,-3.72314453125,-1.3885498046875,0.6561279296875
0.6887499,9.08838939666748,-4.043806552886963,-0.31842881441116333,-3.8909912109375,-1.2664794921875,1.129150390625
0.6912499000000001,9.078812599182129,-4.060565948486328,-0.3208230137825012,-4.1961669921875,-1.1749267578125,1.2664794921875
0.6937499,9.071630477905273,-4.067748546600342,-0.3208230137825012,-4.3182373046875,-1.15966796875,1.4801025390625
0.6962499000000001,9.071630477905273,-4.072536945343018,-0.31603461503982544,-4.547119140625,-1.1749267578125,1.7547607421875
0.6987499,9.074024200439453,-4.072536945343018,-0.31603461503982544,-4.8828125,-0.8392333984375,1.800537109375
0.7012499000000001,9.083600997924805,-4.07014274597168,-0.31842881441116333,-5.0048828125,-0.518798828125,2.0599365234375
0.7037499,9.08838939666748,-4.062960147857666,-0.3208230137825012,-5.0201416015625,-0.3814697265625,2.3651123046875
0.7062499,9.08838939666748,-4.046200752258301,-0.3256114423274994,-5.1422119140625,-0.42724609375,2.777099609375
0.7087499,9.083600997924805,-4.022258758544922,-0.33279404044151306,-5.2490234375,-0.3662109375,3.173828125
0.7112499,9.07641887664795,-3.998316764831543,-0.33758243918418884,-5.5389404296875,0.0152587890625,3.021240234375
0.7137499,9.066842079162598,-3.97916316986084,-0.3471592366695404,-5.7830810546875,-0.091552734375,3.11279296875
0.7162499,9.057265281677246,-3.9695863723754883,-0.3471592366695404,-5.889892578125,-0.0457763671875,3.2806396484375
0.7187499,9.045293807983398,-3.9695863723754883,-0.3471592366695404,-6.2255859375,0.1983642578125,3.448486328125
0.7212499,9.033323287963867,-3.97916316986084,-0.3447650372982025,-6.6070556640625,0.2593994140625,3.6163330078125
0.7237499000000001,9.02135181427002,-3.9887399673461914,-0.33518823981285095,-6.7596435546875,0.457763671875,3.5400390625
0.7262499,9.016563415527344,-3.993528366088867,-0.33039984107017517,-6.927490234375,0.4425048828125,3.692626953125
0.7287499000000001,9.014169692993164,-3.995922565460205,-0.3256114423274994,-7.293701171875,0.5645751953125,3.8909912109375
0.7312499,9.014169692993164,-3.998316764831543,-0.3208230137825012,-7.476806640625,0.6561279296875,4.0130615234375
0.7337499000000001,9.009381294250488,-4.000710964202881,-0.31603461503982544,-7.7056884765625,0.67138671875,4.0130615234375
0.7362499,9.002198219299316,-4.015076160430908,-0.30885201692581177,-7.99560546875,0.8087158203125,4.2266845703125
0.7387499000000001,8.98543930053711,-4.027047157287598,-0.2944868206977844,-8.72802734375,0.823974609375,4.1351318359375
0.7412499,8.971074104309082,-4.041412353515625,-0.272938996553421,-8.9569091796875,0.79345703125,4.1656494140625
0.7437499000000001,8.951920509338379,-4.0533833503723145,-0.2513911724090576,-9.0179443359375,0.9918212890625,4.33349609375
0.7462499,8.942343711853027,-4.060565948486328,-0.2298433631658554,-8.9874267578125,0.9307861328125,4.2572021484375
0.7487499000000001,8.925583839416504,-4.067748546600342,-0.2106897532939911,-9.46044921875,1.0986328125,4.2572021484375
0.7512499,8.913613319396973,-4.072536945343018,-0.19632454216480255,-9.674072265625,1.007080078125,4.33349609375
0.7537499000000001,8.892065048217773,-4.084507942199707,-0.1867477297782898,-9.796142578125,1.2664794921875,4.1351318359375
0.7562499,8.87291145324707,-4.089296340942383,-0.17238251864910126,-9.9639892578125,1.28173828125,3.96728515625
0.7587499000000001,8.851364135742188,-4.098873138427734,-0.16519992053508759,-10.2691650390625,1.03759765625,3.9825439453125
0.7612499,8.83939266204834,-4.108449935913086,-0.15562310814857483,-10.55908203125,1.4190673828125,3.7689208984375
0.7637499000000001,8.832210540771484,-4.110844135284424,-0.15083470940589905,-10.9100341796875,1.2969970703125,3.662109375
0.7662499,8.829815864562988,-4.1156325340271,-0.1388636976480484,-11.0931396484375,1.373291015625,3.875732421875
0.7687499000000001,8.829815864562988,-4.1156325340271,-0.13168109953403473,-11.41357421875,1.495361328125,3.692626953125
0.7712499,8.825027465820312,-4.120420932769775,-0.12449848651885986,-11.23046875,1.46484375,3.1890869140625
0.7737499,8.825027465820312,-4.122815132141113,-0.12449848651885986,-11.260986328125,1.5106201171875,3.0975341796875
0.7762499,8.822632789611816,-4.129997730255127,-0.1173158809542656,-11.566162109375,1.4190673828125,2.9449462890625
0.7787499,8.825027465820312,-4.134786128997803,-0.11252748221158981,-11.8255615234375,1.3427734375,2.38037109375
0.7812499,8.825027465820312,-4.141968727111816,-0.10534487664699554,-11.5814208984375,1.434326171875,2.410888671875
0.7837499,8.829815864562988,-4.151545524597168,-0.09576806426048279,-11.7340087890625,1.312255859375,2.105712890625
0.7862499000000001,8.832210540771484,-4.163516521453857,-0.08379705995321274,-11.749267578125,1.4801025390625,1.9378662109375
0.7887499,8.834604263305664,-4.173093795776367,-0.07422025501728058,-11.7645263671875,1.5411376953125,1.9378662109375
0.7912499000000001,8.83699893951416,-4.177882194519043,-0.06703764945268631,-11.5814208984375,1.40380859375,1.953125
0.7937499,8.834604263305664,-4.182670593261719,-0.06464344263076782,-11.5814208984375,1.5869140625,1.5106201171875
0.7962499000000001,8.832210540771484,-4.175487995147705,-0.07182604819536209,-11.474609375,1.6937255859375,0.946044921875
0.7987499,8.829815864562988,-4.168305397033691,-0.08379705995321274,-11.505126953125,1.7242431640625,0.8697509765625
0.8012499000000001,8.820239067077637,-4.151545524597168,-0.09576806426048279,-11.4288330078125,1.89208984375,0.8544921875
0.8037499,8.813055992126465,-4.132391929626465,-0.10295066982507706,-11.5509033203125,1.9989013671875,0.6866455078125
0.8062499000000001,8.80587387084961,-4.113238334655762,-0.1149216815829277,-11.71875,2.0751953125,0.42724609375
0.8087499,8.798690795898438,-4.091690540313721,-0.12449848651885986,-11.688232421875,1.9073486328125,0.579833984375
0.8112499000000001,8.80587387084961,-4.072536945343018,-0.12928688526153564,-11.3525390625,2.01416015625,0.5340576171875
0.8137499,8.813055992126465,-4.05817174911499,-0.1364694982767105,-11.5966796875,2.166748046875,0.396728515625
0.8162499000000001,8.820239067077637,-4.041412353515625,-0.1364694982767105,-11.749267578125,2.288818359375,0.274658203125
0.8187499,8.822632789611816,-4.027047157287598,-0.1364694982767105,-12.0086669921875,2.3956298828125,0.1983642578125
0.8212499000000001,8.813055992126465,-4.010287761688232,-0.13168109953403473,-12.481689453125,2.471923828125,0.1220703125
0.8237499,8.798690795898438,-3.9911341667175293,-0.12449848651885986,-12.6495361328125,2.532958984375,-0.030517578125
0.8262499000000001,8.78193187713623,-3.971980571746826,-0.1149216815829277,-12.298583984375,2.5634765625,-0.1220703125
0.8287499,8.772355079650879,-3.9456443786621094,-0.11252748221158981,-12.115478515625,2.593994140625,-0.06103515625
0.8312499000000001,8.774748802185059,-3.914519786834717,-0.1173158809542656,-12.2222900390625,2.74658203125,0.030517578125
0.8337499,8.78432559967041,-3.8762125968933105,-0.13168109953403473,-12.6190185546875,3.0059814453125,-0.1373291015625
0.8362499,8.796297073364258,-3.8379054069519043,-0.15083470940589905,-12.664794921875,2.9296875,-0.1983642578125
0.8387499,8.810662269592285,-3.801992416381836,-0.16998831927776337,-12.8021240234375,3.204345703125,-0.42724609375
0.8412499,8.827422142028809,-3.7660791873931885,-0.181959331035614,-13.092041015625,3.173828125,-0.6103515625
0.8437499,8.846575736999512,-3.7445313930511475,-0.17956513166427612,-13.1683349609375,3.2196044921875,-0.42724609375
0.8462499,8.87051773071289,-3.7181951999664307,-0.16519992053508759,-13.18359375,3.265380859375,-0.54931640625
0.8487499000000001,8.889671325683594,-3.708618402481079,-0.1388636976480484,-13.4124755859375,3.4942626953125,-0.6256103515625
0.8512499,8.908824920654297,-3.7038300037384033,-0.10773907601833344,-13.36669921875,3.41796875,-0.8544921875
0.8537499000000001,8.93037223815918,-3.708618402481079,-0.08140286058187485,-13.24462890625,3.448486328125,-0.701904296875
0.8562499,8.942343711853027,-3.7205893993377686,-0.06224924325942993,-13.4124755859375,3.90625,-0.7476806640625
0.8587499000000001,8.951920509338379,-3.734954595565796,-0.05746084079146385,-13.12255859375,4.0435791015625,-0.640869140625
0.8612499,8.949525833129883,-3.7421371936798096,-0.05985504388809204,-13.1072998046875,4.3487548828125,-0.18310546875
0.8637499000000001,8.942343711853027,-3.7421371936798096,-0.0694318488240242,-13.1683349609375,4.4097900390625,-0.213623046875
0.8662499,8.937555313110352,-3.732560396194458,-0.08140286058187485,-12.939453125,4.4403076171875,-0.30517578125
0.8687499000000001,8.935160636901855,-3.7181951999664307,-0.090979665517807,-13.0767822265625,4.8065185546875,-0.2593994140625
0.8712499,8.939949035644531,-3.7014358043670654,-0.09576806426048279,-12.75634765625,5.0201416015625,-0.2593994140625
0.8737499000000001,8.944737434387207,-3.689464807510376,-0.0933738648891449,-12.75634765625,5.18798828125,-0.1983642578125
0.8762499,8.954314231872559,-3.6846764087677,-0.09576806426048279,-12.481689453125,5.43212890625,0.152587890625
0.8787499000000001,8.959102630615234,-3.6822822093963623,-0.09576806426048279,-12.39013671875,5.645751953125,0.18310546875
0.8812499,8.966285705566406,-3.6822822093963623,-0.10295066982507706,-12.5274658203125,5.8135986328125,0.030517578125
0.8837499000000001,8.971074104309082,-3.687070608139038,-0.10055647045373917,-12.2528076171875,6.0272216796875,0.396728515625
0.8862499,8.975862503051758,-3.691859006881714,-0.0933738648891449,-12.0391845703125,6.134033203125,0.54931640625
0.8887499000000001,8.983044624328613,-3.6942532062530518,-0.07422025501728058,-11.8560791015625,6.317138671875,0.3814697265625
0.8912499,8.99740982055664,-3.6990416049957275,-0.05267243832349777,-11.7034912109375,6.5460205078125,0.54931640625
0.8937499000000001,9.016563415527344,-3.6942532062530518,-0.028730420395731926,-11.505126953125,6.7596435546875,0.732421875
0.8962499,9.045293807983398,-3.689464807510376,-0.009576806798577309,-11.566162109375,6.988525390625,1.0223388671875
0.8987499,9.066842079162598,-3.6798880100250244,0.004788403399288654,-11.23046875,7.080078125,0.9613037109375
0.9012499,9.078812599182129,-3.6750996112823486,0.016759412363171577,-11.29150390625,7.5225830078125,1.129150390625
0.9037499,9.081207275390625,-3.6750996112823486,0.035913024097681046,-11.04736328125,7.6904296875,1.373291015625
0.9062499,9.074024200439453,-3.6774938106536865,0.0454898327589035,-10.894775390625,7.8125,1.4495849609375
0.9087499,9.057265281677246,-3.6774938106536865,0.06224924325942993,-10.8184814453125,7.9803466796875,1.5106201171875
0.9112499000000001,9.045293807983398,-3.6727054119110107,0.06703764945268631,-10.6658935546875,8.056640625,1.5411376953125
0.9137499,9.035717010498047,-3.665522813796997,0.07422025501728058,-10.4217529296875,8.270263671875,1.7547607421875
0.9162499000000001,9.030928611755371,-3.648763418197632,0.0694318488240242,-10.4522705078125,8.514404296875,1.739501953125
0.9187499,9.026140213012695,-3.6367924213409424,0.06224924325942993,-10.4217529296875,8.72802734375,1.8768310546875
0.9212499000000001,9.02135181427002,-3.622427225112915,0.05027823522686958,-10.5133056640625,8.8043212890625,2.01416015625
0.9237499,9.02135181427002,-3.6080620288848877,0.038307227194309235,-10.406494140625,8.72802734375,2.1514892578125
0.9262499000000001,9.01895809173584,-3.5936968326568604,0.028730420395731926,-10.3759765625,9.0789794921875,2.0904541015625
0.9287499,9.01895809173584,-3.584120035171509,0.023942016065120697,-10.5438232421875,9.3841552734375,2.38037109375
0.9312499000000001,9.014169692993164,-3.579331636428833,0.023942016065120697,-10.528564453125,9.2620849609375,2.349853515625
0.9337499,9.009381294250488,-3.5865142345428467,0.023942016065120697,-10.650634765625,9.2926025390625,2.685546875
0.9362499000000001,8.999804496765137,-3.5960910320281982,0.038307227194309235,-11.0321044921875,9.429931640625,2.5787353515625
0.9387499,8.990227699279785,-3.6176388263702393,0.05746084079146385,-11.1236572265625,9.5672607421875,2.7313232421875
0.9412499000000001,8.987833023071289,-3.6391866207122803,0.07661445438861847,-11.0626220703125,9.735107421875,2.8533935546875
0.9437499,8.983044624328613,-3.6607344150543213,0.10295066982507706,-11.2152099609375,9.58251953125,3.1280517578125
0.9462499000000001,8.983044624328613,-3.6846764087677,0.12449848651885986,-11.077880859375,9.9334716796875,3.1585693359375
0.9487499,8.983044624328613,-3.7038300037384033,0.14844051003456116,-10.955810546875,10.1470947265625,3.082275390625
0.9512499000000001,8.98543930053711,-3.7181951999664307,0.16759411990642548,-11.138916015625,10.19287109375,3.1585693359375
0.9537499,8.987833023071289,-3.732560396194458,0.17477671802043915,-10.9710693359375,10.1165771484375,3.509521484375
0.9562499000000001,8.99740982055664,-3.7397429943084717,0.17956513166427612,-11.016845703125,10.223388671875,3.631591796875
0.9587499,9.009381294250488,-3.7493197917938232,0.17956513166427612,-11.1083984375,10.406494140625,3.662109375
0.9612499,9.016563415527344,-3.7612907886505127,0.17956513166427612,-10.955810546875,10.2386474609375,3.7078857421875
0.9637499,9.026140213012695,-3.7708675861358643,0.181959331035614,-11.077880859375,9.9639892578125,3.692626953125
0.9662499,9.028534889221191,-3.7852327823638916,0.18914192914962769,-11.0321044921875,9.9334716796875,3.662109375
0.9687499,9.026140213012695,-3.804386615753174,0.19632454216480255,-10.711669921875,9.918212890625,3.96728515625
0.9712499,9.01895809173584,-3.8307228088378906,0.19393034279346466,-10.6201171875,10.1776123046875,4.0130615234375
0.9737499000000001,9.011775016784668,-3.866635799407959,0.19393034279346466,-10.589599609375,9.796142578125,4.0435791015625
0.9762499,9.004592895507812,-3.9001545906066895,0.18914192914962769,-10.3302001953125,9.4757080078125,4.08935546875
0.9787499000000001,8.990227699279785,-3.9264907836914062,0.1843535304069519,-10.0555419921875,9.3994140625,4.2877197265625
0.9812499,8.975862503051758,-3.9408559799194336,0.19153612852096558,-9.8114013671875,9.2620849609375,4.33349609375
0.9837499000000001,8.959102630615234,-3.9432501792907715,0.19393034279346466,-9.552001953125,9.185791015625,4.2572021484375
0.9862499,8.942343711853027,-3.936067581176758,0.20111294090747833,-9.4757080078125,8.9569091796875,4.2266845703125
0.9887499000000001,8.93037223815918,-3.9264907836914062,0.20350714027881622,-9.3994140625,8.8653564453125,4.4097900390625
0.9912499,8.923190116882324,-3.9193081855773926,0.19871874153614044,-9.46044921875,8.36181640625,4.3792724609375
0.9937499000000001,8.923190116882324,-3.9169139862060547,0.19393034279346466,-9.4146728515625,8.36181640625,4.241943359375
0.9962499,8.923190116882324,-3.914519786834717,0.17956513166427612,-9.4757080078125,8.11767578125,4.302978515625
0.9987499000000001,8.93037223815918,-3.9193081855773926,0.17238251864910126,-9.3841552734375,7.9193115234375,4.3182373046875
1.0012499,8.939949035644531,-3.931279182434082,0.16519992053508759,-9.3231201171875,7.7972412109375,4.08935546875
1.0037498999999999,8.949525833129883,-3.9408559799194336,0.16519992053508759,-9.368896484375,7.5225830078125,4.0283203125
1.0062499,8.96149730682373,-3.952826976776123,0.16759411990642548,-9.3994140625,7.3089599609375,3.9825439453125
1.0087499,8.973467826843262,-3.957615375518799,0.16998831927776337,-9.3841552734375,7.0343017578125,3.997802734375
1.0112499,8.987833023071289,-3.9624037742614746,0.17477671802043915,-9.6435546875,6.9732666015625,3.8604736328125
1.0137498999999999,9.002198219299316,-3.9600095748901367,0.17956513166427612,-9.70458984375,6.7596435546875,3.875732421875
1.0162499,9.01895809173584,-3.9600095748901367,0.1867477297782898,-9.6893310546875,6.4239501953125,3.7078857421875
1.0187499,9.038111686706543,-3.957615375518799,0.19153612852096558,-9.613037109375,6.2103271484375,3.2196044921875
1.0212499,9.059659004211426,-3.957615375518799,0.19153612852096558,-9.857177734375,5.9661865234375,3.0364990234375
1.0237498999999999,9.07641887664795,-3.955221176147461,0.18914192914962769,-10.0555419921875,5.8135986328125,2.74658203125
1.0262498999999998,9.08838939666748,-3.9600095748901367,0.17956513166427612,-10.07080078125,5.645751953125,2.8839111328125
1.0287499,9.100360870361328,-3.9600095748901367,0.17477671802043915,-10.0250244140625,5.401611328125,2.777099609375
1.0312499,9.10993766784668,-3.9624037742614746,0.16519992053508759,-10.3759765625,5.340576171875,2.7008056640625
1.0337498999999999,9.11233139038086,-3.9647979736328125,0.16519992053508759,-10.589599609375,5.218505859375,2.5482177734375
1.0362498999999998,9.131484985351562,-3.9647979736328125,0.15083470940589905,-10.9710693359375,4.730224609375,2.01416015625
1.0387499,9.131484985351562,-3.9647979736328125,0.15083470940589905,-10.9710693359375,4.730224609375,2.01416015625
1.0412499,9.153033256530762,-3.9647979736328125,0.1364694982767105,-11.0321044921875,4.5623779296875,1.6021728515625
1.0437499,9.153033256530762,-3.9647979736328125,0.1364694982767105,-11.0321044921875,4.5623779296875,1.6021728515625
1.0462498999999998,9.162610054016113,-3.9600095748901367,0.1364694982767105,-11.4288330078125,4.6844482421875,1.1749267578125
1.0487499,9.162610054016113,-3.9600095748901367,0.1364694982767105,-11.4288330078125,4.6844482421875,1.1749267578125
1.0512499,9.172186851501465,-3.9600095748901367,0.1364694982767105,-11.3372802734375,4.2572021484375,0.732421875
1.0537499,9.172186851501465,-3.9600095748901367,0.1364694982767105,-11.3372802734375,4.2572021484375,0.732421875
1.0562498999999999,9.17936897277832,-3.971980571746826,0.13407529890537262,-11.4288330078125,4.241943359375,-0.030517578125
1.0587499,9.17936897277832,-3.971980571746826,0.13407529890537262,-11.4288330078125,4.241943359375,-0.030517578125
1.0612499,9.184157371520996,-3.9887399673461914,0.14365209639072418,-11.3983154296875,3.997802734375,-0.0762939453125
1.0637499,9.184157371520996,-3.9887399673461914,0.14365209639072418,-11.3983154296875,3.997802734375,-0.0762939453125
1.0662498999999999,9.181763648986816,-4.0078935623168945,0.1412578970193863,-10.986328125,3.9825439453125,-0.4730224609375
1.0687499,9.181763648986816,-4.0078935623168945,0.1412578970193863,-10.986328125,3.9825439453125,-0.4730224609375
1.0712499,9.184157371520996,-4.019864559173584,0.11971008777618408,-10.772705078125,4.119873046875,-0.9002685546875
1.0737499,9.184157371520996,-4.019864559173584,0.11971008777618408,-10.772705078125,4.119873046875,-0.9002685546875
1.0762498999999999,9.196128845214844,-4.01268196105957,0.10773907601833344,-10.55908203125,4.2724609375,-1.15966796875
1.0787499,9.196128845214844,-4.01268196105957,0.10773907601833344,-10.55908203125,4.2724609375,-1.15966796875
1.0812499,9.210494041442871,-3.995922565460205,0.11252748221158981,-10.0555419921875,4.241943359375,-1.52587890625
1.0837499,9.210494041442871,-3.995922565460205,0.11252748221158981,-10.0555419921875,4.241943359375,-1.52587890625
1.0862498999999999,9.210494041442871,-3.97916316986084,0.1173158809542656,-9.4757080078125,4.3792724609375,-1.739501953125
1.0887499,9.210494041442871,-3.97916316986084,0.1173158809542656,-9.4757080078125,4.3792724609375,-1.739501953125
1.0912499,9.186552047729492,-3.976768970489502,0.11252748221158981,-8.941650390625,4.241943359375,-1.8768310546875
1.0937499,9.186552047729492,-3.976768970489502,0.11252748221158981,-8.941650390625,4.241943359375,-1.8768310546875
1.0962498999999999,9.148244857788086,-3.9695863723754883,0.1149216815829277,-8.36181640625,4.425048828125,-2.0751953125
1.0987498999999998,9.148244857788086,-3.9695863723754883,0.1149216815829277,-8.36181640625,4.425048828125,-2.0751953125
1.1012499,9.11233139038086,-3.9456443786621094,0.11971008777618408,-7.9345703125,4.39453125,-2.166748046875
1.1037499,9.11233139038086,-3.9456443786621094,0.11971008777618408,-7.9345703125,4.39453125,-2.166748046875
1.1062499,9.090784072875977,-3.912125587463379,0.12449848651885986,-7.4310302734375,4.5928955078125,-2.2735595703125
1.1087498999999998,9.090784072875977,-3.912125587463379,0.12449848651885986,-7.4310302734375,4.5928955078125,-2.2735595703125
1.1112499,9.066842079162598,-3.8786067962646484,0.12210428714752197,-6.89697265625,4.5928955078125,-2.3040771484375
1.1137499,9.066842079162598,-3.8786067962646484,0.12210428714752197,-6.89697265625,4.5928955078125,-2.3040771484375
1.1162499,9.033323287963867,-3.861847400665283,0.12449848651885986,-6.65283203125,4.7149658203125,-2.227783203125
1.1187498999999999,9.033323287963867,-3.861847400665283,0.12449848651885986,-6.65283203125,4.7149658203125,-2.227783203125
1.1212499,8.99740982055664,-3.8594532012939453,0.1412578970193863,-6.3934326171875,4.913330078125,-2.2430419921875
1.1237499,8.99740982055664,-3.8594532012939453,0.1412578970193863,-6.3934326171875,4.913330078125,-2.2430419921875
1.1262499,8.978256225585938,-3.8594532012939453,0.1604115068912506,-6.1798095703125,4.8828125,-2.3193359375
1.1287498999999999,8.978256225585938,-3.8594532012939453,0.1604115068912506,-6.1798095703125,4.8828125,-2.3193359375
1.1312499,8.973467826843262,-3.861847400665283,0.15801730751991272,-5.615234375,5.0506591796875,-2.227783203125
1.1337499,8.973467826843262,-3.861847400665283,0.15801730751991272,-5.615234375,5.0506591796875,-2.227783203125
1.1362499,8.971074104309082,-3.8594532012939453,0.14604631066322327,-5.1116943359375,4.913330078125,-2.197265625
1.1387498999999999,8.971074104309082,-3.8594532012939453,0.14604631066322327,-5.1116943359375,4.913330078125,-2.197265625
1.1412499,8.999804496765137,-3.8522706031799316,0.15322890877723694,-4.57763671875,4.5623779296875,-2.1514892578125
1.1437499,8.999804496765137,-3.8522706031799316,0.15322890877723694,-4.57763671875,4.5623779296875,-2.1514892578125
1.1462499,9.030928611755371,-3.840299606323242,0.18914192914962769,-4.3182373046875,4.486083984375,-1.8310546875
1.1487498999999999,9.030928611755371,-3.840299606323242,0.18914192914962769,-4.3182373046875,4.486083984375,-1.8310546875
1.1512499,9.030928611755371,-3.823540210723877,0.2322375625371933,-3.936767578125,4.5166015625,-1.678466796875
1.1537499,9.030928611755371,-3.823540210723877,0.2322375625371933,-3.936767578125,4.5166015625,-1.678466796875
1.1562499,9.009381294250488,-3.7876269817352295,0.2561795711517334,-3.509521484375,4.0435791015625,-1.068115234375
1.1587498999999999,9.009381294250488,-3.7876269817352295,0.2561795711517334,-3.509521484375,4.0435791015625,-1.068115234375
1.1612498999999998,8.980650901794434,-3.7445313930511475,0.2537853717803955,-3.5400390625,3.9520263671875,-1.312255859375
1.1637499,8.980650901794434,-3.7445313930511475,0.2537853717803955,-3.5400390625,3.9520263671875,-1.312255859375
1.1662499,8.96149730682373,-3.706224203109741,0.24660277366638184,-3.692626953125,3.6773681640625,-0.4730224609375
1.1687499,8.96149730682373,-3.706224203109741,0.24660277366638184,-3.692626953125,3.6773681640625,-0.4730224609375
1.1712498999999998,8.96389102935791,-3.6583402156829834,0.24181437492370605,-3.4637451171875,3.326416015625,-0.3509521484375
1.1737499,8.96389102935791,-3.6583402156829834,0.24181437492370605,-3.4637451171875,3.326416015625,-0.3509521484375
1.1762499,8.971074104309082,-3.627215623855591,0.2322375625371933,-2.99072265625,3.4332275390625,-0.1373291015625
1.1787499,8.971074104309082,-3.627215623855591,0.2322375625371933,-2.99072265625,3.4332275390625,-0.1373291015625
1.1812498999999999,8.951920509338379,-3.6296098232269287,0.21787235140800476,-2.8228759765625,3.082275390625,0.0152587890625
1.1837499,8.951920509338379,-3.6296098232269287,0.21787235140800476,-2.8228759765625,3.082275390625,0.0152587890625
1.1862499,8.911218643188477,-3.643975019454956,0.1867477297782898,-2.4261474609375,2.6397705078125,0.5035400390625
1.1887499,8.911218643188477,-3.643975019454956,0.1867477297782898,-2.4261474609375,2.6397705078125,0.5035400390625
1.1912498999999999,8.882488250732422,-3.646369218826294,0.1364694982767105,-1.9989013671875,2.0751953125,1.129150390625
1.1937499,8.882488250732422,-3.646369218826294,0.1364694982767105,-1.9989013671875,2.0751953125,1.129150390625
1.1962499,8.882488250732422,-3.641580820083618,0.08140286058187485,-1.89208984375,1.8463134765625,1.46484375
1.1987499,8.882488250732422,-3.641580820083618,0.08140286058187485,-1.89208984375,1.8463134765625,1.46484375
1.2012498999999999,8.899248123168945,-3.6343982219696045,0.05746084079146385,-1.46484375,1.40380859375,1.9683837890625
1.2037499,8.899248123168945,-3.6343982219696045,0.05746084079146385,-1.46484375,1.40380859375,1.9683837890625
1.2062499,8.920795440673828,-3.624821424484253,0.07900865375995636,-1.373291015625,1.1749267578125,2.3193359375
1.2087499,8.932766914367676,-3.6176388263702393,0.090979665517807,-1.068115234375,0.885009765625,2.6092529296875
1.2112498999999999,8.947132110595703,-3.6080620288848877,0.10055647045373917,-1.0223388671875,0.7781982421875,2.8533935546875
1.2137499,8.956708908081055,-3.598485231399536,0.10295066982507706,-1.0528564453125,0.701904296875,3.11279296875
1.2162499,8.968679428100586,-3.5889084339141846,0.090979665517807,-0.946044921875,0.3662109375,3.0517578125
1.2187499,8.983044624328613,-3.579331636428833,0.08379705995321274,-0.6561279296875,0.0152587890625,3.204345703125
1.2212498999999999,8.99740982055664,-3.5721490383148193,0.07182604819536209,-0.9918212890625,-0.1373291015625,3.5552978515625
1.2237498999999998,9.02135181427002,-3.5649664402008057,0.06464344263076782,-0.9918212890625,-0.3662109375,3.7384033203125
1.2262499,9.040505409240723,-3.555389642715454,0.06224924325942993,-0.8697509765625,-0.3204345703125,3.6773681640625
1.2287499,9.062053680419922,-3.5458126068115234,0.05746084079146385,-0.79345703125,-0.3509521484375,3.6773681640625
1.2312499,9.081207275390625,-3.5410242080688477,0.05267243832349777,-0.8544921875,-0.8392333984375,3.8604736328125
1.2337498999999998,9.095572471618652,-3.5386300086975098,0.05506663769483566,-0.91552734375,-0.8697509765625,3.875732421875
1.2362499,9.10993766784668,-3.5434184074401855,0.05267243832349777,-0.9002685546875,-0.885009765625,3.9825439453125
1.2387499,9.117119789123535,-3.550601005554199,0.05985504388809204,-0.8087158203125,-1.15966796875,4.150390625
1.2412499,9.121908187866211,-3.557783842086792,0.07182604819536209,-0.8087158203125,-1.251220703125,4.302978515625
1.2437498999999999,9.119514465332031,-3.5721490383148193,0.08379705995321274,-0.7781982421875,-1.434326171875,4.2877197265625
1.2462499,9.121908187866211,-3.5889084339141846,0.0933738648891449,-0.762939453125,-1.46484375,4.2877197265625
1.2487499,9.121908187866211,-3.603273630142212,0.10055647045373917,-0.7781982421875,-1.556396484375,4.547119140625
1.2512499,9.124302864074707,-3.6128504276275635,0.09576806426048279,-0.7781982421875,-1.6632080078125,4.5166015625
1.2537498999999999,9.124302864074707,-3.624821424484253,0.09576806426048279,-0.7476806640625,-1.89208984375,4.39453125
1.2562499,9.119514465332031,-3.6296098232269287,0.08619125932455063,-0.6256103515625,-1.983642578125,4.547119140625
1.2587499,9.105149269104004,-3.6343982219696045,0.08379705995321274,-0.579833984375,-1.9073486328125,4.5166015625
1.2612499,9.090784072875977,-3.646369218826294,0.07422025501728058,-0.3814697265625,-2.0599365234375,4.669189453125
1.2637498999999999,9.064447402954102,-3.6583402156829834,0.06464344263076782,-0.3814697265625,-2.3345947265625,4.7454833984375
1.2662499,9.050082206726074,-3.6774938106536865,0.05267243832349777,-0.30517578125,-2.5634765625,4.6844482421875
1.2687499,9.030928611755371,-3.6990416049957275,0.035913024097681046,-0.2899169921875,-2.410888671875,4.4708251953125
1.2712499,9.026140213012695,-3.7205893993377686,0.023942016065120697,0.0152587890625,-2.3956298828125,4.669189453125
1.2737498999999999,9.033323287963867,-3.7445313930511475,0.009576806798577309,0.3662109375,-2.3956298828125,4.5318603515625
1.2762499,9.040505409240723,-3.7636849880218506,0,0.579833984375,-2.532958984375,4.4403076171875
1.2787499,9.05247688293457,-3.7852327823638916,0,0.8087158203125,-2.655029296875,4.5166015625
1.2812499,9.066842079162598,-3.797203779220581,0.002394201699644327,1.2359619140625,-2.8076171875,4.4708251953125
1.2837498999999999,9.078812599182129,-3.8115692138671875,0.011971008032560349,1.6021728515625,-2.7923583984375,4.1656494140625
1.2862498999999998,9.097966194152832,-3.821146011352539,0.028730420395731926,1.953125,-3.1585693359375,4.241943359375
1.2887499,9.119514465332031,-3.8283286094665527,0.0454898327589035,2.166748046875,-3.0059814453125,4.3182373046875
1.2912499,9.14345645904541,-3.840299606323242,0.0694318488240242,2.5787353515625,-2.9449462890625,4.2266845703125
1.2937499,9.169792175292969,-3.847482204437256,0.08619125932455063,2.9296875,-3.0364990234375,3.997802734375
1.2962498999999998,9.193734169006348,-3.8570590019226074,0.10055647045373917,3.173828125,-2.99072265625,3.631591796875
1.2987499,9.215282440185547,-3.861847400665283,0.11252748221158981,3.570556640625,-2.9296875,3.5858154296875
1.3012499,9.227252960205078,-3.861847400665283,0.1173158809542656,3.84521484375,-2.8839111328125,3.4942626953125
1.3037499,9.23682975769043,-3.8546648025512695,0.12689268589019775,4.21142578125,-2.777099609375,3.3111572265625
1.3062498999999999,9.239224433898926,-3.84269380569458,0.13168109953403473,4.425048828125,-2.7923583984375,3.082275390625
1.3087499,9.23682975769043,-3.8307228088378906,0.1364694982767105,4.547119140625,-2.6092529296875,2.8839111328125
1.3112499,9.241618156433105,-3.8115692138671875,0.1412578970193863,4.8980712890625,-2.685546875,2.532958984375
1.3137499,9.244012832641602,-3.797203779220581,0.1412578970193863,5.0201416015625,-2.5482177734375,2.2125244140625
1.3162498999999999,9.253589630126953,-3.7852327823638916,0.1412578970193863,5.1116943359375,-2.4566650390625,2.1209716796875
1.3187499,9.258378028869629,-3.780444383621216,0.14604631066322327,5.37109375,-2.3040771484375,2.0294189453125
1.3212499,9.26795482635498,-3.780444383621216,0.14604631066322327,5.5694580078125,-2.3040771484375,1.8157958984375
1.3237499,9.265560150146484,-3.780444383621216,0.15083470940589905,5.706787109375,-2.0904541015625,1.5106201171875
1.3262498999999999,9.265560150146484,-3.77565598487854,0.15083470940589905,5.4779052734375,-1.7242431640625,1.2054443359375
1.3287499,9.255983352661133,-3.77565598487854,0.14604631066322327,5.523681640625,-1.6326904296875,0.9002685546875
1.3312499,9.241618156433105,-3.7708675861358643,0.13407529890537262,5.8135986328125,-1.6632080078125,0.8544921875
1.3337499,9.224859237670898,-3.7708675861358643,0.11971008777618408,5.767822265625,-1.800537109375,0.8087158203125
1.3362498999999999,9.196128845214844,-3.773261785507202,0.10534487664699554,5.7373046875,-1.64794921875,0.48828125
1.3387499,9.172186851501465,-3.77565598487854,0.08858546614646912,6.04248046875,-1.5106201171875,0.244140625
1.3412499,9.14585018157959,-3.780444383621216,0.07422025501728058,6.0272216796875,-1.46484375,-0.0457763671875
1.3437499,9.126696586608887,-3.7852327823638916,0.05985504388809204,6.3323974609375,-1.5716552734375,-0.2899169921875
1.3462498999999999,9.107542991638184,-3.7924153804779053,0.05027823522686958,6.40869140625,-1.617431640625,-0.4425048828125
1.3487498999999998,9.08838939666748,-3.799597978591919,0.05027823522686958,6.4544677734375,-1.3580322265625,-0.4119873046875
1.3512499,9.071630477905273,-3.8091750144958496,0.0454898327589035,6.5155029296875,-1.3275146484375,-0.7171630859375
1.3537499,9.059659004211426,-3.8115692138671875,0.047884032130241394,6.8511962890625,-1.190185546875,-1.1138916015625
1.3562499,9.045293807983398,-3.8163576126098633,0.0454898327589035,6.9122314453125,-1.220703125,-1.373291015625
1.3587498999999998,9.038111686706543,-3.8163576126098633,0.040701430290937424,6.9580078125,-1.373291015625,-1.6021728515625
1.3612499,9.028534889221191,-3.8163576126098633,0.040701430290937424,7.26318359375,-1.3427734375,-1.678466796875
1.3637499,9.02135181427002,-3.8139634132385254,0.040701430290937424,7.6751708984375,-1.2664794921875,-1.8768310546875
1.3662499,9.023746490478516,-3.8163576126098633,0.0454898327589035,7.99560546875,-1.3885498046875,-1.9073486328125
1.3687498999999999,9.028534889221191,-3.8163576126098633,0.05506663769483566,8.23974609375,-1.312255859375,-1.9989013671875
1.3712499,9.047688484191895,-3.823540210723877,0.06224924325942993,8.48388671875,-1.3580322265625,-2.044677734375
1.3737499,9.064447402954102,-3.8331170082092285,0.0694318488240242,8.72802734375,-1.28173828125,-1.8768310546875
1.3762499,9.0859956741333,-3.8379054069519043,0.07661445438861847,9.033203125,-1.28173828125,-1.953125
1.3787498999999999,9.100360870361328,-3.840299606323242,0.08619125932455063,9.368896484375,-1.220703125,-2.044677734375
1.3812499,9.11233139038086,-3.8379054069519043,0.0933738648891449,9.8114013671875,-1.220703125,-1.953125
1.3837499,9.119514465332031,-3.8283286094665527,0.10055647045373917,10.009765625,-1.312255859375,-1.922607421875
1.3862499,9.119514465332031,-3.8139634132385254,0.10534487664699554,10.3302001953125,-1.3885498046875,-1.6937255859375
1.3887498999999999,9.114726066589355,-3.797203779220581,0.10773907601833344,10.528564453125,-1.251220703125,-1.708984375
1.3912499,9.107542991638184,-3.7828385829925537,0.11013327538967133,10.7421875,-1.15966796875,-1.5716552734375
1.3937499,9.105149269104004,-3.7684733867645264,0.11013327538967133,10.9100341796875,-1.251220703125,-1.678466796875
1.3962499,9.107542991638184,-3.758896589279175,0.11013327538967133,11.1236572265625,-1.15966796875,-1.2359619140625
1.3987498999999999,9.11233139038086,-3.751713991165161,0.10295066982507706,11.2762451171875,-1.2969970703125,-0.9002685546875
1.4012499,9.114726066589355,-3.751713991165161,0.10055647045373917,11.474609375,-1.15966796875,-0.9918212890625
1.4037499,9.11233139038086,-3.7493197917938232,0.0933738648891449,11.7950439453125,-1.0528564453125,-0.8697509765625
1.4062499,9.100360870361328,-3.7493197917938232,0.09816227108240128,12.176513671875,-1.129150390625,-0.5645751953125
1.4087498999999999,9.08838939666748,-3.7421371936798096,0.10295066982507706,12.14599609375,-1.129150390625,-0.762939453125
1.4112498999999998,9.074024200439453,-3.732560396194458,0.10534487664699554,12.4359130859375,-1.0528564453125,-0.6256103515625
1.4137499,9.057265281677246,-3.7229835987091064,0.10534487664699554,12.5579833984375,-1.129150390625,-0.244140625
1.4162499,9.035717010498047,-3.711012601852417,0.09576806426048279,12.969970703125,-1.40380859375,-0.213623046875
1.4187499,9.011775016784668,-3.6966474056243896,0.07422025501728058,13.12255859375,-1.220703125,-0.030517578125
1.4212498999999998,8.980650901794434,-3.6798880100250244,0.05027823522686958,13.24462890625,-1.3885498046875,0.030517578125
1.4237499,8.96149730682373,-3.6607344150543213,0.019153613597154617,13.153076171875,-1.7242431640625,0.1678466796875
1.4262499,8.942343711853027,-3.6367924213409424,-0.0071826050989329815,13.1988525390625,-1.7547607421875,0.2899169921875
1.4287499,8.927978515625,-3.620033025741577,-0.023942016065120697,13.4429931640625,-1.8310546875,0.48828125
1.4312498999999999,8.918401718139648,-3.60566782951355,-0.038307227194309235,13.5650634765625,-2.0751953125,0.8392333984375
1.4337499,8.901641845703125,-3.60566782951355,-0.040701430290937424,13.4735107421875,-2.0751953125,1.0833740234375
1.4362499,8.892065048217773,-3.6104562282562256,-0.040701430290937424,13.275146484375,-2.1820068359375,1.15966796875
1.4387499,8.877699851989746,-3.620033025741577,-0.033518824726343155,13.36669921875,-2.288818359375,1.312255859375
1.4412498999999999,8.868123054504395,-3.624821424484253,-0.026336219161748886,13.4735107421875,-2.3345947265625,1.9378662109375
1.4437499,8.851364135742188,-3.624821424484253,-0.021547814831137657,13.214111328125,-2.532958984375,1.9989013671875
1.4462499,8.844181060791016,-3.6152446269989014,-0.028730420395731926,13.12255859375,-2.593994140625,2.044677734375
1.4487499,8.841787338256836,-3.60566782951355,-0.033518824726343155,12.969970703125,-2.7923583984375,2.44140625
1.4512498999999999,8.851364135742188,-3.5889084339141846,-0.043095629662275314,13.092041015625,-3.082275390625,2.7313232421875
1.4537499,8.858546257019043,-3.576937437057495,-0.0454898327589035,12.939453125,-3.1890869140625,2.9144287109375
1.4562499,8.868123054504395,-3.555389642715454,-0.0454898327589035,12.542724609375,-3.35693359375,2.960205078125
1.4587499,8.87051773071289,-3.533841609954834,-0.0454898327589035,12.603759765625,-3.4637451171875,3.0975341796875
1.4612498999999999,8.868123054504395,-3.509899616241455,-0.043095629662275314,12.4359130859375,-3.662109375,3.326416015625
1.4637499,8.863334655761719,-3.49314022064209,-0.047884032130241394,12.176513671875,-3.753662109375,3.4942626953125
1.4662499,8.856152534484863,-3.485957622528076,-0.05027823522686958,11.90185546875,-3.9215087890625,3.8299560546875
1.4687499,8.858546257019043,-3.4835634231567383,-0.05746084079146385,11.5203857421875,-3.936767578125,4.0130615234375
1.4712498999999999,8.863334655761719,-3.488351821899414,-0.06224924325942993,11.260986328125,-4.2266845703125,4.4097900390625
1.4737498999999998,8.87051773071289,-3.5027170181274414,-0.0694318488240242,11.0931396484375,-4.364013671875,4.486083984375
1.4762499,8.880094528198242,-3.5194764137268066,-0.07900865375995636,10.43701171875,-4.5013427734375,4.8828125
1.4787499,8.884882926940918,-3.5482068061828613,-0.08379705995321274,10.2386474609375,-4.7149658203125,5.157470703125
1.4812499,8.882488250732422,-3.579331636428833,-0.08858546614646912,10.1318359375,-4.69970703125,5.4473876953125
1.4837498999999998,8.865729331970215,-3.6176388263702393,-0.07900865375995636,10.1318359375,-4.730224609375,5.92041015625
1.4862499,8.844181060791016,-3.6535518169403076,-0.06464344263076782,9.918212890625,-4.8065185546875,6.0577392578125
1.4887499,8.815450668334961,-3.691859006881714,-0.038307227194309235,9.9639892578125,-4.94384765625,6.256103515625
1.4912499,8.789113998413086,-3.7205893993377686,-0.0071826050989329815,9.9639892578125,-5.1116943359375,6.53076171875
1.4937498999999999,8.774748802185059,-3.7445313930511475,0.019153613597154617,10.1776123046875,-5.4168701171875,6.7138671875
1.4962499,8.767566680908203,-3.7493197917938232,0.033518824726343155,10.2386474609375,-5.767822265625,6.6070556640625
1.4987499,8.78193187713623,-3.7469255924224854,0.0454898327589035,10.1470947265625,-5.79833984375,6.89697265625
1.5012499,8.80587387084961,-3.732560396194458,0.043095629662275314,9.82666015625,-5.8746337890625,7.14111328125
1.5037498999999999,8.846575736999512,-3.7181951999664307,0.043095629662275314,9.4451904296875,-5.9356689453125,7.232666015625
1.5062499,8.882488250732422,-3.7014358043670654,0.035913024097681046,9.2010498046875,-5.9814453125,7.415771484375
1.5087499,8.913613319396973,-3.689464807510376,0.021547814831137657,9.033203125,-6.0272216796875,7.75146484375
1.5112499,8.932766914367676,-3.6966474056243896,0.0071826050989329815,8.697509765625,-5.92041015625,7.904052734375
1.5137498999999999,8.944737434387207,-3.7158010005950928,-0.011971008032560349,8.2855224609375,-5.9814453125,7.904052734375
1.5162499,8.944737434387207,-3.754108190536499,-0.026336219161748886,8.30078125,-5.9356689453125,8.1787109375
1.5187499,8.935160636901855,-3.801992416381836,-0.040701430290937424,8.30078125,-5.92041015625,8.2855224609375
1.5212499,8.913613319396973,-3.8570590019226074,-0.047884032130241394,8.11767578125,-5.8441162109375,8.36181640625
1.5237498999999999,8.877699851989746,-3.907337188720703,-0.0454898327589035,8.1329345703125,-5.7220458984375,8.48388671875
1.5262499,8.83939266204834,-3.952826976776123,-0.040701430290937424,7.9345703125,-5.7830810546875,8.5601806640625
1.5287499,8.801085472106934,-3.9863457679748535,-0.023942016065120697,8.1939697265625,-5.859375,8.819580078125
1.5312499,8.772355079650879,-4.003105163574219,-0.004788403399288654,8.1329345703125,-5.9814453125,9.0789794921875
1.5337498999999999,8.760383605957031,-4.000710964202881,0.009576806798577309,7.99560546875,-5.79833984375,9.1094970703125
1.5362499,8.760383605957031,-3.9839515686035156,0.016759412363171577,7.8125,-5.9051513671875,9.1552734375
1.5387499,8.78193187713623,-3.955221176147461,0.011971008032560349,7.6904296875,-5.8441162109375,9.2926025390625
1.5412499,8.803479194641113,-3.9264907836914062,0.004788403399288654,7.3699951171875,-5.767822265625,9.3994140625
1.5437499,8.827422142028809,-3.9049429893493652,-0.002394201699644327,7.1563720703125,-5.6915283203125,9.2620849609375
1.5462498999999998,8.841787338256836,-3.8953661918640137,-0.004788403399288654,6.89697265625,-5.523681640625,9.368896484375
1.5487499,8.848969459533691,-3.8977603912353516,-0.009576806798577309,6.8511962890625,-5.2337646484375,9.4146728515625
1.5512499,8.851364135742188,-3.907337188720703,-0.009576806798577309,6.4544677734375,-5.218505859375,9.307861328125
1.5537499,8.851364135742188,-3.928884983062744,-0.016759412363171577,6.1187744140625,-5.2337646484375,9.2315673828125
1.5562498999999999,8.851364135742188,-3.9600095748901367,-0.021547814831137657,6.0272216796875,-5.157470703125,9.2620849609375
1.5587499,8.846575736999512,-4.003105163574219,-0.031124621629714966,5.9814453125,-5.0811767578125,9.4451904296875
1.5612499,8.83699893951416,-4.046200752258301,-0.043095629662275314,6.0272216796875,-4.94384765625,9.368896484375
1.5637499,8.827422142028809,-4.089296340942383,-0.047884032130241394,6.0272216796875,-4.730224609375,9.2010498046875
1.5662498999999999,8.820239067077637,-4.122815132141113,-0.05506663769483566,5.9967041015625,-4.730224609375,9.21630859375
1.5687499,8.813055992126465,-4.151545524597168,-0.05027823522686958,5.9356689453125,-4.669189453125,9.3536376953125
1.5712499,8.80587387084961,-4.173093795776367,-0.040701430290937424,6.195068359375,-4.7454833984375,9.490966796875
1.5737499,8.801085472106934,-4.19224739074707,-0.023942016065120697,6.3018798828125,-4.5166015625,9.3841552734375
1.5762498999999999,8.798690795898438,-4.2090067863464355,-0.002394201699644327,6.2255859375,-4.3792724609375,9.58251953125
1.5787499,8.808267593383789,-4.220977783203125,0.016759412363171577,6.3934326171875,-4.4097900390625,9.735107421875
1.5812499,8.825027465820312,-4.230554580688477,0.023942016065120697,6.317138671875,-4.425048828125,9.58251953125
1.5837499,8.853757858276367,-4.23773717880249,0.026336219161748886,6.2408447265625,-4.241943359375,9.613037109375
1.5862498999999999,8.882488250732422,-4.23773717880249,0.019153613597154617,6.34765625,-4.1351318359375,9.6588134765625
1.5887499,8.911218643188477,-4.240131378173828,0.0071826050989329815,6.5155029296875,-4.1046142578125,9.6282958984375
1.5912499,8.932766914367676,-4.23773717880249,-0.009576806798577309,6.561279296875,-3.8604736328125,9.5977783203125
1.5937499,8.944737434387207,-4.240131378173828,-0.033518824726343155,6.5155029296875,-3.6468505859375,9.6435546875
1.5962498999999999,8.951920509338379,-4.247313976287842,-0.05746084079146385,6.7901611328125,-3.3416748046875,9.46044921875
1.5987499,8.951920509338379,-4.256890773773193,-0.07661445438861847,6.805419921875,-3.5247802734375,9.27734375
1.6012499,8.954314231872559,-4.271255970001221,-0.090979665517807,6.866455078125,-3.6163330078125,9.3231201171875
1.6037499,8.951920509338379,-4.28322696685791,-0.0933738648891449,7.049560546875,-3.5400390625,9.368896484375
1.6062499,8.951920509338379,-4.302380561828613,-0.08619125932455063,7.049560546875,-3.47900390625,9.21630859375
1.6087498999999998,8.951920509338379,-4.309563159942627,-0.0694318488240242,7.3699951171875,-3.41796875,9.2620849609375
1.6112499,8.954314231872559,-4.314351558685303,-0.0454898327589035,7.4615478515625,-3.143310546875,9.246826171875
1.6137499,8.956708908081055,-4.311957359313965,-0.019153613597154617,7.4920654296875,-3.1280517578125,9.1705322265625
1.6162499,8.96389102935791,-4.311957359313965,0,7.62939453125,-3.387451171875,9.1552734375
1.6187498999999999,8.966285705566406,-4.314351558685303,0.0071826050989329815,7.5531005859375,-3.021240234375,9.002685546875
1.6212499,8.971074104309082,-4.323928356170654,0.004788403399288654,7.7667236328125,-2.9144287109375,9.2315673828125
1.6237499,8.973467826843262,-4.335899353027344,-0.002394201699644327,7.7056884765625,-2.62451171875,9.1400146484375
1.6262499,8.971074104309082,-4.347870349884033,-0.009576806798577309,7.598876953125,-2.5787353515625,9.1705322265625
1.6287498999999999,8.968679428100586,-4.357447147369385,-0.023942016065120697,7.6446533203125,-2.2735595703125,9.2010498046875
1.6312499,8.971074104309082,-4.369418144226074,-0.035913024097681046,7.598876953125,-1.983642578125,9.1705322265625
1.6337499,8.971074104309082,-4.378994941711426,-0.05746084079146385,7.6904296875,-1.983642578125,9.3994140625
1.6362499,8.971074104309082,-4.395754337310791,-0.07900865375995636,7.62939453125,-2.0904541015625,9.246826171875
1.6387498999999999,8.96149730682373,-4.414907932281494,-0.10295066982507706,7.75146484375,-2.01416015625,9.3536376953125
1.6412499,8.947132110595703,-4.434061527252197,-0.1173158809542656,7.8125,-1.7852783203125,9.429931640625
1.6437499,8.927978515625,-4.446032524108887,-0.1364694982767105,7.8887939453125,-1.7547607421875,9.33837890625
1.6462499,8.911218643188477,-4.4508209228515625,-0.14604631066322327,7.87353515625,-1.739501953125,9.3994140625
1.6487498999999999,8.892065048217773,-4.441244125366211,-0.15801730751991272,7.8582763671875,-2.0751953125,9.3536376953125
1.6512499,8.880094528198242,-4.426878929138184,-0.16519992053508759,7.7362060546875,-2.1514892578125,9.552001953125
1.6537499,8.875306129455566,-4.414907932281494,-0.17238251864910126,7.5531005859375,-2.166748046875,9.5062255859375
1.6562499,8.87291145324707,-4.402936935424805,-0.17238251864910126,7.3699951171875,-1.89208984375,9.3536376953125
1.6587498999999999,8.880094528198242,-4.400542736053467,-0.17238251864910126,7.2021484375,-1.922607421875,9.3994140625
1.6612499,8.887276649475098,-4.4077253341674805,-0.16519992053508759,7.080078125,-2.1209716796875,9.5672607421875
1.6637499,8.892065048217773,-4.424484729766846,-0.1604115068912506,6.744384765625,-2.197265625,9.6435546875
1.6662499,8.89445972442627,-4.448426723480225,-0.15801730751991272,6.9427490234375,-2.13623046875,9.490966796875
1.6687499,8.889671325683594,-4.4723687171936035,-0.15322890877723694,6.744384765625,-2.1209716796875,9.6435546875
1.6712498999999998,8.875306129455566,-4.496310710906982,-0.15801730751991272,6.4239501953125,-2.3193359375,9.765625
1.6737499,8.860940933227539,-4.51067590713501,-0.1604115068912506,6.1798095703125,-2.25830078125,9.7808837890625
1.6762499,8.841787338256836,-4.527435302734375,-0.16519992053508759,6.1187744140625,-2.5482177734375,9.735107421875
1.6787499,8.822632789611816,-4.5394062995910645,-0.16759411990642548,5.9356689453125,-2.5787353515625,9.7503662109375
1.6812498999999999,8.808267593383789,-4.5609540939331055,-0.16998831927776337,5.9051513671875,-2.7313232421875,9.70458984375
1.6837499,8.793902397155762,-4.572925090789795,-0.16998831927776337,5.7373046875,-3.11279296875,9.5977783203125
1.6862499,8.78193187713623,-4.58968448638916,-0.16998831927776337,5.3558349609375,-3.082275390625,9.6435546875
1.6887499,8.767566680908203,-4.592078685760498,-0.17477671802043915,5.157470703125,-3.0517578125,9.765625
1.6912498999999999,8.760383605957031,-4.594472885131836,-0.181959331035614,5.1422119140625,-3.4637451171875,9.82666015625
1.6937499,8.753201484680176,-4.592078685760498,-0.19153612852096558,4.5013427734375,-3.570556640625,9.5672607421875
1.6962499,8.75080680847168,-4.596867084503174,-0.19393034279346466,4.2266845703125,-3.875732421875,9.6588134765625
1.6987499,8.75080680847168,-4.611232280731201,-0.18914192914962769,4.21142578125,-4.21142578125,9.7808837890625
1.7012498999999999,8.755595207214355,-4.6255974769592285,-0.17717093229293823,3.814697265625,-4.3487548828125,9.70458984375
1.7037499,8.760383605957031,-4.649539470672607,-0.15801730751991272,3.3111572265625,-4.6234130859375,9.70458984375
1.7062499,8.762778282165527,-4.668693542480469,-0.1388636976480484,3.0059814453125,-4.9591064453125,9.7198486328125
1.7087499,8.760383605957031,-4.692635536193848,-0.12928688526153564,2.6397705078125,-4.8828125,9.82666015625
1.7112498999999999,8.746018409729004,-4.714183330535889,-0.12449848651885986,2.3040771484375,-5.0048828125,9.857177734375
1.7137499,8.724471092224121,-4.73573112487793,-0.12689268589019775,1.89208984375,-5.035400390625,9.82666015625
1.7162499,8.698134422302246,-4.759673118591309,-0.12928688526153564,1.2969970703125,-5.3558349609375,10.162353515625
1.7187499,8.671798706054688,-4.778826713562012,-0.12449848651885986,0.823974609375,-5.37109375,10.19287109375
1.7212498999999999,8.647856712341309,-4.793191909790039,-0.12210428714752197,0.518798828125,-5.4168701171875,10.2386474609375
1.7237499,8.631096839904785,-4.800374507904053,-0.11252748221158981,-0.1983642578125,-5.37109375,10.3607177734375
1.7262499,8.619126319885254,-4.800374507904053,-0.10534487664699554,-0.946044921875,-5.4931640625,10.589599609375
1.7287499,8.607154846191406,-4.795586109161377,-0.0933738648891449,-1.46484375,-5.31005859375,10.8795166015625
1.7312499,8.5903959274292,-4.786009311676025,-0.08140286058187485,-2.0294189453125,-5.401611328125,10.6353759765625
1.7337498999999998,8.56884765625,-4.78122091293335,-0.0694318488240242,-2.62451171875,-5.401611328125,10.5743408203125
1.7362499,8.537723541259766,-4.776432514190674,-0.05746084079146385,-3.2958984375,-5.340576171875,10.8642578125
1.7387499,8.51138687133789,-4.786009311676025,-0.043095629662275314,-3.753662109375,-5.401611328125,10.80322265625
1.7412499,8.489839553833008,-4.795586109161377,-0.026336219161748886,-4.302978515625,-5.18798828125,10.772705078125
1.7437498999999999,8.470685958862305,-4.812345504760742,-0.002394201699644327,-4.82177734375,-4.913330078125,10.6658935546875
1.7462499,8.451532363891602,-4.8267107009887695,0.019153613597154617,-5.279541015625,-4.7149658203125,10.772705078125
1.7487499,8.427590370178223,-4.841075897216797,0.026336219161748886,-5.8441162109375,-4.5013427734375,10.68115234375
1.7512499,8.403648376464844,-4.853046894073486,0.026336219161748886,-6.65283203125,-4.364013671875,10.7574462890625
1.7537498999999999,8.379706382751465,-4.865017890930176,0.014365210197865963,-6.77490234375,-4.5013427734375,10.711669921875
1.7562499,8.360552787780762,-4.876988887786865,0.002394201699644327,-7.049560546875,-4.2877197265625,10.7421875
1.7587499,8.346187591552734,-4.891354084014893,-0.0071826050989329815,-7.7362060546875,-3.9520263671875,10.772705078125
1.7612499,8.334216117858887,-4.903325080871582,-0.016759412363171577,-7.965087890625,-4.0283203125,10.772705078125
1.7637498999999999,8.322244644165039,-4.9152960777282715,-0.028730420395731926,-8.1634521484375,-3.96728515625,11.1083984375
1.7662499,8.307879447937012,-4.924872875213623,-0.0454898327589035,-8.3770751953125,-3.9215087890625,10.8489990234375
1.7687499,8.291120529174805,-4.932055473327637,-0.06224924325942993,-8.6212158203125,-3.692626953125,11.1236572265625
1.7712499,8.26478385925293,-4.944026470184326,-0.07900865375995636,-8.880615234375,-3.47900390625,11.2457275390625
1.7737498999999999,8.233659744262695,-4.95120906829834,-0.090979665517807,-9.063720703125,-3.0975341796875,11.16943359375
1.7762499,8.200140953063965,-4.960785865783691,-0.10295066982507706,-9.1400146484375,-3.2501220703125,11.3677978515625
1.7787499,8.17141056060791,-4.965574264526367,-0.1173158809542656,-9.429931640625,-2.8839111328125,11.4898681640625
1.7812499,8.149862289428711,-4.9583916664123535,-0.12689268589019775,-9.70458984375,-2.7923583984375,11.4898681640625
1.7837498999999999,8.135497093200684,-4.953603267669678,-0.1412578970193863,-9.94873046875,-2.7923583984375,11.5203857421875
1.7862499,8.130708694458008,-4.941632270812988,-0.15562310814857483,-9.9029541015625,-2.5787353515625,11.3677978515625
1.7887499,8.125920295715332,-4.929661273956299,-0.17238251864910126,-10.3302001953125,-2.2430419921875,11.7340087890625
1.7912499,8.130708694458008,-4.912901878356934,-0.19393034279346466,-10.5133056640625,-2.0294189453125,11.749267578125
1.7937499,8.133103370666504,-4.8937482833862305,-0.21787235140800476,-10.6658935546875,-1.7852783203125,11.7034912109375
1.7962498999999998,8.13789176940918,-4.865017890930176,-0.23942017555236816,-11.138916015625,-1.434326171875,11.7340087890625
1.7987499,8.145073890686035,-4.843470096588135,-0.2513911724090576,-11.444091796875,-1.1444091796875,11.7645263671875
1.8012499,8.152256965637207,-4.821922302246094,-0.2585737705230713,-11.77978515625,-1.1138916015625,11.8560791015625
1.8037499,8.164227485656738,-4.8051629066467285,-0.26096799969673157,-12.2222900390625,-0.67138671875,11.65771484375
1.8062498999999999,8.176198959350586,-4.793191909790039,-0.26336219906806946,-12.51220703125,-0.457763671875,11.65771484375
1.8087499,8.180987358093262,-4.78122091293335,-0.26815059781074524,-12.7410888671875,0.0762939453125,11.566162109375
1.8112499,8.180987358093262,-4.7620673179626465,-0.2777273952960968,-13.275146484375,0.3662109375,11.749267578125
1.8137499,8.178592681884766,-4.745307922363281,-0.2849099934101105,-13.6260986328125,0.8544921875,11.932373046875
1.8162498999999999,8.17380428314209,-4.72376012802124,-0.2944868206977844,-13.916015625,1.434326171875,11.8408203125
1.8187499,8.178592681884766,-4.704606533050537,-0.2992752194404602,-14.6026611328125,1.8157958984375,12.02392578125
1.8212499,8.183381080627441,-4.685452938079834,-0.3016694188117981,-15.0299072265625,1.983642578125,11.9781494140625
1.8237499,8.197746276855469,-4.668693542480469,-0.2992752194404602,-15.3656005859375,2.5177001953125,12.115478515625
1.8262498999999999,8.219294548034668,-4.654327869415283,-0.2968810200691223,-15.625,2.9296875,12.420654296875
1.8287499,8.243236541748047,-4.639962673187256,-0.29209262132644653,-15.960693359375,3.4942626953125,12.4969482421875
1.8312499,8.269572257995605,-4.627991676330566,-0.2944868206977844,-16.204833984375,4.119873046875,12.39013671875
1.8337499,8.29590892791748,-4.611232280731201,-0.304063618183136,-16.5252685546875,4.7760009765625,12.63427734375
1.8362498999999999,8.315062522888184,-4.592078685760498,-0.31842881441116333,-16.7083740234375,5.1422119140625,12.939453125
1.8387499,8.33182144165039,-4.570530891418457,-0.33279404044151306,-17.120361328125,5.8441162109375,13.1378173828125
1.8412499,8.336610794067383,-4.541800498962402,-0.35673606395721436,-17.4407958984375,6.3323974609375,12.9547119140625
1.8437499,8.339004516601562,-4.520252704620361,-0.3687070608139038,-17.5018310546875,6.8359375,13.336181640625
1.8462498999999999,8.339004516601562,-4.496310710906982,-0.38307225704193115,-17.8680419921875,7.4462890625,13.5650634765625
1.8487499,8.343792915344238,-4.481945514678955,-0.3926490843296051,-18.00537109375,7.9345703125,13.7481689453125
1.8512499,8.35336971282959,-4.467580318450928,-0.3998316824436188,-17.9290771484375,8.2855224609375,14.0228271484375
1.8537499,8.367734909057617,-4.458003520965576,-0.40462008118629456,-17.913818359375,8.758544921875,14.22119140625
1.8562499,8.38688850402832,-4.446032524108887,-0.4118026793003082,-18.096923828125,9.033203125,14.70947265625
1.8587498999999998,8.4108304977417,-4.4292731285095215,-0.42377370595932007,-18.096923828125,9.27734375,15.3045654296875
1.8612499,8.432378768920898,-4.4077253341674805,-0.43095630407333374,-17.9443359375,9.765625,15.44189453125
1.8637499,8.453926086425781,-4.37420654296875,-0.4405331015586853,-17.88330078125,10.0555419921875,15.80810546875
1.8662499,8.47547435760498,-4.335899353027344,-0.44771572947502136,-17.7154541015625,10.498046875,16.1895751953125
1.8687498999999999,8.489839553833008,-4.292803764343262,-0.4572925269603729,-17.6544189453125,10.5438232421875,16.4337158203125
1.8712499,8.501810073852539,-4.2544965744018555,-0.4620809257030487,-17.486572265625,10.92529296875,16.8914794921875
1.8737499,8.506598472595215,-4.216189384460449,-0.4668693244457245,-17.51708984375,11.1541748046875,17.2882080078125
1.8762499,8.504204750061035,-4.1874589920043945,-0.47405192255973816,-17.1661376953125,11.16943359375,17.730712890625
1.8787498999999999,8.501810073852539,-4.156333923339844,-0.47644615173339844,-17.02880859375,11.3677978515625,18.1121826171875
1.8812499,8.497021675109863,-4.127603530883789,-0.4836287498474121,-16.8914794921875,11.6424560546875,18.4326171875
1.8837499,8.489839553833008,-4.098873138427734,-0.48602294921875,-16.8914794921875,11.71875,18.7835693359375
1.8862499,8.485051155090332,-4.0749311447143555,-0.4884171485900879,-16.632080078125,11.8560791015625,19.1192626953125
1.8887498999999999,8.47786808013916,-4.050989151000977,-0.4884171485900879,-16.5863037109375,11.9476318359375,19.7601318359375
1.8912499,8.47786808013916,-4.000710964202881,-0.49320554733276367,-16.05224609375,11.9171142578125,20.5078125
1.8937499,8.47786808013916,-4.000710964202881,-0.49320554733276367,-16.05224609375,11.9171142578125,20.5078125
1.8962499,8.518569946289062,-3.9408559799194336,-0.49559974670410156,-15.960693359375,11.7340087890625,21.209716796875
1.8987498999999999,8.518569946289062,-3.9408559799194336,-0.49559974670410156,-15.960693359375,11.7340087890625,21.209716796875
1.9012499,8.583212852478027,-3.8594532012939453,-0.49559974670410156,-15.80810546875,11.627197265625,22.0794677734375
1.9037499,8.583212852478027,-3.8594532012939453,-0.49559974670410156,-15.80810546875,11.627197265625,22.0794677734375
1.9062499,8.633491516113281,-3.7924153804779053,-0.4884171485900879,-15.411376953125,11.29150390625,22.6898193359375
1.9087498999999999,8.633491516113281,-3.7924153804779053,-0.4884171485900879,-15.411376953125,11.29150390625,22.6898193359375
1.9112499,8.669404029846191,-3.756502389907837,-0.4692635238170624,-14.678955078125,10.650634765625,23.5595703125
1.9137499,8.669404029846191,-3.756502389907837,-0.4692635238170624,-14.678955078125,10.650634765625,23.5595703125
1.9162499,8.705317497253418,-3.7158010005950928,-0.44532153010368347,-14.6484375,10.406494140625,24.688720703125
1.9187499,8.705317497253418,-3.7158010005950928,-0.44532153010368347,-14.6484375,10.406494140625,24.688720703125
1.9212498999999998,8.722076416015625,-3.665522813796997,-0.4165911078453064,-14.0228271484375,9.979248046875,25.665283203125
1.9237499,8.722076416015625,-3.665522813796997,-0.4165911078453064,-14.0228271484375,9.979248046875,25.665283203125
1.9262499,8.71728801727295,-3.624821424484253,-0.3711012601852417,-13.97705078125,9.3994140625,26.7791748046875
1.9287499,8.71728801727295,-3.624821424484253,-0.3711012601852417,-13.97705078125,9.3994140625,26.7791748046875
1.9312498999999999,8.702922821044922,-3.5913026332855225,-0.31364041566848755,-13.397216796875,8.7738037109375,27.89306640625
1.9337499,8.702922821044922,-3.5913026332855225,-0.31364041566848755,-13.397216796875,8.7738037109375,27.89306640625
1.9362499,8.69095230102539,-3.5458126068115234,-0.26815059781074524,-13.18359375,8.30078125,29.632568359375
1.9387499,8.69095230102539,-3.5458126068115234,-0.26815059781074524,-13.18359375,8.30078125,29.632568359375
1.9412498999999999,8.667010307312012,-3.49314022064209,-0.24660277366638184,-12.847900390625,7.0953369140625,30.853271484375
1.9437499,8.667010307312012,-3.49314022064209,-0.24660277366638184,-12.847900390625,7.0953369140625,30.853271484375
1.9462499,8.585607528686523,-3.445256233215332,-0.23702596127986908,-12.6800537109375,6.28662109375,32.928466796875
1.9487499,8.585607528686523,-3.445256233215332,-0.23702596127986908,-12.6800537109375,6.28662109375,32.928466796875
1.9512498999999999,8.413225173950195,-3.4093432426452637,-0.23942017555236816,-12.39013671875,4.8065185546875,34.942626953125
1.9537499,8.413225173950195,-3.4093432426452637,-0.23942017555236816,-12.39013671875,4.8065185546875,34.942626953125
1.9562499,8.183381080627441,-3.380612850189209,-0.2753331959247589,-12.3138427734375,3.0670166015625,37.4603271484375
1.9587499,8.183381080627441,-3.380612850189209,-0.2753331959247589,-12.3138427734375,3.0670166015625,37.4603271484375
1.9612498999999999,7.953537940979004,-3.383007049560547,-0.35673606395721436,-12.63427734375,1.2664794921875,40.6951904296875
1.9637499,7.953537940979004,-3.383007049560547,-0.35673606395721436,-12.63427734375,1.2664794921875,40.6951904296875
1.9662499,7.781155586242676,-3.4165258407592773,-0.4644751250743866,-12.87841796875,-1.1138916015625,44.25048828125
1.9687499,7.781155586242676,-3.4165258407592773,-0.4644751250743866,-12.87841796875,-1.1138916015625,44.25048828125
1.9712498999999999,7.65186882019043,-3.4356794357299805,-0.5841852426528931,-13.3209228515625,-3.6468505859375,48.3551025390625
1.9737499,7.65186882019043,-3.4356794357299805,-0.5841852426528931,-13.3209228515625,-3.6468505859375,48.3551025390625
1.9762499,7.534552574157715,-3.4117374420166016,-0.6991068720817566,-13.9312744140625,-6.77490234375,52.6123046875
1.9787499,7.534552574157715,-3.4117374420166016,-0.6991068720817566,-13.9312744140625,-6.77490234375,52.6123046875
1.9812499,7.441178798675537,-3.335123062133789,-0.8188169598579407,-15.5029296875,-9.8114013671875,57.1441650390625
1.9837499,7.441178798675537,-3.335123062133789,-0.8188169598579407,-15.5029296875,-9.8114013671875,57.1441650390625
1.9862499,7.3669586181640625,-3.224989652633667,-0.9792284965515137,-17.6239013671875,-13.092041015625,62.1795654296875
1.9887499,7.3669586181640625,-3.224989652633667,-0.9792284965515137,-17.6239013671875,-13.092041015625,62.1795654296875
1.9912499,7.295132637023926,-3.098097085952759,-1.1635819673538208,-20.5841064453125,-16.4337158203125,67.3675537109375
1.9937498999999999,7.295132637023926,-3.098097085952759,-1.1635819673538208,-20.5841064453125,-16.4337158203125,67.3675537109375
1.9962499,7.237671852111816,-2.9759926795959473,-1.338358759880066,-23.8800048828125,-19.8974609375,72.540283203125
1.9987499,7.237671852111816,-2.9759926795959473,-1.338358759880066,-23.8800048828125,-19.8974609375,72.540283203125
2.0012499,7.225700855255127,-2.8562827110290527,-1.479616641998291,-27.83203125,-23.193359375,77.3468017578125
2.0037499,7.225700855255127,-2.8562827110290527,-1.479616641998291,-27.83203125,-23.193359375,77.3468017578125
2.0062499,7.261613845825195,-2.7269957065582275,-1.5753847360610962,-32.04345703125,-26.031494140625,82.03125
2.0087498999999998,7.261613845825195,-2.7269957065582275,-1.5753847360610962,-32.04345703125,-26.031494140625,82.03125
2.0112499,7.333439826965332,-2.609679937362671,-1.6352397203445435,-37.1856689453125,-29.3121337890625,86.85302734375
2.0137499,7.333439826965332,-2.609679937362671,-1.6352397203445435,-37.1856689453125,-29.3121337890625,86.85302734375
2.0162499,7.441178798675537,-2.5282769203186035,-1.6927006244659424,-42.6177978515625,-32.5927734375,91.7816162109375
2.0187499,7.441178798675537,-2.5282769203186035,-1.6927006244659424,-42.6177978515625,-32.5927734375,91.7816162109375
2.0212499,7.560888767242432,-2.4803929328918457,-1.7573440074920654,-48.6602783203125,-36.1785888671875,96.5576171875
2.0237499,7.560888767242432,-2.4803929328918457,-1.7573440074920654,-48.6602783203125,-36.1785888671875,96.5576171875
2.0262499,7.68538761138916,-2.470816135406494,-1.8291701078414917,-55.206298828125,-39.459228515625,101.531982421875
2.0287498999999998,7.68538761138916,-2.470816135406494,-1.8291701078414917,-55.206298828125,-39.459228515625,101.531982421875
2.0312499,7.7763671875,-2.542642116546631,-1.9129672050476074,-61.859130859375,-42.572021484375,106.75048828125
2.0337499,7.7763671875,-2.542642116546631,-1.9129672050476074,-61.859130859375,-42.572021484375,106.75048828125
2.0362499,7.817068576812744,-2.7054479122161865,-1.9991583824157715,-67.9168701171875,-45.379638671875,111.6943359375
2.0387499,7.817068576812744,-2.7054479122161865,-1.9991583824157715,-67.9168701171875,-45.379638671875,111.6943359375
2.0412499,7.848193168640137,-2.918531894683838,-2.078166961669922,-73.2879638671875,-48.40087890625,116.241455078125
2.0437499,7.848193168640137,-2.918531894683838,-2.078166961669922,-73.2879638671875,-48.40087890625,116.241455078125
2.0462499,7.922413349151611,-3.0382418632507324,-2.099714994430542,-78.155517578125,-51.81884765625,120.66650390625
2.0487499,7.922413349151611,-3.0382418632507324,-2.099714994430542,-78.155517578125,-51.81884765625,120.66650390625
2.0512498999999997,8.109161376953125,-2.964021682739258,-2.0590133666992188,-84.2132568359375,-55.0537109375,123.7945556640625
2.0537499,8.109161376953125,-2.964021682739258,-2.0590133666992188,-84.2132568359375,-55.0537109375,123.7945556640625
2.0562499,8.370129585266113,-2.8993782997131348,-2.0446481704711914,-90.14892578125,-57.4798583984375,126.708984375
2.0587499,8.487444877624512,-2.942473888397217,-2.0685901641845703,-92.2088623046875,-59.1888427734375,127.960205078125
2.0612499,8.583212852478027,-3.0358476638793945,-2.123656988143921,-94.1314697265625,-60.7757568359375,129.3487548828125
2.0637499,8.671798706054688,-3.1699230670928955,-2.209848165512085,-96.0235595703125,-62.0574951171875,130.5999755859375
2.0662499,8.757989883422852,-3.318363666534424,-2.3271639347076416,-97.808837890625,-63.3544921875,131.7291259765625
2.0687499,8.853757858276367,-3.464409828186035,-2.4660277366638184,-99.4720458984375,-64.8345947265625,132.7667236328125
2.0712498999999998,8.978256225585938,-3.581725835800171,-2.6168625354766846,-101.531982421875,-66.253662109375,134.0484619140625
2.0737499,9.114726066589355,-3.6990416049957275,-2.760514497756958,-103.8665771484375,-67.44384765625,135.1318359375
2.0762499,9.265560150146484,-3.8379054069519043,-2.9065608978271484,-105.89599609375,-68.878173828125,136.4593505859375
2.0787499,9.440337181091309,-3.957615375518799,-3.047818660736084,-105.1483154296875,-71.1517333984375,137.8936767578125
2.0812499,9.634267807006836,-4.084507942199707,-3.1914708614349365,-106.2164306640625,-73.3795166015625,139.3890380859375
2.0837499,9.888052940368652,-4.144362926483154,-3.35667085647583,-107.4066162109375,-75.1495361328125,140.625
2.0862499,10.20648193359375,-4.1395745277404785,-3.5194764137268066,-108.9935302734375,-76.7364501953125,141.937255859375
2.0887499,10.577583312988281,-4.072536945343018,-3.6966474056243896,-110.992431640625,-78.3843994140625,142.9290771484375
2.0912498999999998,10.989385604858398,-3.993528366088867,-3.8762125968933105,-113.09814453125,-80.4901123046875,144.195556640625
2.0937499,11.429919242858887,-3.8977603912353516,-4.05817174911499,-114.8223876953125,-82.611083984375,145.2178955078125
2.0962499,11.884817123413086,-3.84269380569458,-4.244919776916504,-116.6229248046875,-84.3963623046875,146.1334228515625
2.0987499,12.378023147583008,-3.7924153804779053,-4.431667327880859,-118.072509765625,-86.36474609375,146.8658447265625
2.1012499,12.902353286743164,-3.7469255924224854,-4.616020679473877,-119.56787109375,-88.5162353515625,147.27783203125
2.1037499,13.488932609558105,-3.6535518169403076,-4.790797710418701,-120.9716796875,-90.6829833984375,147.5830078125
2.1062499,14.154520034790039,-3.4620156288146973,-4.963180065155029,-122.7874755859375,-92.620849609375,147.369384765625
2.1087499,14.947001457214355,-3.1052796840667725,-5.161899089813232,-125.9918212890625,-94.451904296875,147.3541259765625
2.1112499,15.852009773254395,-2.6815059185028076,-5.372588634490967,-130.035400390625,-96.49658203125,147.1099853515625
2.1137498999999997,16.903064727783203,-2.183511972427368,-5.583278179168701,-133.2244873046875,-99.4873046875,146.1639404296875
2.1162499,18.071434020996094,-1.778891921043396,-5.729324817657471,-136.8255615234375,-102.874755859375,145.08056640625
2.1187499,19.405004501342773,-1.436521053314209,-5.7987565994262695,-139.923095703125,-106.8115234375,142.9901123046875
2.1212499,20.922927856445312,-1.1324573755264282,-5.781997203826904,-143.1121826171875,-110.2752685546875,140.3045654296875
2.1237499,22.644359588623047,-0.7996633648872375,-5.726930618286133,-147.9339599609375,-113.46435546875,137.8631591796875
2.1262499,24.526203155517578,-0.35913026332855225,-5.66228723526001,-153.5491943359375,-116.0125732421875,134.3536376953125
2.1287499,26.520572662353516,0.1412578970193863,-5.564124584197998,-160.0341796875,-118.9117431640625,130.4473876953125
2.1312499,28.524518966674805,0.6392518281936646,-5.449203014373779,-167.755126953125,-122.4822998046875,126.4495849609375
2.1337498999999998,30.49734115600586,1.0749965906143188,-5.284003257751465,-174.4232177734375,-125.5950927734375,121.978759765625
2.1362499,32.38157653808594,1.4652514457702637,-5.054159641265869,-180.0994873046875,-128.8299560546875,117.1417236328125
2.1387499,34.13892364501953,1.8124107122421265,-4.774038314819336,-186.5234375,-132.5225830078125,112.4267578125
2.1412499,35.73824691772461,2.1811177730560303,-4.41969633102417,-193.4661865234375,-136.2457275390625,107.2235107421875
2.1437499,37.155616760253906,2.628833532333374,-4.0533833503723145,-200.469970703125,-139.6026611328125,102.325439453125
2.1462499,38.3431396484375,3.0885202884674072,-3.6798880100250244,-208.49609375,-142.2576904296875,96.98486328125
2.1487499,39.276878356933594,3.555389642715454,-3.3494882583618164,-217.193603515625,-144.927978515625,91.4154052734375
2.1512499,39.89937210083008,3.9695863723754883,-3.045424461364746,-224.8687744140625,-147.186279296875,85.723876953125
2.1537498999999998,40.20582962036133,4.261679172515869,-2.784456491470337,-232.8643798828125,-149.322509765625,80.2764892578125
2.1562499,40.186676025390625,4.393360137939453,-2.561795711517334,-241.02783203125,-151.0162353515625,75.5157470703125
2.1587499,39.87782287597656,4.3622355461120605,-2.410961151123047,-249.0997314453125,-152.4200439453125,70.9686279296875
2.1612499,39.3343391418457,4.201824188232422,-2.3271639347076416,-257.14111328125,-154.11376953125,67.6116943359375
2.1637499,38.63762664794922,3.9600095748901367,-2.3367409706115723,-264.95361328125,-156.06689453125,65.3533935546875
2.1662499,37.821205139160156,3.7277719974517822,-2.3918075561523438,-273.223876953125,-157.196044921875,63.65966796875
2.1687499,36.99520492553711,3.507505416870117,-2.518700122833252,-281.646728515625,-158.782958984375,62.5152587890625
2.1712499,36.181175231933594,3.337517261505127,-2.691082715988159,-288.4674072265625,-161.163330078125,62.103271484375
2.1737499,35.43418502807617,3.177105665206909,-2.937685489654541,-295.257568359375,-163.1622314453125,62.0574951171875
2.1762499,34.747047424316406,3.0358476638793945,-3.227383852005005,-301.6815185546875,-164.4287109375,62.3016357421875
2.1787499,34.059913635253906,2.849100112915039,-3.5386300086975098,-308.2275390625,-165.283203125,63.3544921875
2.1812499,33.34644317626953,2.628833532333374,-3.8283286094665527,-314.117431640625,-166.5191650390625,65.0177001953125
2.1837499,32.56114196777344,2.3247697353363037,-4.079719543457031,-319.8089599609375,-167.6177978515625,67.7032470703125
2.1862499,31.7183837890625,1.9488801956176758,-4.280832767486572,-325.37841796875,-168.76220703125,71.8536376953125
2.1887499,30.80140495300293,1.534683346748352,-4.455609321594238,-331.207275390625,-169.86083984375,76.7059326171875
2.1912499,29.798234939575195,1.1659762859344482,-4.592078685760498,-336.60888671875,-171.0052490234375,82.8094482421875
2.1937499,28.668170928955078,0.8978256583213806,-4.699818134307861,-342.681884765625,-171.600341796875,89.935302734375
2.1962498999999998,27.418397903442383,0.8355764150619507,-4.795586109161377,-348.114013671875,-172.2259521484375,97.503662109375
2.1987499,26.05370330810547,0.9792284965515137,-4.891354084014893,-354.522705078125,-172.7142333984375,105.5755615234375
2.2012499,24.629152297973633,1.2689268589019775,-4.987122058868408,-362.3504638671875,-173.2025146484375,114.471435546875
2.2037499,23.173479080200195,1.6136919260025024,-5.082890033721924,-370.269775390625,-174.072265625,124.1302490234375
2.2062499,21.7010440826416,1.8770540952682495,-5.142745018005371,-378.7841796875,-174.8504638671875,134.1094970703125
2.2087499,20.199880599975586,1.9800047874450684,-5.1595048904418945,-386.8865966796875,-175.4302978515625,144.0277099609375
2.2112499,18.65083122253418,1.8914192914962769,-5.094861030578613,-394.5770263671875,-175.8880615234375,155.21240234375
2.2137499,17.027563095092773,1.6711528301239014,-4.972756862640381,-402.03857421875,-176.33056640625,166.473388671875
2.2162498999999998,15.286977767944336,1.3455413579940796,-4.800374507904053,-410.003662109375,-176.910400390625,178.0242919921875
2.2187499,13.409923553466797,0.9959878921508789,-4.596867084503174,-417.7398681640625,-177.1087646484375,189.727783203125
2.2212499,11.346121788024902,0.6536170840263367,-4.381389141082764,-424.346923828125,-177.4139404296875,201.995849609375
2.2237499,9.064447402954102,0.3423708379268646,-4.153939723968506,-430.8013916015625,-178.009033203125,214.508056640625
2.2262499,6.598419666290283,0.11252748221158981,-3.9217023849487305,-437.31689453125,-179.19921875,227.2186279296875
2.2287499,3.9863457679748535,-0.035913024097681046,-3.6583402156829834,-443.7408447265625,-181.1981201171875,239.74609375
2.2312499,1.3120225667953491,-0.0694318488240242,-3.4165258407592773,-449.76806640625,-183.0596923828125,251.922607421875
2.2337499,-1.357512354850769,-0.026336219161748886,-3.1914708614349365,-455.7647705078125,-184.4940185546875,263.763427734375
2.2362499,-3.9911341667175293,0.06224924325942993,-3.0406360626220703,-461.73095703125,-185.4400634765625,274.8565673828125
2.2387499,-6.63433313369751,0.12928688526153564,-2.9664158821105957,-467.529296875,-186.0198974609375,285.7208251953125
2.2412499,-9.361329078674316,0.10773907601833344,-2.942473888397217,-471.832275390625,-186.5386962890625,296.7376708984375
2.2437499,-12.255918502807617,-0.021547814831137657,-2.9664158821105957,-473.8006591796875,-188.1103515625,308.135986328125
2.2462499,-15.363592147827148,-0.23702596127986908,-3.0190882682800293,-474.3804931640625,-190.49072265625,319.9462890625
2.2487499,-18.665197372436523,-0.48602294921875,-3.1675288677215576,-474.4110107421875,-193.756103515625,331.878662109375
2.2512499,-22.100875854492188,-0.790086567401886,-3.4572272300720215,-474.4720458984375,-197.7386474609375,343.6737060546875
2.2537499,-25.617958068847656,-1.1971008777618408,-3.9624037742614746,-474.5330810546875,-201.568603515625,355.2093505859375
2.2562499,-29.16616439819336,-1.824381709098816,-4.752490520477295,-472.2900390625,-205.596923828125,366.7449951171875
2.2587498999999998,-32.659305572509766,-2.786850690841675,-5.813121795654297,-467.1173095703125,-210.0067138671875,378.4027099609375
2.2612499,-36.06386184692383,-4.0749311447143555,-7.240066051483154,-457.8704833984375,-214.2181396484375,389.5111083984375
2.2637499,-39.23857116699219,-5.700594425201416,-8.918401718139648,-446.5789794921875,-216.73583984375,400.848388671875
2.2662499,-42.11400604248047,-7.491456985473633,-10.78587818145752,-432.7850341796875,-217.8192138671875,411.407470703125
2.2687499,-44.630313873291016,-9.29189682006836,-12.63899040222168,-416.4276123046875,-216.9342041015625,420.3033447265625
2.2712499,-46.806644439697266,-10.919954299926758,-14.264654159545898,-401.30615234375,-213.409423828125,427.3834228515625
2.2737499,-48.75312805175781,-12.20803451538086,-15.509638786315918,-385.43701171875,-207.5347900390625,432.403564453125
2.2762499,-50.54878234863281,-13.10107135772705,-16.314090728759766,-368.804931640625,-200.2105712890625,435.11962890625
2.2787498999999998,-52.18162536621094,-13.599065780639648,-16.733076095581055,-352.6458740234375,-190.673828125,435.5010986328125
2.2812499,-53.56068801879883,-13.7882080078125,-16.81926727294922,-337.0513916015625,-177.8411865234375,432.9071044921875
2.2837499,-54.470481872558594,-13.831303596496582,-16.58224105834961,-319.4732666015625,-162.7044677734375,425.7659912109375
2.2862499,-54.72426986694336,-13.903129577636719,-15.98129653930664,-299.224853515625,-145.660400390625,414.4287109375
2.2887499,-54.12811279296875,-14.085088729858398,-14.980520248413086,-275.2532958984375,-126.3580322265625,399.5513916015625
2.2912499,-52.61018753051758,-14.405911445617676,-13.57751750946045,-247.6959228515625,-104.5074462890625,380.828857421875
2.2937499,-50.06036376953125,-14.750677108764648,-11.805809020996094,-216.949462890625,-81.573486328125,359.466552734375
2.2962499,-46.579193115234375,-14.951789855957031,-9.739612579345703,-185.4248046875,-56.6864013671875,335.205078125
2.2987499,-42.27920913696289,-14.932636260986328,-7.448361396789551,-156.524658203125,-30.609130859375,307.8155517578125
2.3012499,-37.55544662475586,-14.623784065246582,-5.023035049438477,-129.2572021484375,-4.3182373046875,277.0233154296875
2.3037499,-32.8699951171875,-14.101847648620605,-2.5546131134033203,-102.3101806640625,21.270751953125,243.10302734375
2.3062499,-28.74717903137207,-13.46259593963623,-0.2082955539226532,-75.0732421875,43.64013671875,207.122802734375
2.3087499,-25.56768035888672,-12.830527305603027,1.9273324012756348,-46.9207763671875,61.187744140625,169.677734375
2.3112499,-23.424869537353516,-12.320562362670898,3.7181951999664307,-17.7764892578125,73.6083984375,131.2255859375
2.3137499,-22.160730361938477,-12.00452709197998,5.044582843780518,13.0767822265625,81.6497802734375,92.2088623046875
2.3162499,-21.361066818237305,-11.863269805908203,5.810727596282959,46.173095703125,86.578369140625,52.154541015625
2.3187499,-20.64999008178711,-11.78904914855957,5.9519853591918945,81.3446044921875,90.0726318359375,11.71875
2.3212498999999998,-19.797653198242188,-11.688492774963379,5.489904403686523,114.5782470703125,93.7347412109375,-28.9154052734375
2.3237499,-18.825607299804688,-11.556811332702637,4.477157115936279,145.56884765625,97.0306396484375,-68.206787109375
2.3262499,-17.91820526123047,-11.489773750305176,3.0526070594787598,176.69677734375,98.388671875,-105.224609375
2.3287499,-17.338808059692383,-11.616666793823242,1.3527239561080933,209.4268798828125,98.0377197265625,-138.458251953125
2.3312499,-17.24543571472168,-11.994950294494629,-0.507570743560791,242.523193359375,96.6644287109375,-168.51806640625
2.3337499,-17.657238006591797,-12.509703636169434,-2.4468741416931152,274.169921875,94.1314697265625,-194.732666015625
2.3362499,-18.52872657775879,-12.990938186645508,-4.390965938568115,303.5430908203125,90.2862548828125,-216.6748046875
2.3387499,-19.730615615844727,-13.26866626739502,-6.291962146759033,329.58984375,86.2884521484375,-234.6954345703125
2.3412498999999998,-21.128829956054688,-13.256694793701172,-8.085219383239746,351.1962890625,81.9854736328125,-248.291015625
2.3437499,-22.570138931274414,-12.935872077941895,-9.706093788146973,368.438720703125,77.7587890625,-257.5225830078125
2.3462499,-23.9420166015625,-12.368446350097656,-11.097125053405762,381.9580078125,73.2574462890625,-262.8021240234375
2.3487499,-25.1367244720459,-11.611878395080566,-12.198457717895508,391.5863037109375,68.7103271484375,-265.0146484375
2.3512499,-26.07764434814453,-10.704475402832031,-13.00051498413086,397.247314453125,63.9495849609375,-264.3890380859375
2.3537499,-26.704925537109375,-9.66299819946289,-13.51766300201416,399.9176025390625,59.0972900390625,-261.6424560546875
2.3562499,-26.992229461669922,-8.485051155090332,-13.773842811584473,399.0020751953125,54.3060302734375,-256.9427490234375
2.3587499,-26.9012508392334,-7.16584587097168,-13.828908920288086,394.866943359375,49.4384765625,-251.0223388671875
2.3612499,-26.420015335083008,-5.69580602645874,-13.73314094543457,388.36669921875,44.464111328125,-244.964599609375
2.3637499,-25.550920486450195,-4.072536945343018,-13.543998718261719,378.875732421875,39.7491455078125,-239.2730712890625
2.3662499,-24.351425170898438,-2.3511061668395996,-13.290213584899902,366.119384765625,35.9344482421875,-234.2987060546875
2.3687499,-22.90772247314453,-0.5937620401382446,-12.99812126159668,351.4862060546875,32.2113037109375,-230.65185546875
2.3712499,-21.32515525817871,1.0821791887283325,-12.674903869628906,335.5255126953125,28.80859375,-228.21044921875
2.3737499,-19.704280853271484,2.5713725090026855,-12.301408767700195,318.756103515625,25.8636474609375,-227.142333984375
2.3762499,-18.085800170898438,3.804386615753174,-11.903970718383789,301.2542724609375,23.040771484375,-227.0355224609375
2.3787499,-16.5247802734375,4.726154327392578,-11.456254959106445,283.3099365234375,20.660400390625,-227.783203125
2.3812499,-15.018827438354492,5.324704647064209,-10.970232009887695,265.5792236328125,19.2718505859375,-229.4158935546875
2.3837498999999998,-13.606247901916504,5.568912982940674,-10.438719749450684,247.589111328125,18.3258056640625,-231.7962646484375
2.3862499,-12.27507209777832,5.434837818145752,-9.854534149169922,229.5074462890625,17.7459716796875,-234.039306640625
2.3887499,-11.049241065979004,4.922478675842285,-9.232041358947754,212.0361328125,18.4783935546875,-235.5804443359375
2.3912499,-9.940725326538086,4.079719543457031,-8.56884765625,196.1517333984375,19.500732421875,-236.297607421875
2.3937499,-8.98543930053711,2.9951462745666504,-7.91283655166626,181.4727783203125,20.7672119140625,-235.4888916015625
2.3962499,-8.183381080627441,1.8363527059555054,-7.328651428222656,168.0450439453125,22.4456787109375,-233.245849609375
2.3987499,-7.489062786102295,0.7374141216278076,-6.897695064544678,155.2581787109375,24.10888671875,-230.04150390625
2.4012499,-6.828263282775879,-0.19871874153614044,-6.66785192489624,142.181396484375,26.0162353515625,-226.470947265625
2.4037498999999998,-6.1267619132995605,-0.9313444495201111,-6.646304130554199,129.1351318359375,28.5491943359375,-222.3358154296875
2.4062499,-5.339069843292236,-1.4844050407409668,-6.787561893463135,117.5537109375,31.2347412109375,-217.7886962890625
2.4087499,-4.467580318450928,-1.8986018896102905,-7.026981830596924,106.9183349609375,33.599853515625,-212.9669189453125
2.4112499,-3.533841609954834,-2.22660756111145,-7.314286231994629,97.259521484375,36.3006591796875,-208.2977294921875
2.4137499,-2.5713725090026855,-2.497152328491211,-7.615955829620361,88.7451171875,39.0625,-203.6590576171875
2.4162499,-1.6065093278884888,-2.738966703414917,-7.908048152923584,81.2530517578125,41.259765625,-199.0814208984375
2.4187499,-0.6631938815116882,-2.9664158821105957,-8.17141056060791,74.462890625,44.00634765625,-194.64111328125
2.4212499,0.23942017555236816,-3.184288263320923,-8.396465301513672,68.756103515625,46.5850830078125,-190.2618408203125
2.4237499,1.0989385843276978,-3.4117374420166016,-8.571242332458496,64.3310546875,48.9654541015625,-186.1572265625
2.4262499,1.9129672050476074,-3.641580820083618,-8.695740699768066,61.0198974609375,51.239013671875,-182.43408203125
2.4287499,2.6886885166168213,-3.866635799407959,-8.779537200927734,58.8226318359375,53.9093017578125,-178.5430908203125
2.4312499,3.4332852363586426,-4.067748546600342,-8.822632789611816,57.0831298828125,56.09130859375,-174.8504638671875
2.4337499,4.158728122711182,-4.240131378173828,-8.827422142028809,55.877685546875,58.2122802734375,-171.2646484375
2.4362499,4.884171485900879,-4.383783340454102,-8.793902397155762,55.389404296875,60.1654052734375,-167.7398681640625
2.4387499,5.595249176025391,-4.5154643058776855,-8.710105895996094,55.1300048828125,62.255859375,-164.0777587890625
2.4412499,6.291962146759033,-4.639962673187256,-8.580819129943848,55.4351806640625,64.605712890625,-160.858154296875
2.4437499,6.955155849456787,-4.7620673179626465,-8.42040729522705,56.1676025390625,66.7572021484375,-157.65380859375
2.4462498999999998,7.572859764099121,-4.874594688415527,-8.250418663024902,57.4951171875,69.39697265625,-154.5867919921875
2.4487499,8.13789176940918,-4.970362663269043,-8.101978302001953,59.8297119140625,72.4029541015625,-151.580810546875
2.4512499,8.621520042419434,-5.066130638122559,-7.989450931549072,62.3779296875,75.6988525390625,-149.0020751953125
2.4537499,9.040505409240723,-5.169081687927246,-7.910442352294922,65.5517578125,78.7200927734375,-146.514892578125
2.4562499,9.390059471130371,-5.286397457122803,-7.869740962982178,69.5953369140625,81.8328857421875,-144.10400390625
2.4587499,9.6989107131958,-5.432443618774414,-7.845798969268799,74.1119384765625,84.65576171875,-141.754150390625
2.4612499,10.000580787658691,-5.592854976654053,-7.829039573669434,79.010009765625,87.432861328125,-139.251708984375
2.4637499,10.295066833496094,-5.7556610107421875,-7.802703380584717,84.5489501953125,90.3167724609375,-136.6729736328125
2.4662498999999998,10.589553833007812,-5.9304375648498535,-7.740454196929932,90.0726318359375,92.437744140625,-134.033203125
2.4687499,10.884040832519531,-6.129156112670898,-7.623138427734375,96.160888671875,94.8028564453125,-131.622314453125
2.4712499,11.164162635803223,-6.356605529785156,-7.436390399932861,102.5390625,96.9085693359375,-128.84521484375
2.4737499,11.439496040344238,-6.603208065032959,-7.189787864685059,109.832763671875,98.5565185546875,-125.5035400390625
2.4762499,11.702857971191406,-6.842628479003906,-6.907271862030029,117.2943115234375,100.372314453125,-121.826171875
2.4787499,11.959037780761719,-7.053318023681641,-6.648698329925537,124.1302490234375,101.9744873046875,-117.889404296875
2.4812499,12.205639839172363,-7.220912456512451,-6.447585105895996,130.9814453125,102.935791015625,-113.58642578125
2.4837499,12.442666053771973,-7.371747016906738,-6.347028732299805,138.214111328125,104.1412353515625,-109.0240478515625
2.4862499,12.655750274658203,-7.493851184844971,-6.344634532928467,145.56884765625,105.04150390625,-104.522705078125
2.4887499,12.840104103088379,-7.589619159698486,-6.435614109039307,152.83203125,105.65185546875,-100.15869140625
2.4912499,12.99812126159668,-7.625532627105713,-6.607996463775635,159.637451171875,105.9722900390625,-95.8251953125
2.4937499,13.132196426391602,-7.601590633392334,-6.830657482147217,166.2750244140625,106.231689453125,-91.6595458984375
2.4962499,13.254301071166992,-7.522581577301025,-7.096413612365723,172.9736328125,106.4453125,-87.34130859375
2.4987499,13.342885971069336,-7.400477409362793,-7.3669586181640625,179.3975830078125,106.9488525390625,-83.3740234375
2.5012499,13.388376235961914,-7.237671852111816,-7.6351094245910645,185.60791015625,106.99462890625,-79.315185546875
2.5037499,13.35964584350586,-7.0317702293396,-7.869740962982178,191.0247802734375,107.269287109375,-75.3631591796875
2.5062499,13.273454666137695,-6.775590896606445,-8.087613105773926,195.86181640625,107.2845458984375,-71.6705322265625
2.5087498999999998,13.134590148925781,-6.478709697723389,-8.269572257995605,199.7833251953125,107.2845458984375,-68.54248046875
2.5112499,12.986149787902832,-6.169857978820801,-8.434772491455078,203.4912109375,107.1319580078125,-65.7501220703125
2.5137499,12.85207462310791,-5.868188381195068,-8.580819129943848,206.9854736328125,106.87255859375,-63.1103515625
2.5162499,12.751518249511719,-5.592854976654053,-8.710105895996094,209.7930908203125,106.9183349609375,-61.0198974609375
2.5187499,12.698845863342285,-5.339069843292236,-8.822632789611816,212.554931640625,106.7962646484375,-59.0972900390625
2.5212499,12.689269065856934,-5.106832027435303,-8.932766914367676,214.691162109375,106.9793701171875,-57.891845703125
2.5237499,12.715604782104492,-4.8937482833862305,-9.030928611755371,216.2933349609375,107.1014404296875,-57.12890625
2.5262499,12.75870132446289,-4.714183330535889,-9.114726066589355,217.7276611328125,107.269287109375,-56.5948486328125
2.5287498999999998,12.792220115661621,-4.570530891418457,-9.172186851501465,218.5516357421875,107.4676513671875,-56.488037109375
2.5312499,12.799402236938477,-4.455609321594238,-9.188945770263672,219.3450927734375,107.6812744140625,-56.6558837890625
2.5337499,12.768278121948242,-4.371812343597412,-9.157821655273438,219.78759765625,107.7880859375,-57.342529296875
2.5362499,12.69405746459961,-4.304774761199951,-9.083600997924805,220.062255859375,107.97119140625,-58.28857421875
2.5387499,12.593501091003418,-4.23773717880249,-8.983044624328613,220.2301025390625,108.2000732421875,-59.3414306640625
