# Time (seconds),Accel_X,Accel_Y,Accel_Z,Gyro_X,Gyro_Y,Gyro_Z
0.0012499,7.876554387943278,-5.151995650680708,0.7733644907933612,17.353145261504746,7.09529225737909,4.774591719616689
0.0112499,7.930709984747293,-4.977359681922015,0.7521146324158159,16.923875520716084,6.787565393283634,5.929598740384749
0.0212499,8.051469883783591,-4.92373254045044,0.843428732339045,16.11638994001472,6.570079268817546,6.890628889255633
0.0312498999999999,8.208209102919145,-4.917071708353657,0.9028122630540321,14.523389307551673,6.484605311721145,7.876813785863444
0.0412499,8.312018021811168,-4.906720240977763,0.8862050611425724,12.20106323173343,6.383890665087864,8.918675709964123
0.0512499,8.378641082460346,-4.971810722494236,0.8931360044917119,9.92585407426259,6.435805058011985,9.734964463496595
0.0612498999999999,8.399864935300466,-5.023867749733346,0.9156106638199082,7.920119877521511,6.041897352982071,10.34736317192502
0.0712499,8.453790926252516,-5.143127414467541,0.944392253133928,6.683073788340359,5.329358507363715,10.771707323763977
0.0812499,8.496009373361982,-5.303801448217082,0.997717136007236,6.112408388066713,4.647828051731534,11.042026919621543
0.0912499,8.485921723222768,-5.3819485323478204,1.032478909809475,5.78061366286667,3.5109084246027593,11.471684337007318
0.1012499,8.57000590465016,-5.458106267437939,1.0942749979906843,6.20398028541107,2.5656101776551936,11.962169633054032
0.1112499,8.696189076160838,-5.527856988356373,1.2233625319820294,6.758244423621137,2.0655407682664104,12.34723596789591
0.1212499,8.752811468893041,-5.566468611395347,1.3333855870692117,7.013980138526415,1.6466950099583235,12.599979605374845
0.1312499,8.750566089848924,-5.540072176552241,1.3599746493686717,6.398149114947553,1.1848172024522587,12.783299820461204
0.1412499,8.728482191654779,-5.567455441040882,1.3028687760773443,5.36982231664773,0.901027174768618,12.69213465958918
0.1512499,8.705898582892765,-5.574258338507442,1.2428858506697293,4.222518639167325,0.272436976837977,12.006220496043046
0.1612499,8.702441266368496,-5.5732097544250365,1.24991222163716,2.973242552235392,-0.508772247958545,10.867123453743632
0.1712499,8.796974880149378,-5.628859756347517,1.320094532777914,2.234054543023862,-0.9854275724898668,9.368302974604767
0.1812499,8.941500561203227,-5.67191158529724,1.465312289319264,2.5205498169595097,-1.2482737920827236,7.573618783761911
0.1912499,9.0019773846703,-5.708281654714012,1.6338876105891595,2.9612864839869566,-1.651376219306383,5.550677232736296
0.2012499,9.019609772528216,-5.84024303676637,1.7315267397081429,3.9989323601819633,-1.7332467164569862,3.8373764105441923
0.2112499,8.97274460610082,-5.905865048920004,1.7053084381522212,5.045111472669291,-1.7877629833380302,2.593904214545904
0.2212499,8.864244840959882,-5.7675131969858375,1.6143846492889697,5.257826876456673,-2.314024330933336,0.9949572404796155
0.2312499,8.825707364652436,-5.6752028691478165,1.5660133788687136,5.586715463348569,-2.701609307602789,-1.0668708870516617
0.2412499,8.755426004805825,-5.554445795942992,1.5176862689649664,5.247929800773527,-3.231347020627556,-3.4237873828404144
0.2512499,8.72091749553688,-5.399982576856804,1.4870107686129637,4.419526337023298,-3.7846187795141173,-6.050319670765952
0.2612499,8.786079565041941,-5.375014457114784,1.492095091277432,3.8069615085456983,-3.7043136687495193,-8.645367523859946
0.2712499,8.826016695738158,-5.420758283876836,1.504763824787148,3.1975962123914683,-3.4617474239300363,-10.784420245470338
0.2812499,8.85765130679486,-5.425389224095729,1.5263440543052258,2.7631978426373,-3.195565402978253,-12.586933201023925
0.2912499,8.989349111757091,-5.441516677820097,1.6166222211767018,3.0494478811840233,-2.653729742464539,-14.075528120902879
0.3012499,9.04674034196814,-5.48073431644946,1.7115567005784673,3.728399672346253,-2.140078644893548,-15.500564199346138
0.3112499,8.928960799102738,-5.513350436746893,1.7656744157640951,5.170042418289957,-1.6641480698467408,-17.071541243008777
0.3212499,8.719822713097475,-5.499004490374216,1.8299520750653455,7.0051648624474545,-1.7251045180113278,-18.845294154302493
0.3312499,8.582139774549287,-5.508165173944925,1.8751816368890448,8.984343997184313,-2.249309208819188,-20.478206048763333
0.3412499,8.53489130737981,-5.510781931904036,1.9033345125847656,10.785175131510746,-2.931713285315415,-21.835744908484987
0.3512499,8.523716421550365,-5.537602603340951,1.9701835611748155,11.978859072274247,-3.6197067244813725,-22.5042451002835
0.3612499,8.44620956944415,-5.504402847918152,2.0137486173211823,12.140276667267907,-4.006385379522867,-22.611270847826034
0.3712499,8.308765510689796,-5.331653606808351,1.9993898128599574,11.205639048982015,-4.5015700921219945,-22.572878717513575
0.3812499,8.282525299914216,-5.221537502696682,2.018600063716231,9.781694306412058,-5.237573240866189,-22.728687957547628
0.3912499,8.297535494933694,-5.2134730375680824,2.043104012660535,8.579851763772826,-6.061103628735894,-23.143826960904555
0.4012499,8.20506592399782,-5.201744983634578,1.9435117826238755,7.384290226937696,-7.32651765539409,-23.334081096769285
0.4112499,8.10542450717298,-5.1659639011605964,1.8088744791539815,6.117588548031653,-8.7159934133619,-23.11103254348786
0.4212499,8.111539173916766,-5.087727482129998,1.7608537031842173,4.537282658346214,-9.996278514428552,-22.5747092724281
0.4312499,8.261655000921978,-5.026999145199989,1.779502988291671,2.781439657334686,-11.014033677170344,-21.986820591504056
0.4412499,8.36571258282117,-5.040986025391158,1.7879127667643049,1.261520978618516,-11.82307786182132,-21.22979454808345
0.4512499,8.261479581765572,-5.0412801340997735,1.7265900967561238,0.0738850756159002,-12.569435382459549,-20.101640714796744
0.4612499,8.109082604353294,-4.946559844895265,1.5669377510746385,-0.49445200058554595,-13.475916863954977,-19.470876212568577
0.4712499,7.978143661046711,-4.826270157594133,1.313424905125073,0.11763641622888883,-15.06250142605268,-19.589884931428173
0.4812499,7.866882823842128,-4.73593940736997,1.0414826747563286,1.3970384650474292,-17.284288757072282,-19.872458101238095
0.4912499,7.872606669415281,-4.576695539274938,0.827988025132737,2.577234074668872,-19.31400840620554,-19.791447397686746
0.5012499,7.982915210298097,-4.360110422452464,0.6588383323359214,3.225388333054449,-20.93034941176246,-19.346805659258127
0.5112499,8.117372147850235,-4.16191322598667,0.4967132130089021,3.2014583052680017,-22.020190533957045,-18.56502535012366
0.5212499,8.228090896761623,-3.9730140993860408,0.38649373477636423,2.265144098418523,-22.31048189606384,-17.163276050089365
0.5312499,8.288003608707971,-3.8621118423575154,0.297477944681822,0.9920723351515163,-22.044330922203912,-15.182529724370143
0.5412499000000001,8.285624872936978,-3.8370718013680354,0.21532811040737543,0.27331297223612594,-21.481222781820392,-13.051965628321067
0.5512499000000001,8.250245764111273,-3.8237633444775785,0.14315231582411672,0.38764519247138224,-20.636583397421624,-10.933246618954412
0.5612499000000001,8.169120939091144,-3.8325350905893267,0.04105238693077936,1.15382808017861,-19.691792903222062,-8.73832373210357
0.5712499000000001,8.055937918970287,-3.8798493399105154,-0.0415050628226351,2.4543384937491557,-18.915035413776003,-6.287082604671808
0.5812499,7.982799256063544,-3.9154426257404604,-0.05240190296285262,3.9482827667187803,-17.790118443567266,-3.7959052803298143
0.5912499,7.961944056006671,-3.8789556248795747,-0.055791022043166785,5.254648294194672,-16.33347607122012,-1.2295788269227899
0.6012499,8.060122334744086,-3.827223556687317,-0.024073488550397492,6.298088754585725,-14.591400450526953,1.2814395740481415
0.6112499,8.200385539416514,-3.814247742630919,0.050443459518015134,7.000976717806,-12.369580166953657,3.6953946819595656
0.6212499,8.251206060428636,-3.8356800374562527,0.09516970119960333,7.260512299725067,-9.900956243445396,6.073755801820234
0.6312499,8.33428999161187,-3.8955945118935364,0.11825268327989094,7.178460968096753,-7.22617224954308,8.377718447021532
0.6412499,8.499782577712933,-4.000126997888883,0.16218817647457096,7.27750583157235,-4.652476740176106,10.829195832738353
0.6512499,8.554347212520671,-4.1396274752522,0.2479356671078743,8.103998818923701,-2.5832013044235485,13.080223071496913
0.6612499000000001,8.482304422471385,-4.279919491851248,0.32138652502534676,9.282033325423813,-0.9054808514802114,15.169822056304106
0.6712499000000001,8.430560941634,-4.434189051070773,0.3316398070431868,10.671778864410715,0.2999024079065441,17.197649182202266
0.6812499000000001,8.336171017543892,-4.618187462499118,0.31121449244744565,12.228625769808094,0.7976602726834887,19.02492624702102
0.6912499000000001,8.176696136368692,-4.762635018254602,0.27492779229451164,13.39382718776832,0.519310987116682,20.525592557549516
0.7012499000000001,8.06163238386781,-4.86833785065709,0.2426205164418417,13.624113804978467,-0.21922029223815956,21.615937339199068
0.7112499,8.000655332191368,-4.97238253345924,0.22924541839300372,12.615444830892901,-1.0464377258106068,22.218197106101062
0.7212499,7.965656258868847,-5.069610372299016,0.22065141755851625,10.590751775252615,-1.949030629146605,22.36949068518077
0.7312499,7.924772636308041,-5.209196019349134,0.22381290129413725,6.987638211993508,-2.745054479233832,22.13090171999611
0.7412499,7.855490112573099,-5.390721443923208,0.20056562114351573,2.505120875473587,-3.186975557605447,21.60646264096144
0.7512499,7.785824397730966,-5.54198239550131,0.114367018356166,-1.4105165895940657,-3.4681441493041323,21.06823042147101
0.7612499,7.708079492706493,-5.64258750346314,0.042592726175315086,-5.12192245586955,-3.623136816558779,20.49558807360334
0.7712499,7.622270474091724,-5.727132499175969,-0.02961048401925273,-8.239990372911388,-3.6131075329254463,20.06825395461247
0.7812499,7.5429937855077105,-5.768991790008989,-0.1775535718629658,-11.048466740002366,-3.3954531724361057,20.073096790701822
0.7912499000000001,7.443931833930431,-5.82056152274017,-0.3552996748937918,-13.493855508240637,-2.7400700083408633,20.34980550339289
0.8012499000000001,7.330922356888076,-5.922792833155073,-0.5087369335686386,-15.11595634026637,-1.8743021174770602,21.072257783921202
0.8112499000000001,7.245405048040296,-6.000100566236278,-0.6555557168020355,-16.133251652406354,-0.5520052804146789,22.194224783539454
0.8212499000000001,7.125853115757767,-6.031162926083416,-0.8406034274023224,-17.03236935497776,1.3285111081447702,23.803781445609236
0.8312499000000001,6.942258239018984,-6.036266826959573,-1.0677764527280975,-18.17263334281489,3.80300844970333,25.909186896266522
0.8412499,6.714691655820776,-5.978297696437207,-1.2892906140658704,-19.69709879750466,6.7696303258064745,28.41686424307235
0.8512499,6.374639250387418,-5.880399125102838,-1.5430275215690226,-22.215553016882122,9.975507246742774,31.43420525400615
0.8612499,5.906297151754734,-5.798857421618534,-1.8574520174487061,-26.00272889915625,13.412286463473858,35.1261964999148
0.8712499,5.385443137660933,-5.699099093796114,-2.0932324875965014,-30.676539510431148,17.027963806938995,39.60937024969038
0.8812499,4.719610256227286,-5.594851766734706,-2.293192337738702,-35.79169676688026,20.6346909215961,45.12659662146794
0.8912499,3.923673916396909,-5.527135351455191,-2.5647403083764604,-40.97086912169002,24.555903047397894,51.99358627323611
0.9012499,3.239163109503541,-5.361502239559657,-2.834439814592627,-46.771530179423465,28.655837483332743,60.28453616045513
0.9112499,2.591948183948908,-5.08141565296705,-3.0489542016827498,-53.158097003759835,32.879354485786145,69.6169568661809
0.9212499,1.93268015991841,-4.664513583176707,-3.2018452924520275,-60.687639656026384,37.501057065344206,79.52987832237338
0.9312499,1.36908378959231,-4.14872069005353,-3.334128534506187,-68.87394154297978,42.794877811702904,89.36142942418657
0.9412499,0.6409678138368693,-3.601196918387534,-3.3833149063960866,-76.36305280467415,49.555778345448985,100.89982165083906
0.9512499,-0.1776575111044154,-3.0279162221895577,-3.347942877589467,-82.66727654733023,57.312087806081045,114.44399297959
0.9612499,-0.957538337027725,-2.6665765581145915,-3.1911828732281817,-85.34369432689637,65.52792442652822,129.20175204762532
0.9712499,-1.7521159291786763,-2.494692462690552,-2.9312248471627145,-84.04474294506007,75.00108927285888,147.89503526430002
0.9812499,-2.2388063743096644,-2.194864529947767,-2.566043374378754,-79.89401493593964,85.76231045057247,170.52473694348407
0.9912499,-2.4596793812094546,-1.801921546725483,-2.02254495123557,-71.72697550947032,98.32835587148396,195.51441714211006
1.0012499,-2.8116391606631326,-1.3173752631407556,-1.4391745233631308,-62.05438719528881,111.99498289514189,222.11998548061587
1.0112499,-3.4219569518842072,-0.8950863250140795,-0.9015412323034924,-51.45864409515207,126.00554900073162,249.83767340559262
1.0212499,-3.908581949373671,-0.9208719223743435,-0.3711884870598823,-38.47469477943197,140.70215251683416,278.5371756819291
1.0312499,-4.111440733589936,-1.1499492564062406,0.13981425706659553,-26.13363772142527,155.22581859226298,308.21673849802437
1.0412499,-4.339006813273194,-1.3912406781928166,0.7145072632453217,-14.823127314732622,168.784224772265,338.2155746766566
1.0512499,-4.646217330628019,-1.8862318163950507,1.5094760391292292,-5.869894223114696,181.88530993385376,367.87962474300735
1.0612499,-4.920541946025044,-2.6192648149033797,2.349465697121122,-0.31759964675781815,193.9269233913409,396.02631549134236
1.0712499,-5.252450569114725,-3.2263626030000485,3.102870023201394,1.8361693930990999,203.83019441514207,420.5932366017991
1.0812499,-5.668229637913406,-3.8978278650983897,4.138131024731663,-0.03124452064352565,211.09547428392514,440.81467633175197
1.0912499,-6.1360813584799,-5.629755035623675,5.864825127814889,-3.4039046987141717,214.97182090868245,457.83755457926543
1.1012499,-6.577360160365392,-8.358123392361442,7.927997936993749,-6.522618854677773,215.36460498636933,471.91171863794034
1.1112499,-7.051388582507186,-11.33323238873703,9.648158703413412,-7.911061566601025,211.1029850747848,481.6389712887642
1.1212499,-7.733342707468108,-14.981710236744696,11.999730918252263,-5.904947375378786,199.23195660944174,485.4255191296902
1.1312499,-8.568321654376229,-19.478658648101195,15.351667967531023,-4.073816994990804,180.76572753696485,480.6676202624099
1.1412499,-9.208350064994201,-23.308104674565254,17.799280197777197,1.041546842532139,158.3200368902293,465.00649540667786
1.1512499,-8.016080658740957,-26.78483967955064,21.290327731409057,19.723074739885618,123.06390419660346,432.88605782425566
1.1612498999999998,-4.049228865009681,-31.397396191309145,26.656780316595484,56.765630813989844,76.38313003980736,389.50362359513286
1.1712498999999998,1.4058249111695722,-35.28984833010572,29.363124389930256,110.92776936968426,26.180229410776032,348.2031409522102
1.1812499,8.0174931340633,-38.30106931992047,29.982606614631656,170.57671483687045,-32.19961578517827,307.09933827082267
1.1912499,14.340062351290458,-40.35484672479245,29.93652888698464,220.38413395334675,-95.76615678089318,262.3181492305946
1.2012499,18.071719175258764,-37.24044985685097,28.246304433159537,239.68685041544165,-163.71719336246736,207.12588078673255
1.2112499,18.72701791790327,-31.20050465919702,27.856117153329837,207.08842606056677,-239.19535183320727,133.4734428797068
1.2212499,17.254618300103928,-28.36313111331834,29.675003203228446,134.11251208654332,-316.39013729855793,41.00351809654052
1.2312499,15.112787120301352,-30.089381565297217,31.913406072229865,49.296603771152384,-386.0015582755484,-60.703863054071554
1.2412499,12.476782593945488,-36.058284475097956,35.06733325125904,-16.706427725342,-445.69803453833407,-163.23573719654323
1.2512499,7.712779474041953,-45.45734524211064,38.693605244306056,-37.638756167846914,-490.13579331853515,-269.5941503190407
1.2612499,-0.3172102317632726,-54.652602908099034,41.3156741253713,-12.026380465338923,-501.7898675137603,-385.1172784887756
1.2712499,-9.524364351134924,-61.01234884837209,41.060906764634886,37.29741777646985,-499.49112448398284,-480.4889522097739
1.2812499,-17.672732333381383,-68.38794316286166,36.512703727298195,136.7632710556404,-499.9371017038648,-503.97789385504586
1.2912499,-27.49110196949481,-67.73098320495123,29.620182594581877,218.13545809485197,-500.17461962265213,-498.6596597029701
1.3012499,-37.178523167295594,-55.08077093587731,21.56510366689011,199.7709849784838,-500.1638614348492,-500.0619037399317
1.3112499,-43.92087454614594,-44.81066916743473,12.889849479664527,134.9703606278514,-498.75525337137884,-500.61042516165554
1.3212499,-47.17759385068051,-31.52427756529395,3.37278927276456,34.66110339670004,-503.2924279265668,-498.7155548273207
1.3312499,-47.846304814463174,-10.957718310108351,-1.0894468006979166,-109.41000149155752,-487.52190422382,-501.69781372195195
1.3412499,-54.404953970560136,-3.0017145118013913,0.2974309365445832,-180.4015498084526,-410.9987440093321,-494.669117315856
1.3512499,-57.53326938476623,-6.11340094207247,-6.257602164682695,-123.04640122541178,-329.25963030492954,-396.4954578148718
1.3612499,-47.36289755137394,1.2300504515221964,-16.12916769154352,-52.03142930976845,-283.4202008995753,-219.1889470421953
1.3712499,-35.36503807354869,14.161898769144482,-14.123741090740193,-31.285954467048633,-243.3788821668918,-96.52620317036701
1.3812499,-28.651574710723256,19.169363145737876,-6.3463393316596,-46.38068252330733,-188.40030023235187,-40.890844462776315
1.3912499,-24.8214258508146,14.919585709792964,-2.995639272268753,-72.34994040432115,-137.82838642329492,17.527558777715267
1.4012499,-21.480146324441655,9.13699364000172,-1.6834334059328553,-94.24323700669596,-101.03921167700952,69.388649394724
1.4112498999999998,-17.68080563672227,6.225799557234113,0.6244246197107542,-107.32194328400591,-79.26438669101995,87.14229829906571
1.4212498999999998,-12.2788444301989,2.9834805913283162,2.1234365167701066,-114.8905620339106,-64.3758705777217,82.48075270495642
1.4312499,-6.11385381549147,-1.0824099255582318,2.378671773975876,-119.58389097871508,-52.64983520960049,72.83714461121008
1.4412499,0.05071920960989311,-3.56520448216529,2.3455501583136806,-118.59213099743609,-43.405608889023995,59.975997899813436
1.4512499,5.584395824579258,-5.52287400197253,2.104150237323226,-106.30589363907212,-33.35132076182745,44.15165730381613
1.4612499,9.307294145248767,-8.46554229415636,1.9675770449834893,-80.41608642036822,-23.14067207904549,29.08444327920432
1.4712499,11.802446461989708,-10.864801428501973,2.087016611387307,-45.47338602255692,-11.248206195256348,16.98223150013941
1.4812499,13.265609380589806,-11.82107259342242,2.160758967178234,-9.261785827496565,3.6418262435091826,6.102824900683831
1.4912499,13.581091700992717,-11.643603889824126,2.500927358537749,20.864391942794832,18.939040807969263,-6.264503654458749
1.5012499,13.560194128779964,-11.061102858734376,3.027095470924121,45.47925556155265,33.564466437674,-21.10497437721938
1.5112499,13.471252958310862,-10.76022072918319,3.2380176624520525,66.39427739220642,46.046978558502474,-35.76112018935779
1.5212499,13.120025549368858,-10.039375029971513,3.2711004781277535,79.50687921738687,53.65857755167216,-48.212858094655196
1.5312499,12.558642725905248,-8.815343145881158,2.946819389549279,84.47913001187882,54.348931477018745,-58.35772493499638
1.5412499,12.26736715781618,-7.937366313987517,2.2436299024699067,84.89112658882668,48.74196095533597,-65.85491026630044
1.5512499,12.156979347871534,-7.153982581143224,1.7813797195443555,77.9588498927888,39.8075613957359,-70.82870535791889
1.5612499,11.770395323776752,-6.241829433768187,1.7599132564524504,62.32449786679947,30.12353197996552,-74.04862756932339
1.5712499,10.88076127214035,-5.559032048855086,2.105941710234255,37.68994629415755,20.478484436618288,-77.21385922325894
1.5812499,9.895587804801705,-5.207643719565155,2.3387988331868788,11.668222130421254,13.09034891780005,-79.96364993148259
1.5912499,9.351401179291635,-4.995069537746647,2.2839458571515854,-9.738432130963156,9.058670311745228,-81.72340710291898
1.6012499,9.029728221406028,-5.002307375365402,2.384466206873278,-26.53515886157849,6.449618347474356,-83.01368532267601
1.6112499,8.709629959057503,-5.187013673140131,2.4432881600092418,-36.27316413408854,4.069353626048735,-83.6963121085035
1.6212499,8.352574994008174,-5.494854214278246,2.366656765989635,-37.85023419091721,0.6256134872019521,-83.17242939168044
1.6312499,8.17440770567451,-5.644800545000887,2.1964878519816478,-32.24989643136246,-4.138525619699925,-80.57600910542531
1.6412499,8.23512184835512,-5.34382027697622,1.9173525147718666,-21.924160747904892,-10.132384986649894,-75.82358462657567
1.6512499,8.282578648250803,-4.816157357384001,1.6741972937619531,-10.263124502943617,-17.06779086264806,-69.38491968451157
1.6612499,8.183466174696616,-4.0428063034616235,1.3446384880948923,-1.0013484478462322,-23.387651065862254,-61.75282338100335
1.6712498999999998,8.059962761766482,-2.9637742963593285,0.9647533719875483,2.875792909761601,-27.782967759583187,-54.08004238763126
1.6812499,8.04768990362221,-1.8993842520064999,0.7636316794919698,0.6998768271819967,-29.650674363265942,-47.19764695033742
1.6912499,8.087880572359287,-1.0180195258853248,0.5681590370826192,-6.473885524911535,-28.93828643062207,-41.46545751590416
1.7012499,8.195830406202163,-0.461699266138985,0.47708294419154984,-17.578486699792478,-25.100346266056537,-37.244966886450015
1.7112499,8.251218373604408,-0.18160654181842786,0.6190101416905937,-29.502479719160632,-19.63219134263198,-33.711026902028735
1.7212499,8.44615874632171,-0.19469706780992688,0.7138036415420765,-38.97258930256732,-13.35641929385891,-30.556219284189567
1.7312499,8.436366037335132,-0.47373827002996954,0.6987395326258891,-44.98256369364864,-7.527998746018836,-27.24308038308332
1.7412499,7.980976859059451,-0.8726250883345547,0.6418664223661832,-47.668008911900344,-2.5769750990925404,-22.72713287848267
1.7512499,7.3897222064562795,-1.0473216459215913,0.48671572290293197,-49.26269530956747,1.8557681736348,-17.402699988114392
1.7612499,6.802404990858584,-0.9812012345654272,0.2199378347882593,-51.36974444972288,5.399890560352698,-12.490501461037324
1.7712499,6.335171218171143,-1.134350276655503,0.07005672841396683,-53.791863240282765,7.8674582280408805,-7.937747651683855
1.7812499,6.017885271724319,-1.7675515946150435,0.048672088731959745,-54.62797017470414,9.998851370531481,-2.363752566781647
1.7912499,5.915927688182238,-2.4974252326307584,0.16742505945848704,-52.72851449418636,11.332029044128515,3.3686763976928784
1.8012499,6.085305138516442,-3.1239978170284095,0.6098311258216776,-48.75549864024942,12.092348728176454,8.048536126830315
1.8112499,6.333637972302432,-3.705597147988585,0.9935559076378836,-42.563073197154395,13.058967863106794,11.693617177311022
1.8212499,6.498963086704849,-4.087726040928779,1.012123586712236,-34.380241023007805,13.664610734656529,14.148899563776073
1.8312499,6.727625678203717,-4.257037385750439,0.8821787577191139,-25.641482674031785,13.474880448700686,15.63676554634711
1.8412499,7.074109646764849,-4.328157653882075,0.7842003288325338,-17.839717298889152,12.77559186437081,16.39590758605756
1.8512499,7.394833661480976,-4.35052897464972,0.7007669236373283,-11.963746241936072,11.841755902656795,16.685474471292988
1.8612499,7.687396930208234,-4.373901896608047,0.6419691705609923,-7.989396096997604,10.18228093405739,16.634995015295228
1.8712499,8.100060906688373,-4.358630299247834,0.6460912654365759,-6.398348925541063,8.22443158822552,16.574662024778707
1.8812499,8.589396306861003,-4.2005508007325885,0.6421270167785612,-8.021173926062424,6.8638966320650665,16.607135846820704
1.8912499,9.038231941329167,-3.9268375632998307,0.6311203263127457,-12.655336176359965,5.932453784923494,16.135345417689443
1.9012499,9.483681262375733,-3.7513382566749507,0.6460458377621492,-18.925258612098965,5.222383699225761,14.532906734920193
1.9112499,9.849733167008017,-3.729268655531436,0.6960696009703344,-25.698130529736893,5.231037255812378,11.854916395392715
1.9212499,9.986004482313255,-3.8198328677173587,0.7144235412745793,-31.92410852639256,5.756458626358344,8.698454833663202
1.9312499,9.982208808867737,-4.063429151433316,0.7466515889764077,-36.68486857646466,6.010586318565534,5.47069250243424
1.9412499,10.015957524648627,-4.411926481555539,0.826713842576227,-39.22270062395293,6.387959917689544,2.525472311286162
1.9512499,9.992649564866532,-4.700988200299599,0.8445961639718945,-38.97319144326805,6.876673619102246,-0.2110459691146249
1.9612499,9.89648210652656,-4.962133661995372,0.9761310929120246,-35.92027995837287,6.698922632832229,-2.428035907619125
1.9712499,9.89023722386041,-5.2005680931750025,1.2931108723310858,-31.095050917425592,6.377373836975331,-4.053380395595015
1.9812499,9.876021552808105,-5.270845398270877,1.5143058772645555,-25.773527120575405,6.4795334040114865,-5.498687011252832
1.9912499,9.74875351465774,-5.1626760140145205,1.580146603157383,-19.633733531076132,6.488177471637454,-7.064910530662097
2.0012499,9.608309668996013,-4.9365309794862196,1.5800712369547685,-14.416256826802831,6.093897694400937,-8.288641265987852
2.0112499,9.47058896836305,-4.675599977398844,1.5445349010404446,-11.425966116425457,5.360321227570709,-9.039658048156443
2.0212499,9.257234237919691,-4.403522400731166,1.4518523169520552,-9.61056486339396,4.288262333743813,-9.690614568354597
2.0312499,9.026585194531789,-4.125080657091858,1.313364049690305,-8.844238692931276,2.875682287832082,-10.555292477013055
2.0412499,8.867323797876665,-3.9198758862976923,1.2662726317457507,-9.289193671527006,1.7109343356030107,-11.477215943008698
2.0512499,8.752686820313464,-3.7065572579345645,1.2273051093754292,-10.891511699552485,1.0514718795316507,-12.24302243656186
2.0612499,8.646271382623247,-3.4988020139123734,1.1624071898912327,-13.508560859144794,0.29851562210765625,-12.885094774904621
2.0712499,8.55117746727202,-3.479792976904181,1.139498830885016,-16.639531730531747,-0.6833564147476283,-12.754596227091097
2.0812499,8.461287981380645,-3.525268496849846,1.161271584714568,-19.749054180023442,-1.2128947670807024,-11.363976746227111
2.0912499,8.38239006305454,-3.6395076072023524,1.2597874817506451,-21.923346719484876,-1.4785024932451276,-8.649438349177457
2.1012499,8.419838942089603,-3.8975441026407016,1.3702400026967518,-22.428481536435314,-1.0981570835090062,-4.445161526891722
2.1112499,8.455148220456465,-3.916595025022001,1.298101522145919,-22.941957632927114,0.20211198887478846,1.2945542955346439
2.1212499,8.269282997274683,-3.7446252706937284,1.1080216472357494,-23.049704464291146,0.7953603549311983,6.322399968391794
2.1312499,8.143962875251935,-3.757936655368346,1.0438892681520875,-21.304135499289277,0.42836905415222654,9.856296475666388
2.1412499,8.277336878959021,-3.9602688009969453,0.9960682796152549,-19.104746853564155,0.5188384757485953,13.528398248712492
2.1512499,8.329901409272457,-4.325861341510502,0.9744145856684298,-15.608372470745282,1.4579407369201076,16.654308877538973
2.1612499,8.279712005188284,-4.6334487926468695,1.0839018920435552,-9.70911444275618,2.0575836538774084,17.958433088914987
2.1712499,8.516146463393287,-4.668666958315301,1.3190250254305038,-3.2565228403634214,2.3897924628073515,17.508886174042015
2.1812499,8.864859142447761,-4.744583796652022,1.5222948904976945,3.157701708520743,2.631917094334267,16.025129972271394
2.1912499,9.022657447547202,-4.860326685467528,1.4305584205284854,8.796364828917715,3.3070499274709184,13.914053818020905
2.2012499,8.950036780737065,-4.743346253017918,1.1494298964372593,12.45367621597945,3.503961762610945,11.384686169361377
2.2112499,8.793888088279317,-4.449905488872464,0.8921971183573159,11.936212125498145,2.530383626599427,8.894616950204217
2.2212499,8.985666729661206,-4.121670482949348,0.7620317121580373,7.8467112712207925,2.6219305674444886,6.130048271636757
2.2312499,9.190469648064406,-3.8335381815731595,0.7508208974791452,0.9245131417367153,3.174513313841444,2.5826175999819965
2.2412499,9.263033804730057,-3.7450759015283968,0.774199915172079,-7.344756054560043,4.136903697277058,-0.966421831032775
2.2512499,9.278086578543025,-3.840181369098395,0.7820827636898972,-15.159414992138144,5.386874903826204,-3.685483314710876
2.2612499,9.239284884743517,-3.975042317237442,0.7491739612250932,-21.700035683280937,6.50963674148387,-5.2560196666054075
2.2712499,9.126103337244677,-4.083487526117296,0.6990404108349693,-25.77267246339751,7.355054108058091,-5.904000380942747
2.2812499,9.02448206906411,-4.276176266254939,0.7036326403233106,-26.978454679742978,7.806926591999751,-5.9800107376642915
2.2912499,8.992203303222901,-4.521472494419823,0.8140332169826572,-25.436208220344184,7.967060042724174,-5.381028452011424
2.3012499,8.983945403707798,-4.642278660924699,0.9452868091235338,-21.901042773370836,8.102988193878513,-4.161388277988912
2.3112499,8.998444614212172,-4.671932967005753,1.0444892191216062,-17.46928212429905,8.037573722683135,-2.6502906539499747
2.3212499,9.039141251240533,-4.719705827130049,1.2274743900890162,-12.451218517845922,7.954259190298652,-0.9119544355319001
2.3312499,8.87427038053278,-4.709525455764867,1.3396164087284537,-8.185094301471295,7.3270811462281955,0.8297160775222278
2.3412499,8.700805175864971,-4.672226698345936,1.3265537396660687,-4.648605550203414,6.948753809856803,2.518743746038374
2.3512499,8.673930161459438,-4.612046002147243,1.3514213996473525,-2.0574320618682918,6.961604046679318,3.7428344706966787
2.3612499,8.45006189352073,-4.41150843602195,1.2996022514678247,-2.168803494943928,5.541386992621627,4.273634262825679
2.3712499,8.408415469632722,-4.335885364131537,1.2630084201325822,-2.7573512857886064,4.906305180951481,4.530831654916196
2.3812499,8.41934818958018,-4.300458153734816,1.3658709344101125,-4.26041726568358,3.7278494470932073,4.721143298981452
2.3912499,8.380800211827346,-4.3200514460444674,1.437709362804816,-6.635442203033722,1.9325994346262672,4.885913169500839
2.4012499,8.435659594703955,-4.401434037981955,1.4247460813836863,-8.950392116168642,1.0350457716546595,4.949701677245431
2.4112499,8.437242438633444,-4.498580476219813,1.4234646565177629,-11.412723541296385,-0.030006861156104826,4.632566014139124
2.4212499,8.438034049039578,-4.626450836977755,1.4064985451005987,-12.811421268370607,-1.0557401542986729,4.062040488328608
2.4312499,8.462051097501305,-4.665959888822968,1.3122714247491243,-13.104003818689486,-1.8426363857780064,3.699321055380479
2.4412499,8.504959418649944,-4.676845266173823,1.2144715519496374,-12.975536588853911,-2.3612752267329884,3.3990397158395425
2.4512499,8.487179309645184,-4.63438536687378,1.1498594357775351,-12.947514001013152,-2.5860147643254807,3.334998072402693
2.4612499,8.380344872646662,-4.554847570573846,1.046674352987096,-13.007757086480263,-2.713397372494044,3.5829351388609116
2.4712499,8.345357168106684,-4.581535112510284,0.8621573617558741,-13.107757384852436,-2.5216069522746767,4.4164932255059846
2.4812499,8.398684852556428,-4.69056023034399,0.6987816800433962,-12.942358490266038,-2.323811725429359,6.146561226844091
2.4912499,8.359744841449878,-4.764038934506217,0.5916164519019669,-12.471081970337602,-2.2574628956652996,8.196103329255806
2.5012499,8.220597135163095,-4.801439348526832,0.4765694209563716,-12.142869825812419,-2.2475413537071343,10.11696734215108
2.5112499,8.12013849087332,-4.856372552410833,0.31121227322678563,-11.893323639801094,-2.0391005518341148,11.934401263189358
2.5212499,8.020517092525408,-4.885449810965578,0.12127721827525352,-11.786271639859898,-1.3891914263138851,13.737808634510195
2.5312499,7.860147870848928,-4.870501286285637,-0.0014909763364043197,-12.54256988751933,-0.39399653642835397,15.61032575290316
2.5412499,7.689247831715753,-4.87155040584732,-0.09110301804336024,-14.384500106398034,1.2287208417289235,17.60736160963806
2.5512499,7.4761105907589736,-4.916000441597784,-0.21583049574752192,-17.08159656696046,3.4797750592586345,19.87035037419448
2.5612499,7.18275713914036,-4.945711429995906,-0.3414833809753382,-20.601526498433117,6.172302251722865,22.317493753939377
2.5712499,6.808479321026813,-4.98254147526479,-0.42885663320521056,-24.471160962445158,9.319179734149557,24.57910756991999
2.5812499,6.3872277796123065,-5.032375953313492,-0.4751502053400425,-28.420569232070402,12.717921540007126,27.24026223685525
2.5912499,6.023056051718283,-5.1070814371608675,-0.5151211326702083,-31.82816866263823,16.633804725740067,30.683741206459054
2.6012499,5.6717561541000325,-5.179531396484165,-0.623970363397637,-34.128484364152676,20.69986706641424,34.88897403917218
2.6112499,5.261250495512435,-5.181125273222314,-0.7731519190138102,-36.58669130584288,24.82656823080157,40.27817087404958
2.6212499,4.8510023468260846,-5.130164876085189,-0.8531155646702586,-39.98544437754061,31.155555679790915,47.26672210016012
2.6312499,4.406063489086156,-4.905778473671826,-0.9558458936707677,-44.367334881550214,37.430154661598266,54.25560140771869
2.6412499,3.9917953171719995,-4.768330170993449,-0.9345119592023036,-48.79718988710704,42.961956719741224,60.865000536725695
2.6512499,3.573492963522063,-4.777742331629688,-0.8057747019757577,-52.28393551037332,49.228763079748056,68.34950411080551
2.6612499,3.031075053168003,-4.707425734136851,-0.825276605535505,-54.100438432194814,55.22480441708645,76.51374452674328
2.6712499,2.526271608647837,-4.531562603517188,-0.9237744465331851,-54.42023933900535,60.77274668519007,84.96715094739068
2.6812499,2.1434961280054,-4.262429405481742,-1.0661683307837744,-54.10399550395777,66.64688564173974,94.17626678165044
2.6912499,1.6630588463610083,-3.895712088327103,-1.2287913091885323,-54.08232059002837,73.19743718860481,104.47209748902058
2.7012499,1.1210283921528243,-3.52778970031262,-1.297575082716297,-54.89759521947785,80.36482454743722,116.18293402850024
2.7112499,0.7542012964770675,-3.216175032426624,-1.2436746162243197,-56.157825730080916,88.29501225301094,129.32858439029894
2.7212499,0.5053952404243381,-2.880645096457165,-1.1660275727223297,-57.40584135475936,97.38473934132755,143.70812010577805
2.7312499,0.26198508349953503,-2.629833279197235,-1.0254365900509563,-58.27628792427469,107.5048663181934,159.17085024227768
2.7412499,-0.07461412872922835,-2.60707474192422,-0.7126037426637797,-57.80205454443583,117.78278666560516,175.53101695356276
2.7512499,-0.5368237154993227,-2.6816197033367426,-0.3943127860476406,-55.504043221983345,127.95162595460694,192.71272166950072
2.7612499,-1.0062436773926886,-2.743192536219923,-0.22629979843129772,-50.89151697702068,138.2238436514003,210.62947481626384
2.7712499,-1.3548088640392764,-2.8517348825938007,0.06469154412636464,-44.32357122997982,148.49274476199327,228.89298506636476
2.7812499,-1.484814887052337,-3.1798256576468606,0.6784505855889015,-36.26288270771872,159.0503352703418,247.75467697609372
2.7912499,-1.408678170904329,-3.5619321298286777,1.336308787420988,-27.619740661042187,169.92459327339373,266.7221126900522
2.8012499,-1.258350835477563,-3.852862096820103,2.090875235505743,-19.393255702876107,181.2983552279646,285.54837719807915
2.8112499,-1.236982161106538,-4.434619057191796,3.041232316498905,-11.580362339850451,193.03671528687653,304.07922979259524
2.8212499,-1.4056381801704867,-5.075012668617221,3.729353694191639,-4.143686893263813,204.71695950209278,321.84791409063877
2.8312499,-1.7583603346685255,-5.5903496509990225,4.168938980655303,3.014902775335817,215.79474951015675,339.70985684938154
2.8412499,-2.215486510426631,-6.2910101728077406,4.643810456862734,8.683376885919358,223.5095381421336,354.260523133862
2.8512499,-2.6791753659264614,-6.9029216721215025,5.250106094741872,11.377244087099784,227.7630404444064,364.6618600427155
2.8612499,-3.1613360127976025,-7.869191630621779,6.562575310968058,11.856748321072907,229.5362815350832,373.08765866347653
2.8712499,-3.575025598250826,-9.294040670114926,8.026098551665411,11.85291307706587,229.37275380652972,379.5726416660028
2.8812499,-3.9478001640258054,-10.766319842324288,9.158255681836035,13.574301721508647,226.493031492668,384.07125373343393
2.8912499,-4.2031210713413225,-13.072550245758759,11.31088766802724,19.21069802332265,219.86494892529038,386.3904348825492
2.9012499,-4.238847381666527,-16.623914818344833,14.424303976406934,34.276767886984565,209.14634796107833,385.29922216548016
2.9112499,-3.7060786197841122,-20.21334897867245,17.33908360735,64.6343842850015,194.31121326187684,378.5607464698204
2.9212499,-2.0387148720759893,-22.95668560694524,20.078160187026114,111.44924460834135,174.85953885219604,363.9248861470196
2.9312499,0.2618276670709065,-26.049720887331294,23.098573082791045,172.6928778092961,147.70025812027964,343.17141069301766
2.9412499,2.9431680253280486,-29.155127216122303,25.666145441288414,240.1287800551003,113.2813544602228,318.7512812156156
2.9512499,5.355649501524295,-29.25300759039907,27.08904255707507,293.31269935015354,70.75919835875311,290.1905235913782
2.9612499,6.958826982724705,-26.52192085866044,28.14151574586855,314.6140937207867,15.148187049380278,255.66354237050018
2.9712499,8.853936354602082,-23.502539344067223,29.537589845153708,302.02959216254044,-53.08809150969724,212.551788914138
2.9812499,11.317918245917754,-20.441310312744633,31.89455179244141,262.1491231778664,-132.94729961608837,160.1812170534694
2.9912499,13.638245510878145,-18.794646738667254,35.65267931777594,198.83991670757226,-222.82685664457455,101.37335825967061
3.0012499,13.18868557047827,-19.66968799345972,40.25032936554883,121.55958431328722,-310.8741520096784,37.6723985035907
3.0112499,9.197133937627619,-21.122017077709607,44.73239310940268,46.615794894252765,-396.0144588159615,-36.69647444765028
3.0212499,4.461978156253919,-22.50521787706726,47.946179291235175,-14.853553598702685,-473.1681695994786,-123.16755163031051
3.0312499,-1.3245800677282764,-24.92847584342959,48.902706108388216,-62.39113449860216,-502.6864230950986,-217.13029882045063
3.0412499,-9.400044857587444,-31.44058237762206,48.05729371166831,-83.59491913576133,-499.53287690056493,-319.31717542361463
3.0512499,-17.718873668852805,-40.49820995861982,45.8971748118618,-57.36808867394754,-499.7882044505737,-397.1506099008658
3.0612499,-26.47012779059911,-45.71209849182792,40.77779539015473,-11.40413160069603,-500.21051767725714,-437.0223695654121
3.0712499,-34.377505879142966,-45.65723055039511,31.867473425843656,22.217242221132544,-499.8097804385871,-457.7836060476416
3.0812499,-39.563530566539335,-41.4660223643205,22.022619827087972,32.83773922560254,-500.4822305789411,-465.1441365018543
3.0912499,-43.2071727676862,-32.915881876570005,11.325789869690958,13.770320394877471,-499.00483443870087,-462.13584629507716
3.1012499,-42.92056846545815,-19.478319370209974,1.887277987911422,-44.511444063454356,-500.8689563941315,-458.2445125819813
3.1112499,-42.897573788356866,-6.012423345530971,-1.7980642105325706,-126.16856190615557,-500.56210481396874,-450.2804262978059
3.1212499,-46.35653170889831,-1.3021878564051885,-6.680814566299887,-157.9951809706931,-435.6474547375539,-403.47678550995823
3.1312499,-42.73937529197184,-0.7916596681270766,-14.667247197902036,-133.69953590515684,-331.0019755942268,-302.06018477248574
3.1412499,-32.3212255758581,3.248551921625114,-17.592228616184027,-90.39261415659387,-254.18576688678962,-185.61453435384593
3.1512499,-24.747173476215014,11.14280855307129,-16.07980845548604,-64.18172640457435,-178.67654064301678,-100.97473034888678
3.1612499,-22.058977013826496,15.176231392457447,-13.329417735348313,-61.811608964439145,-106.84679851017785,-50.17777128378171
3.1712499,-20.161764682847572,11.109088762130161,-10.543493554413935,-74.93127698317934,-59.70169015250221,-0.33326103245347505
3.1812499,-16.828052420968298,5.86013171968626,-7.989390729542542,-103.52538066179574,-25.701896922878593,48.37521343263699
3.1912499,-13.240129913275249,2.887599387425821,-4.624801463155884,-128.79149574395046,-3.1047581735087832,71.4142855069098
3.2012499,-8.731849285548416,-0.962639496126459,-1.4183542376118867,-138.35070389285147,6.007776496940141,72.58962086956124
3.2112499,-2.7712808953255594,-4.744498475453653,1.2088082647384244,-138.06549037184914,9.601346521761045,65.2713750822513
3.2212499,2.623310426880429,-7.037162673967147,3.185270336685293,-127.86316573229338,12.498607172954017,54.16475655671324
3.2312499,6.726757606946659,-8.761433330110615,3.977174740589388,-111.28564464107475,14.502336859319291,43.475345743785354
3.2412499,10.060180987112291,-9.9356069678571,4.064431016424676,-90.44990396797473,17.11684391410379,32.69697323212274
3.2512499,12.28045951396599,-10.163596259709276,4.222106596858883,-61.5413619142142,20.724897648632467,16.294287993683923
3.2612499,13.098251721763038,-10.185893064410584,4.4195250379715,-32.72511802980118,22.32834516111584,-1.6688899111261328
3.2712499,13.339323290519026,-10.042038635863468,4.216496700217682,-12.664620715800849,21.535033857948438,-16.56046224442726
3.2812499,13.157706172099225,-9.1123629237897,3.8257699010551653,0.12149598439202283,17.59517923976285,-30.21881880099955
3.2912499,12.372313583636368,-7.911357562778533,3.773029860754364,6.049662230069893,10.905279757187873,-42.381029358203314
3.3012499,11.443732670340005,-7.051700066489192,3.817335422870987,5.608059134283109,3.04391554557865,-51.950094538048035
3.3112499,10.932862955530736,-6.3231111312766926,3.7152906970475392,-0.012360750313187566,-5.153546406524748,-58.191791469837135
3.3212499,10.84534688392553,-5.4774999573506875,3.6517001524859682,-8.824008729506344,-12.285014678975646,-61.76668907796064
3.3312499,10.677210836014284,-4.678987537833042,3.705403613315956,-19.472144519813618,-18.182111591069813,-63.73336241321048
3.3412499,10.367830160438448,-4.299205892395227,3.4525646436279067,-29.55582319136884,-23.098395164363833,-64.20133477797762
3.3512499,10.136393067301318,-4.127157639856036,2.9325488323216398,-36.98765179457253,-26.654271261270665,-62.649386578218675
3.3612499,10.008202013632449,-3.9349384968671703,2.6689121761869674,-41.08527113557523,-28.987415751646026,-59.45970065319866
3.3712499,9.884098519242222,-3.992553378127377,2.3341054246074378,-40.86743093417698,-30.049421628721564,-55.490096230136636
3.3812499,9.67244338709398,-4.1715471650776434,1.642963925445137,-36.61993774831173,-30.247161661342194,-50.98589767710979
3.3912499,9.3834130524009,-4.102208824136968,1.162610206517735,-30.782978901013436,-29.56344458348763,-46.33858021264709
3.4012499,9.003264033968248,-3.7994558315448996,1.0513444956508282,-26.24938836246053,-27.379403962816475,-42.364318794549305
3.4112499,8.566117710802002,-3.445301772950068,0.9730464109597522,-23.94875540559523,-23.81879032181861,-39.362705215945915
3.4212499,8.117177740068527,-3.25311209510355,0.9646511393629332,-23.54815743636601,-19.51562547989698,-37.41659670931708
3.4312499,7.652236909721426,-3.1553658569814984,0.8140125848914663,-24.87027415350388,-14.920540904824078,-36.008168774044464
3.4412499,7.304198722075297,-3.034804226267989,0.45315527833296193,-27.481265889503057,-11.064084509510806,-34.535888308026536
3.4512499,7.211123987424719,-2.9628274946400266,0.24173206299905792,-30.60733373240308,-8.071360654483046,-32.968091337070035
3.4612499,7.239360279609905,-2.8802590708590534,0.10093282474814701,-33.39299240678058,-5.5076313487033,-31.144171887393533
3.4712499,7.21515160665207,-2.6396896573060187,-0.0590256448772951,-35.594441208214455,-3.7028950043458213,-29.336818730452958
3.4812499,7.157801685125845,-2.3585651362344704,-0.11017777650273909,-37.317791238849146,-2.1924041934484353,-27.654899909899008
3.4912499,7.148004504874395,-2.2473506558374874,-0.11361357255449002,-38.251473420495564,-0.811578815016748,-25.31331614462492
3.5012499,7.240803338819275,-2.2572495873914424,-0.03362937973122692,-37.51077046267139,0.2845704423682441,-21.854946160768645
3.5112499,7.38375474485733,-2.222146768917397,0.07245266987540484,-34.90251895572896,1.4558976613510513,-17.620177561810962
3.5212499,7.520688125550129,-2.282230228218542,0.2065652346433529,-31.0959217372158,2.4800598243467733,-12.711816728920041
3.5312499,7.7391436932950155,-2.495505024857507,0.4550460844179857,-26.506751953699514,3.480622832942843,-7.271307181742908
3.5412499,7.956958481951793,-2.5956623359707374,0.6254444622339534,-21.39602787686696,4.611909746491028,-2.18098837097558
3.5512499,8.058722608851728,-2.5701280972633107,0.6117016579348701,-16.425188911282465,5.255548162279112,1.9067090277943834
3.5612499,8.046952690382033,-2.5805127698217896,0.5426110306257932,-12.752718725367677,4.884494429620487,5.196234983772421
3.5712499,7.981174579747884,-2.657682813835737,0.5512550513708246,-11.243912485975358,3.910941561143652,7.9077385927825325
3.5812499,8.056582294561558,-2.709759896643682,0.5471763731505559,-12.34387825561128,2.6840919317689496,9.98511044807527
3.5912499,8.21362792942192,-2.7691156773343746,0.40722617558609364,-15.38826948150571,0.7965908379012443,11.308718529873154
3.6012499,8.312385640957562,-2.934894903867614,0.2490411249948235,-19.75158678502225,-1.8707603616675508,12.36261033558117
3.6112499,8.49932514909611,-3.128197992718969,0.16435352677894488,-24.675089905068884,-4.4293744205083945,13.117327048560066
3.6212499,8.7454755035955,-3.312649306168703,0.13731804710790738,-28.763509253956755,-6.4872064153908875,13.494133411203658
3.6312499,8.966567165195663,-3.5450026018601917,0.2266152053238496,-31.664361193674207,-8.500743717833803,13.525207327057442
3.6412499,9.30377310019745,-3.7014553113312987,0.3184649454507507,-34.426281392555474,-9.595440092596602,13.069627989783292
3.6512499,9.736237138659497,-3.625753253333269,0.3059565687740894,-37.47154547722471,-9.439694410559419,11.835901989284917
3.6612499,10.122573949677589,-3.510586944886632,0.35870722731400273,-41.033924976910434,-8.829744518737524,9.552395408211595
3.6712499,10.39638634831554,-3.563585066320025,0.46585216405466384,-45.035580120905976,-7.030548553944879,5.788928020934084
3.6812499,10.444781597583898,-3.747173748695317,0.4575109193163231,-46.94464376498118,-4.857253099046319,1.6997420991867958
3.6912499,10.264150006732585,-4.1318675014208255,0.46623089901211656,-45.12590993314553,-3.423424480025062,-1.4913953931559236
3.7012499,9.922586547519533,-4.621457613317139,0.5331067520440586,-39.54487603437706,-2.6938607905413408,-3.9089415213263696
3.7112499,9.580787052471237,-4.976984833302068,0.5054179665555223,-31.187823927560952,-2.5525824974188214,-5.349504861722501
3.7212499,9.382822154897804,-5.162201400368982,0.5038607123453968,-21.131648161839237,-3.007278968914062,-5.897147071990124
3.7312499,9.278377693909714,-5.074906951036082,0.5976744546613999,-11.540092692542334,-3.418742510805814,-6.113805283937864
3.7412499,9.22441165092018,-4.724238634359961,0.6425373018589484,-4.6092023287186885,-3.4673005083435178,-6.711238191800327
3.7512499,9.246006918878427,-4.354594297248936,0.7176161610536449,-0.7362287723111958,-3.0207320980615506,-7.907330879396543
3.7612499,9.269487991541409,-4.076508443476698,0.8081200043120933,0.44386841837336033,-1.7601437307198458,-9.057834774737506
3.7712499,9.160672452093216,-3.9082526269501234,0.778544543442604,-0.350027829891555,-0.5211888034066792,-9.74076019115565
3.7812499,8.915347998689167,-3.856774117463351,0.6965273706776446,-1.9251787797177018,0.24533574017484042,-9.787576616800909
3.7912499,8.618652335384166,-3.890307727039711,0.6422415177914046,-3.8946687825207262,0.45133559255974415,-9.209391057256987
3.8012499,8.389061902964594,-3.994668621899439,0.5805778191123737,-5.632725521603795,0.44244878077510874,-8.482958660436633
3.8112499,8.29747228746203,-4.102509978258024,0.516494392204062,-6.5637207337159165,0.4350384339947898,-7.550192602027681
3.8212499,8.30523912821325,-4.179599124978356,0.5097946827222256,-6.797170191069352,0.08560225089519011,-6.415602879839816
3.8312499,8.358348612672142,-4.3080002135453235,0.5765119264136882,-6.131994159059342,-0.4583503397558043,-5.383597680421155
3.8412499,8.509060985422323,-4.466263691501789,0.627926060431773,-4.518734017764176,-0.5978995459171494,-4.233782126260862
3.8512499,8.624529569995513,-4.54984182409438,0.6247723229315498,-2.270946347964108,-0.7963501670546429,-2.9866216942850303
3.8612499,8.709054955184225,-4.544634223726301,0.5605919826873967,-0.20534222615607636,-0.7434135597064937,-2.2199176388951565
3.8712499,8.84807995319223,-4.473897644616406,0.47072185174905795,1.7622982687031419,-0.14649580207657473,-1.6049818614087457
3.8812499,8.74280468469297,-4.344089631755115,0.32023915800572833,1.8308288016034042,-0.4019440213723096,-0.8865800499851765
3.8912499,8.771008494295,-4.233757787877021,0.16981950985138927,0.39555604968154146,0.0012330581354087495,-0.5225742179716573
3.9012499,8.917741085184408,-4.1501726390060645,0.19020283537192592,-1.3731288528263368,0.8362599665344542,-1.0009063280394384
3.9112499,8.949286736978912,-4.164219057997012,0.28706147908336066,-3.516049792269481,1.6149147534005737,-1.9923874254526357
3.9212499,8.992028235082898,-4.296805775916581,0.36426517882147064,-4.874470656692152,2.46496195660386,-2.9092310415827836
3.9312499,9.070986384231137,-4.414233501607662,0.4293989435800656,-5.303750817742792,3.045516793753632,-3.4774263031118164
3.9412499,9.11979222212624,-4.54824964721446,0.4311569234602293,-4.767490713294103,3.6311399658100747,-3.771708937441926
3.9512499,9.056366509009642,-4.601036060283615,0.4253759888896302,-3.9184980734959955,3.752348667675446,-4.058648712851238
3.9612499,8.99032610816376,-4.54778362831577,0.43213297014452456,-3.3968293899893336,3.9268458851145867,-4.539923652935132
3.9712499,8.93149982716355,-4.478916299473442,0.40997875495578845,-3.2669454990909554,3.6755281228207197,-5.358586049455216
3.9812499,8.79989488122401,-4.363979771662255,0.41867072171512976,-4.044755960638199,2.4868551453967376,-6.080060276775656
3.9912499,8.815547647402365,-4.368405738248644,0.47623525506062836,-4.625786679435088,2.5165636387229333,-6.560723613277071
4.0012499,8.79769635300478,-4.388151935315376,0.5154855112852207,-5.050278868253083,2.4223447861497593,-6.9175587204005575
4.0112499,8.693404033224489,-4.335882317015505,0.47558260200447994,-5.430669786023475,1.5220424107440909,-6.916883206038432
4.021249900000001,8.712674174308903,-4.3585932171484085,0.4718568042036731,-5.139726491814739,0.9513362553076634,-6.652760524186756
4.031249900000001,8.703487499464265,-4.311748409825039,0.5234661953734593,-5.20713963825685,0.4856492598737677,-6.114110597429284
4.0412499,8.653450652658885,-4.209085389564373,0.5390598023607845,-5.68736555476962,0.1337472494854741,-5.372553348542616
4.0512499,8.741402749626737,-4.139932719203662,0.5943399892387297,-6.095238968241416,0.43331090776738307,-4.750089506626662
4.061249900000001,8.861204920539665,-4.070572517433974,0.6804301462941582,-6.637935215280376,0.9754257070503968,-4.190417660743806
4.071249900000001,8.84931066053751,-4.0256808755873505,0.7197666589153852,-7.246975409119495,1.5126383616158665,-3.285763190853508
4.0812499,8.802542381498515,-4.057763662610793,0.7443413988474035,-7.6137600364613975,2.154325016524964,-2.162591214171622
4.0912499,8.736122857234793,-4.155502740752484,0.7570289060858341,-7.201579148260708,2.387667878888357,-0.8958796243713832
4.1012499,8.623199552903882,-4.253051156679957,0.7363816166748403,-6.270314410870048,2.0321091591575713,0.2630287785657787
4.111249900000001,8.593405661731955,-4.314081695307186,0.6747874545709139,-4.683306974787018,1.3598590886240125,1.1541698879950708
4.1212499000000005,8.621005017933987,-4.3180868177660345,0.6238011068889344,-2.720501645101276,0.6596235692908927,1.9367574505832421
4.1312499,8.653567453505806,-4.259450808943363,0.6266621614792076,-1.3595461835459615,0.19587473600140423,2.608159136452154
4.1412499,8.772312063278449,-4.229867139946536,0.6477930904270639,-0.35878271322661975,0.08074302896975732,3.1730183543038657
4.151249900000001,8.893590091871035,-4.206804360890434,0.6459474966273296,0.24991451411720897,0.35899911347981717,3.4207436464049614
4.1612499000000005,8.931217601978611,-4.169569679807219,0.585980109290569,0.2344854983868178,0.780898947907572,3.5002949862024857
4.1712499,8.911474359974974,-4.191551442273638,0.48442195130733057,0.07086160857627316,0.9498260463539394,3.4455175847653705
4.1812499,8.85215608364989,-4.256480095172869,0.41978876231766993,-0.16226935608777043,1.1772489126506744,3.120560742162048
4.191249900000001,8.819221291180368,-4.272001222454838,0.4082551936623228,-0.4113079681035545,1.6228254010657353,2.592822681229612
4.2012499000000005,8.841365855863172,-4.250264159042047,0.4007607242762021,-0.48578541190985036,1.8661741903069504,1.7919836246637706
4.2112499,8.918918877273834,-4.236183107412698,0.41456011587113306,-0.5121535301630318,2.151423876479605,1.1851924895554458
4.2212499,8.979313822552538,-4.215073585434892,0.4696337350261393,-0.554538477808416,2.7002052698448176,1.0259112365838068
4.231249900000001,8.996426189279736,-4.2267103547343226,0.5559445334610189,-0.32991544206518236,3.266344207078227,1.118888212292429
4.241249900000001,8.995580877344015,-4.284412939575136,0.5995383431865093,0.288070953369278,3.716697824103141,1.4328128950240855
4.2512499,8.973532920705779,-4.316179107456183,0.5788676103843595,1.17446332397551,3.850234228321663,1.8753551518129263
4.2612499,8.916656263031294,-4.334407882674621,0.5427611873042786,2.3236294250710072,3.605082661511112,2.3370474605256697
4.271249900000001,8.810526002141875,-4.260974324500572,0.5107540468523318,3.052309861594472,3.255707542110865,2.720142495857935
4.281249900000001,8.769702840719022,-4.138937570985029,0.4923251764778286,2.916024088512326,2.875880496669576,3.0092829305311937
4.2912499,8.814292480509055,-4.103338680655025,0.5275698167271204,2.2775481005882554,2.572139199505882,3.2431046381254243
4.3012499,8.849730146591808,-4.1374664780395705,0.5855638545194828,1.7142019573202285,2.4440080301894067,3.5124052041845193
4.311249900000001,8.84770482208092,-4.155929112087758,0.5751476661550682,1.10767644104908,2.2544761463657825,4.023796463928347
4.321249900000001,8.837403383289647,-4.210995905026935,0.5365868711278614,0.7944611984065294,1.91496978789792,4.644594097169227
4.3312499,8.797835664894095,-4.286623234220148,0.531706272367873,0.9502013264882762,1.5004991429954644,5.332022973504896
4.3412499,8.703965603100027,-4.281438715123161,0.533560209589557,0.9731590237455856,0.997313238467582,6.068227049015527
4.351249900000001,8.623942039510856,-4.283333666007402,0.4927188657545929,0.6258925988596171,0.535167829480606,6.690128306431585
4.361249900000001,8.598227156605876,-4.3368512909115005,0.4263075890885427,-0.19775312124664693,0.19137444144222865,7.200284020810255
4.3712499000000005,8.568701813792151,-4.384466044132464,0.3172154020778398,-1.5747463562029966,0.2794620356240547,7.577953233360685
4.3812499,8.436844710080894,-4.379594147480723,0.18384254990876936,-3.5523416491667974,0.42182328969128563,7.604520848172044
4.3912499,8.311171767045026,-4.42519820171932,0.07415935881573306,-5.435248110842626,0.7641400061407305,7.526906313729187
4.401249900000001,8.258831465210294,-4.499990559853377,-0.023032412999923372,-7.319042195124412,1.3086008802015892,7.6410631968361304
4.4112499000000005,8.24038691749716,-4.534445242233114,-0.07412068083917676,-9.268850949980353,2.164531765443154,7.897060258242527
4.4212499,8.20090666926265,-4.561065239974458,-0.1654110134941849,-11.315935238247743,3.6512750941279655,8.13828180920884
4.4312499,8.188400214424947,-4.609042120224033,-0.31076937485047157,-13.314192766056555,5.80194832636863,8.784760143956625
4.441249900000001,8.190759318251516,-4.695884895834692,-0.39831871327914314,-15.311794558145323,8.418227850644627,9.930321744444695
4.4512499000000005,8.067748782623713,-4.817335633689537,-0.4966425053498293,-17.995252412698502,11.392279122463401,11.767575540185367
4.4612499,7.786265527044875,-4.9437198931465485,-0.6138836520494912,-21.157521634462526,14.897343414242158,14.152898026801099
4.4712499,7.4748165768067,-5.1007787070854835,-0.7643208380881051,-24.488345279584152,18.67126588572009,16.97941845746098
4.481249900000001,7.1498409532844445,-5.219893219391078,-1.0136268466385199,-28.23386523826509,22.38477513299369,19.807517588729556
4.491249900000001,6.7251361997966175,-5.231024196522155,-1.2401156408243112,-32.50021521861051,25.89152626711737,22.29889773921755
4.5012499,6.307276008997662,-5.270694525870111,-1.3931930718694614,-37.181034098938724,29.956359920724545,24.843275407590625
4.5112499,5.867466092241538,-5.3327913476878095,-1.562816012059866,-42.48829085186041,35.09430019100509,28.418633984858428
4.521249900000001,5.379286588783836,-5.3233530370536455,-1.7127815803821045,-47.105908452478054,40.043177882581915,32.858058593120944
4.531249900000001,4.921796919486537,-5.27107749421119,-1.7944200461506492,-50.60061868748547,44.662101229511606,38.31517410356198
4.5412499,4.560451402775877,-5.1408565629649425,-1.8752106471612864,-53.5591125973717,49.982553866730825,45.451581440650685
4.5512499,4.26449984457108,-4.81874286403773,-1.9696540739400785,-56.849011963092885,55.84150559350419,53.851591955276795
4.561249900000001,3.9822727365992803,-4.392807280575683,-2.0657208803179135,-60.632232775054874,62.43420801240746,63.317153330295824
4.571249900000001,3.7151684528089426,-3.998463251730381,-2.154647834628268,-65.08223157303338,69.75343700109286,73.9150508317997
4.5812499,3.4653565395504553,-3.5844158702222986,-2.258276595179649,-70.77191580524337,77.67645849198233,85.58647787581712
4.5912499,3.1484669377710763,-3.1611816386904668,-2.3631265973544306,-77.23845017573504,86.289698610482,97.94074473144471
4.601249900000001,2.6990221484016703,-2.8795542184590466,-2.3191596628751876,-83.79877280847569,95.25260302543956,111.18706973705571
4.611249900000001,2.1913518329345134,-2.747589991746676,-2.124656220842373,-89.85219133621192,104.61243743603747,125.42147610904779
4.6212499000000005,1.5607887570171126,-2.732185790763661,-1.8736307433752524,-94.53528176861822,113.73651672017236,140.282300265758
4.6312499,0.8491079876276214,-2.938564587052759,-1.4899424078157275,-96.5762619948814,122.26979452062093,156.1700736744531
4.6412499,0.18082837759361262,-3.271298950135117,-1.042272405233939,-95.52047696455901,130.27041587885302,172.4851660330034
4.651249900000001,-0.5120671914220477,-3.501282260487687,-0.7656556440574189,-91.84000584475349,137.02625360382063,188.87936524972318
4.6612499000000005,-1.164950287379304,-3.70543956700297,-0.5064271895014544,-84.66489776691729,142.64724845597172,205.31840183192458
4.6712499,-1.5027149862953209,-3.9373989018823945,-0.023617201669637725,-75.59092652502777,148.10130781119352,221.79963183375276
4.6812499,-1.5590707340812506,-3.9941454388375064,0.5117016018422199,-66.65821147861762,153.73784904395075,238.40517415601695
4.691249900000001,-1.6381617002973423,-4.01162854004447,1.0198620841828425,-56.5723325838413,159.8444011098002,254.78059062058045
4.7012499000000005,-1.8919016522402483,-4.212482303534489,1.6365859876918345,-46.432601406482426,166.15672461910933,270.91891156642373
4.7112499,-2.067249113324921,-4.321230988297162,2.107681517645548,-38.02181602668423,173.31402030768194,287.15389057210285
4.7212499,-2.036260697166762,-4.275791902853821,2.414715533139211,-31.167670505879634,182.1474441261801,305.89483099167535
4.731249900000001,-2.0528553204862328,-4.4756518699501555,2.9303624991050756,-27.495479024795795,189.89931879871224,323.774121933265
4.741249900000001,-2.1819346913071715,-4.709427071978883,3.4219466113494894,-27.535652757368453,196.0796028874674,337.85719238193127
4.7512499,-2.4322463238396805,-4.849708755162981,3.801241254374995,-30.50353178025957,201.08155444650956,350.5805061634272
4.7612499,-2.800351456650909,-5.710331374165434,4.8200937939037045,-34.842357045569905,203.65519001487235,362.2302216516576
4.771249900000001,-3.128729908718566,-7.003611171318218,6.09961138044562,-38.0630643384886,204.7586375748904,371.8551482676106
4.781249900000001,-3.5254350839476105,-8.361896166875669,7.12023555262144,-38.487737739775554,203.36054181207825,379.941744880908
4.7912499,-3.925598078869558,-10.780000111532615,8.871535655905163,-34.21077196064488,198.8375785155037,387.81010381436266
4.8012499,-4.510299897179066,-13.866785238352566,11.19933420880443,-25.135100190663053,191.0668132606636,394.11902379330553
4.811249900000001,-5.2275673102800555,-16.737108761889374,13.19335378031662,-11.723799927981156,179.01126728156245,395.9348254488522
4.821249900000001,-5.321783916261528,-19.58278283506632,15.068352335016845,6.7335495296485774,163.10965819281842,391.6597138385186
4.8312499,-4.620104917736264,-22.265637633427247,17.187475315928904,27.657228897541344,141.6681005410504,380.03440441730527
4.8412499,-3.1607451567848686,-24.38823592851099,19.29632999988225,49.20787378856233,114.1353294850849,360.1134575436702
4.851249900000001,-0.823384690239282,-25.68692881916552,20.634994082147525,71.57838115187295,79.91125557786155,331.6868363433772
4.861249900000001,2.3407044738148532,-26.582983923338208,21.73038666505641,91.74984687190523,37.801356683072854,297.5705223403341
4.8712499000000005,5.469973277331322,-27.217198176433953,23.463359009146803,101.56720278662364,-10.146158184673727,260.2693125018281
4.8812499,7.868219662986312,-27.589854473925925,25.64088047988354,100.20004537730075,-64.54889538771441,215.6169150589256
4.8912499,10.67004416745924,-28.20531647086174,27.317928629264227,93.64342138718898,-125.32345901917387,159.88441818485583
4.901249900000001,13.596395862057895,-28.235691322357088,28.52303364775376,76.89335931837431,-192.15977663121635,95.20245748625088
4.9112499000000005,15.438540207723493,-29.068820180386073,30.895528482877666,52.545209244665735,-264.73588829044377,23.326777557635094
4.9212499,15.161000544042837,-33.327735337487375,34.80374351124448,38.25231601052503,-340.51984347975787,-60.713873246103184
4.9312499,10.850881792801797,-39.98639213297731,39.780519686525906,48.72368007619187,-420.31223460711794,-159.40848736703083
4.941249900000001,3.162227287256621,-46.316712207622835,43.95992271594867,79.70241919438587,-483.8265371176425,-258.85442886628863
4.9512499000000005,-6.098055686444899,-50.23812929276323,44.466423217906375,110.88184111313952,-502.0681678175502,-359.0471051563475
4.9612499,-14.336427248488565,-52.80662224518257,42.04269024587594,143.83399857457292,-499.4752622664412,-451.2433089163104
4.9712499,-21.74731569340824,-53.20796890566765,37.57662603820736,170.95024312173865,-499.92392758451643,-498.34479973911266
4.981249900000001,-28.64200859315763,-47.78422726252311,30.06430268493839,146.3585047894328,-500.06922443165706,-500.7621031430629
4.991249900000001,-32.799302316169886,-42.755118645505036,22.71060611349471,84.81317238867979,-500.37558692026107,-499.4756380693971
5.0012499,-37.226755701342874,-40.11783648798789,15.522386844700943,22.851439306727823,-498.838213797386,-500.55839869285893
5.0112499,-40.66149720356437,-33.3550470475103,5.626023872978694,-27.629171381790847,-501.6744687504169,-498.28920355628634
5.021249900000001,-42.09223559665108,-23.13286689395798,-0.37822263949135265,-69.05525487422514,-497.67646931098477,-504.16988804304225
5.031249900000001,-48.58908233379754,-19.226804526378928,-2.8980643027525863,-40.29564499602511,-429.6891225073649,-482.11560516372106
5.0412499,-51.591296642079385,-15.747750031002866,-11.985829303551453,54.804028056623686,-340.23360059022,-368.306753677347
5.0512499,-41.606866717981994,-1.8984773900891947,-21.559999329155662,106.57110863101909,-289.95877427966946,-234.01850835707364
5.061249900000001,-29.89887920169672,15.88970998451654,-22.322446098197886,78.91086614107323,-237.06189731906522,-154.9462259362392
5.071249900000001,-25.30968831718012,24.68793919786789,-17.57289845145102,-6.99610749418766,-169.59216094127225,-109.24123260782866
5.0812499,-23.573590748145712,20.956886445470452,-13.083123706297156,-111.27959282811129,-112.23686421911559,-50.56979924218573
5.0912499,-21.357588106041387,13.443954960869863,-8.848486390820716,-195.78805908570777,-69.46174803315412,9.084033538333008
5.101249900000001,-19.45452729982981,7.1912473844876414,-2.8574738526136647,-233.87284392202233,-45.53307968554956,39.809028010636915
5.111249900000001,-16.82247597227045,0.38143949360611695,2.4290877664691743,-222.93670576233697,-37.188945808194326,49.76813905769744
5.1212499000000005,-12.138600511311463,-6.117743964452925,5.062455574839488,-178.98345877060314,-34.00750997947458,54.65868471490655
5.1312499,-5.873559377025833,-9.772659643404484,5.562095433962531,-111.34987962161091,-32.126826609232566,56.220459723099296
5.1412499,1.3015071759991095,-9.718299697772634,4.125022395335085,-36.33837547166525,-30.93467567910621,53.81854000463786
5.151249900000001,7.276091336929314,-7.230731274299514,2.5366822925496604,4.80806875170846,-26.37046438529945,47.2663770198316
5.1612499000000005,11.211852570444284,-5.029401081995652,2.0567164482221525,13.39878076603266,-17.445936365957454,35.244879040550444
5.1712499,13.238556367785435,-4.493834517989513,1.9257683883401653,10.901911901827937,-6.760872381375226,19.37123060958388
5.1812499,13.393679676722826,-5.140533283505143,1.7162719172978076,4.807183896857309,2.590134719526519,4.404651435832142
5.191249900000001,12.575003578248632,-6.140757714082336,1.8323180354479744,-0.8778350408397279,8.169954394390569,-7.569407983066995
5.2012499000000005,11.996641302248698,-6.7907839324146195,1.8706853341803311,-5.15271277494823,10.657136539857074,-17.48660576210467
5.2112499,12.030360709196664,-7.1949970924341535,1.5071076035664102,-6.491053534235325,12.470755658568036,-25.19417411746168
5.2212499,12.00409509660242,-7.535479603839359,1.189504218566773,-3.2643987786237307,14.331340848398051,-30.77907137081935
5.231249900000001,11.784700879633334,-7.4577722680091485,1.0501789242327226,2.1249851128445565,14.750420026695666,-35.03459242104826
5.241249900000001,11.772697148933824,-7.288766283373367,1.4378599777575574,8.896351348739577,12.874909958017804,-37.74970399413427
5.2512499,11.76575641937503,-7.399383824282566,2.2877481451805752,17.370913537530356,9.548749859599887,-39.031027239473346
5.2612499,11.451891467557655,-7.476740139276251,2.6607236661941958,26.071941223387313,5.164485277154962,-39.05103494457873
5.271249900000001,10.776590437192189,-7.306158066645962,2.487739787854719,32.06803161825208,-0.837016781169188,-38.20397343551977
5.281249900000001,9.872435903110313,-6.960629280331971,2.2643754561923526,33.23499826978062,-7.4440406323990445,-37.361331170324384
5.2912499,8.979212475818223,-6.271213885833592,1.9676712486183987,28.633517820054177,-13.166747918455329,-37.29549700328042
5.3012499,8.261096169987578,-5.257486985997712,1.5415171624969077,18.922746376672677,-17.98780499929592,-38.677371236535485
5.311249900000001,7.935180414193463,-4.2145086002548435,1.0901239308529818,5.611927326457772,-21.508511730693893,-41.6048253821862
5.321249900000001,7.921471377848916,-3.4704510854899366,0.7895985585580886,-10.110287326694053,-23.78221681377763,-45.35104367407798
5.3312499,8.008144425065439,-3.1686406076754596,0.6495574125507031,-25.6546217322898,-25.247897568736896,-48.621968433614
5.3412499,8.212750333018626,-3.132871981862747,0.7650549319847834,-39.472115954875555,-25.633220960904097,-50.36767929190033
5.351249900000001,8.38894339031526,-3.134758826825611,1.0667913715202855,-51.17703946411139,-24.179163859094405,-50.72922385232467
5.361249900000001,8.325787950073344,-3.187652046504442,1.0084827266656806,-57.325727875889456,-21.91970264290355,-50.31032151773696
5.3712499000000005,8.273478875195234,-3.3807417632589187,0.6664797382154539,-57.85861438701907,-19.59886125139303,-48.96854088951675
5.3812499,8.353502877874684,-3.4060281672311983,0.3517105208307283,-55.11721738122312,-17.214329402339192,-46.424821777310235
5.3912499,8.2847557351275,-3.194046531898153,0.13845796540916583,-50.09957864253156,-14.897698108230532,-43.20903436225415
5.401249900000001,8.057172550892936,-2.9780412860854835,0.13915853212904106,-44.49515376876892,-12.281563433728964,-39.42019211810248
5.4112499000000005,7.791570812175762,-2.836844024072945,0.19265119028057875,-39.22056244244966,-9.256183921043933,-35.28494885627514
5.4212499,7.702005648845625,-2.78076078132901,0.13313355768383534,-32.77211732651822,-5.606802242255331,-30.95889628593782
5.4312499,7.916359844583857,-2.804463499570651,0.1719512836602573,-24.77534126267713,-1.5157414316568831,-26.80819794293162
5.441249900000001,8.175589192188143,-2.6785294557655064,0.3590527083812246,-18.45700444628747,2.7828096299112466,-23.725547126410863
5.4512499000000005,8.337628940749514,-2.5503477623291846,0.44652618331891086,-13.602485901667405,7.436266631947544,-21.78629768594786
5.4612499,8.403027631666143,-2.6165211202737475,0.3903898243899779,-9.177616263490112,11.58790388947416,-20.560997305991766
5.4712499,8.313838806607116,-2.725417890591818,0.38523548503210375,-5.820957897442388,14.081478265114564,-19.6739010487545
5.481249900000001,8.171736717306777,-2.829871600102411,0.3479904321431301,-2.5628485884922116,15.441473387667132,-18.90469028948281
5.491249900000001,8.0347280829445,-2.86803214883302,0.1727085144641926,1.2375425061792287,15.892401470958303,-18.42325080049398
5.5012499,7.937817745051159,-2.935476545296479,0.10686860122984966,4.593624340084926,15.09360386880758,-17.431460309990044
5.5112499,7.9968496239989895,-3.0173998327751863,0.09833683377133912,6.173692614038261,13.74471102465751,-15.52240999923466
5.521249900000001,8.176215023338226,-2.9189976724601467,-0.09936654572825825,6.103909642499692,12.148805025918895,-13.518675711770182
5.531249900000001,8.489950507647693,-2.763946819837569,-0.2909560356500286,4.389411969070419,10.098392149159414,-11.234085397198566
5.5412499,8.862455997601263,-2.65681505861517,-0.31522495020863406,0.6980073533809308,8.229850364837262,-8.35730640212263
5.5512499,9.070591430516568,-2.5744154991781287,-0.23689795403763136,-4.377218178628585,6.580205802889198,-5.0736114204800895
5.561249900000001,9.189123899488008,-2.63233371461601,-0.09185212105988629,-10.404136394726962,4.737940921904035,-1.3616937646824594
5.571249900000001,9.402920787817221,-2.8267737690550225,0.009197666539179588,-15.040144089586413,3.527094768207679,1.8878369722570578
5.5812499,9.579025760487594,-2.97936790731993,-0.07346287946953663,-18.078009099748623,2.6650559130984783,4.396727233616761
5.5912499,9.642106108330196,-3.061075808469383,-0.15849198248467136,-20.905938703473662,1.415802789465272,6.276613292248535
5.601249900000001,9.767468499708748,-3.143110975071193,-0.09432654126653649,-23.72687320316744,0.5002678687139617,7.471272385717736
5.611249900000001,9.964183043899999,-3.2934041743343583,0.030873340717169236,-26.063955872157134,0.5461648733654794,8.244993947399822
5.6212499000000005,10.151667865044622,-3.455144985701592,0.26152664512437185,-27.088617037351373,1.5215745318780005,8.517627371553884
5.6312499,10.226870389243583,-3.6744850346668727,0.6030702723747795,-26.475466113909132,2.933197156688042,8.230142151099624
5.6412499,10.093281477343472,-3.9975802215631715,0.7805945713229587,-23.90107062583029,4.272929098985379,7.627976606373751
5.651249900000001,9.812513707790167,-4.225103763965199,0.7247032468505109,-19.628685178071184,5.05884863244693,7.065610109360755
5.6612499000000005,9.50286301198947,-4.290641988675786,0.6608716898701661,-14.601735696996734,4.553602580025799,6.460589661838922
5.6712499,9.283746281588103,-4.297981520827315,0.7418080001819215,-9.216330066411768,3.4344834781600007,5.408759704406114
5.6812499,9.142697455509275,-4.282057436943534,0.9009177742476627,-4.441744227460457,2.361258851442636,4.195167469714911
5.691249900000001,9.031024326686607,-4.305138212380822,0.9915359120131013,-0.630192645374484,1.293339410654492,3.0935330665658056
5.7012499000000005,8.958974390996703,-4.151955453327249,0.943860121210843,0.6380920369581722,0.5586582577068906,1.7332710706338827
5.7112499,8.891608046693989,-3.82152487466622,0.8665927663314668,-0.9361906360044464,-0.7752649218811787,0.17383165781143872
5.7212499,9.122644506305626,-3.8108724969978267,0.8528553260742358,-1.9978442878874176,-0.3803594727687414,-1.064098879978842
5.731249900000001,9.249010004660667,-3.5902500367471926,0.8875714674244142,-5.635235514709878,0.22249614594867925,-2.397050213270721
5.741249900000001,9.201518988326736,-3.340374159527029,0.8669695878884023,-9.68134491225698,0.17199067558682865,-4.081488978370213
5.7512499,9.165272252933915,-3.3856898624066134,0.6943767540006228,-11.80598955662028,0.383697116194925,-5.588818320036313
5.7612499,9.001947213551071,-3.4134505474486074,0.44955985820692007,-13.874432616886432,-0.20074452083431477,-6.3474695115852535
5.771249900000001,8.902615500445371,-3.4622557197663837,0.3492430414985905,-14.520141231291515,-0.8372135187466462,-6.249586275337712
5.781249900000001,8.86961277655667,-3.558853969036426,0.4452105717033926,-13.455103713361803,-0.8471380382303302,-5.772420534471685
5.7912499,8.922033073916417,-3.715196681982055,0.5074613657611291,-10.684911987403591,-0.20779927159705086,-4.692164164988313
5.8012499,8.979965746018616,-3.8601414424284117,0.570173913658729,-6.482079457572231,0.46339926674908427,-2.5356604025329355
5.811249900000001,9.022785299847904,-3.966708099331777,0.666179908044407,-2.0296374886248674,1.4987797631248894,-0.38616489120528563
5.821249900000001,8.969470171458427,-3.905421095583618,0.6401129396504895,1.4952507823380259,2.658410868387827,1.313454115053217
5.8312499,8.829128404460565,-3.678542040948581,0.4965441164970963,3.141634406962283,3.1150935369107597,2.840800004592299
5.8412499,8.738555334391254,-3.45705698697138,0.3758657329013912,2.3434191471371255,3.111123435323587,3.642259674304097
5.851249900000001,8.702269562458959,-3.386458908079355,0.314248402274115,-0.2066760859949045,3.112751912110602,4.020218106172275
5.861249900000001,8.751829107403704,-3.3946225869062663,0.2788959716593489,-3.8157008210756453,3.4030425137550444,4.443692924402427
5.8712499000000005,8.903683302602202,-3.4950844995955572,0.38849232047552007,-7.127502186978117,3.851878567884932,4.7513438965899395
5.8812499,8.993712630417066,-3.7365596994162313,0.5712367457469433,-9.076945174504745,4.1284929605228085,5.156304729109879
5.8912499,8.965815970765494,-3.9477732911019707,0.6731922932817279,-9.76864377946461,4.476258841146922,5.696251151698723
5.901249900000001,8.897010656218201,-4.051294037318266,0.6947508981318782,-9.598230554420955,4.663312424755323,6.096333480870281
5.9112499000000005,8.845634456486735,-4.091007950798429,0.6866733567872793,-8.832193722653054,4.384271262562142,6.263316952410099
5.9212499,8.855714276920242,-4.150862242064904,0.7397724435151859,-7.554976826638726,3.5759358700817776,6.103168672651061
5.9312499,8.898842416074027,-4.184371057756189,0.7626027249659375,-6.307429299901251,2.563801760383048,5.600159105280038
5.941249900000001,9.002397034040117,-4.185349209121478,0.738726119368742,-4.846863322146532,2.152065088146652,4.933634523098483
5.9512499000000005,9.105516330020787,-4.154866986227042,0.7962180809707349,-3.4848774903588313,2.457891702291094,4.556220447248819
5.9612499,9.060353858687998,-4.059824497682328,0.8480768100308383,-3.398346700574006,2.651001155988031,4.109074757281587
5.9712499,8.979961850519175,-3.890377894831856,0.7525594922529888,-4.705152163283638,2.8055689447289804,3.1195595318556744
5.981249900000001,8.967310145612128,-3.7779142340498755,0.5543082110214589,-6.110345298679546,3.0094504232756805,2.1346923448334185
5.991249900000001,8.946204549347135,-3.77523060658986,0.4385565852872593,-7.266687210839195,3.2835014287939965,1.8622256469338918
6.0012499,8.983177084382573,-3.798200261526289,0.4857815880917563,-8.181255256702782,4.226480831965109,2.0109841486144897
6.0112499,9.107603089201852,-3.9150267738792572,0.6531574358765458,-7.778916664045973,5.845436992498972,2.4328378389267074
6.021249900000001,9.102069775253867,-4.0770195288168445,0.7753123308424539,-6.24876555633129,6.706680238728881,2.9862185521139404
6.031249900000001,9.062035254812672,-4.2109322706609165,0.7920649421689429,-3.5242589781833455,6.7709610156898545,3.632496519251982
6.0412499,9.140018852460335,-4.372729252113542,0.7995240313031491,0.7131607712885446,7.692793622247526,4.390876263389233
6.0512499,9.041264649259604,-4.444022458177042,0.8316920194569141,4.446147036595018,8.325089261167731,5.169659276247452
6.061249900000001,8.814504823194754,-4.328358443839686,0.7691811975652733,6.385276786527912,8.135384083007612,5.591985593056214
6.071249900000001,8.756196135461337,-4.186548227646389,0.649647110026761,6.725378645493043,8.062062676770875,5.4642254386268245
6.0812499,8.720806436984144,-4.065553170951469,0.5618061362297204,5.14579715177144,7.720591552831175,5.270145337776917
6.0912499,8.671760699032388,-3.9539095349186706,0.5374143867730876,1.9733130434846375,7.231874184453187,5.283018729457243
6.101249900000001,8.721365827898047,-3.8942938654442787,0.5920318429601206,-2.0202985790082315,6.970954865732172,5.292196479463963
6.111249900000001,8.72730641493223,-3.8946826154542666,0.6528298397201046,-5.672716409722999,6.679874619646523,5.4263288712269455
6.1212499000000005,8.649041421937065,-3.9926564737679473,0.6635243859404136,-8.597259952462116,6.404062930865538,5.98503174397168
6.1312499,8.563631290661437,-4.129504871358826,0.6135217362939693,-10.77925954168236,6.068000829421367,7.222134269639754
6.141249900000001,8.532142512254465,-4.254560485456071,0.572518864676254,-11.582639238413597,6.017954296065017,8.75288266121736
6.151249900000001,8.557563343077431,-4.359558142389765,0.5938707187634498,-11.35970212825497,6.453456207997696,10.400677621351456
6.1612499000000005,8.57744763819865,-4.447400586718291,0.660290456588912,-10.366703145336627,7.3424003004120655,12.010143636315226
6.1712499,8.521772908345552,-4.522370481041573,0.6974814872583011,-8.76785465516366,8.283790802262061,13.715027205124214
6.1812499,8.358163714751678,-4.581228780873235,0.6752261729625466,-6.4374585395733535,8.923603739248279,15.813561692791339
6.191249900000001,8.20139318360384,-4.580904298906543,0.5749378005397939,-3.9569192313141746,9.304382615226498,17.699079699050053
6.2012499000000005,8.10550815097881,-4.478272924895185,0.4714961634817733,-2.994124112879158,8.93196229109701,19.37688077806278
6.2112499,8.145472096720527,-4.3220731371109995,0.4478402667982382,-3.7656567192825876,8.768666493064972,20.865931119999292
6.2212499,8.345565580037425,-4.164829122809697,0.43465656501607497,-5.968897811001071,9.338525853842087,21.799529134099224
6.231249900000001,8.528996691433614,-4.056597501514436,0.45009733135623137,-9.428497798798146,10.261055794671666,22.216121048943272
6.241249900000001,8.631777333470641,-4.05736045801234,0.5071875646360382,-13.411869660198773,11.189952965924196,22.415281084515147
6.2512499,8.653488271247284,-4.159986620602927,0.5776982086158153,-16.9855600751363,12.291021599632648,22.606373172089974
6.2612499,8.605897916922116,-4.286710302231285,0.6136263752265239,-20.394992421904806,12.959143000970277,22.76399664750211
6.271249900000001,8.682739666953587,-4.482789993042379,0.6334925297489576,-22.295186390695314,14.057460394233209,22.781400083954175
6.281249900000001,8.703890846797439,-4.670408060470271,0.6505822393899359,-22.763811741151695,15.135044345450803,22.908190457105245
6.2912499,8.520083422572862,-4.715517985887932,0.6197534432934089,-23.613328130247115,15.308189981499778,23.088434790287398
6.3012499,8.461161422749193,-4.811952852652392,0.5617297062675035,-23.801794913589593,16.061945963898477,23.20467315616321
6.311249900000001,8.453538020364197,-4.993623620620398,0.5559027634400757,-23.597420184637667,17.685269275814143,23.803267674057878
6.321249900000001,8.16856605151653,-5.076878649936404,0.49455097742066806,-24.936920388208293,18.488438233967997,24.738352605871615
6.3312499,7.862715838537106,-5.140515332755723,0.3135862671947777,-26.745722269033323,19.34837805457008,25.666060460349165
6.3412499,7.612460967070232,-5.274736164453879,0.14863574928744383,-28.711163580456677,20.748749429238913,26.857645361834766
6.351249900000001,7.20615204301137,-5.422877910368848,0.0006659083995509426,-31.189915036957192,21.86359347469994,28.540925820652426
6.361249900000001,6.685883207857101,-5.5615935818213105,-0.19756842400747454,-33.8211915112954,22.923170806188843,30.680548115490964
6.3712499000000005,6.175410081961632,-5.610616578534529,-0.41213824749919714,-37.04774838181223,24.295766487286055,33.11157569033769
6.3812499,5.786031868351029,-5.617036066712129,-0.5813903313759513,-40.86579650008988,26.290827564450264,35.77076211120878
6.391249900000001,5.439406267302567,-5.54407616326477,-0.8015462609750607,-46.931218366033484,29.63472242214434,39.642745854216905
6.401249900000001,5.123587525410733,-5.378674376170028,-1.071627739825384,-55.04902978787522,34.49836989833604,44.536446967816836
6.4112499000000005,4.903026616111206,-5.198702786697045,-1.2819957564111852,-63.50133503888023,40.32415792767666,49.36077062535109
6.4212499,4.64223297197984,-4.9869589990212,-1.473360247339265,-72.82829914924993,47.36564841703159,54.625960577939175
6.4312499,4.296106201428302,-4.802995961506364,-1.7309984037736406,-82.01560180074804,55.61204531825061,60.82546433455769
6.441249900000001,3.8963638938122482,-4.713152808575626,-1.9158098658642946,-89.87338762408443,64.73508071658476,68.05527728977931
6.4512499000000005,3.4378394094196523,-4.713088525784152,-1.9324584176544202,-95.63665154912557,74.63795638747204,76.89745162820178
6.4612499,2.8686757351019168,-4.691463057793726,-1.925646425218486,-98.9115207161463,85.18949759100026,87.77173555435
6.4712499,2.1939951341754402,-4.675484167402318,-1.8409676455126285,-99.03064658319839,95.65588116365392,100.72347216135
6.481249900000001,1.3871206788971595,-4.926389181173417,-1.442588972059555,-95.77296754763825,105.71032205681217,115.83735328883236
6.491249900000001,0.5724922148922518,-5.266029123852529,-0.9825646880013079,-90.08776459262361,115.43776048804709,132.49487989471731
6.5012499,-0.06615688477267359,-5.231988006944261,-0.8305965638331153,-82.31310320878825,124.45230036358491,148.7662855057524
6.5112499,-0.5317254225557528,-4.9459528254952305,-0.7118973806381752,-73.40205138804201,132.32186705518728,163.5860824640642
6.521249900000001,-0.8786154704826153,-4.655942621093685,-0.5096054286748195,-64.9097467237066,139.52429245892566,176.70961653044293
6.531249900000001,-1.1710461931722436,-4.321098366987539,-0.3299118612974826,-57.7985342280474,146.34329282365033,188.82317268430344
6.5412499,-1.3454089796187432,-3.9992134149744887,-0.07549235609616523,-52.017507068369014,153.21520887119897,200.99804009445154
6.5512499,-1.3657474524390105,-3.6736308256132113,0.1765920174746007,-47.36270621769907,160.78767592784106,213.34504841212936
6.561249900000001,-1.3081956524775817,-3.2500189713923198,0.3361310298852974,-43.650055709433545,168.77468539407855,225.68845222898423
6.571249900000001,-1.2146301835515205,-2.836316183721855,0.5180969827247445,-40.60937103176878,177.0522778846981,238.58490378574206
6.5812499,-1.1480377152707544,-2.6328656753140987,0.8571486881878587,-39.06214260673572,185.86613413871046,252.67684755991655
6.5912499,-1.125614091556824,-2.6448956200755864,1.3286459002002973,-38.09683538989132,194.96526259298568,267.56580707906
6.601249900000001,-1.4481647916300746,-2.8275371205521918,1.8526025497891196,-38.45693570704588,203.79889519826094,285.6988033661391
6.611249900000001,-2.0889908622873987,-3.2917485825835713,2.3489784658190858,-41.07138016288775,211.29329102665136,305.2497635074658
6.6212499000000005,-2.550849707132696,-3.718750526591725,2.794511120313947,-43.87535749919947,216.9262211817662,321.6659045022844
6.6312499,-2.7171162139832012,-4.091899870624706,3.568220243013731,-46.48694499864274,221.81237801690227,337.4514316886833
6.641249900000001,-2.804336923177759,-5.004760734049176,4.894271412770094,-48.243310265756016,225.6316285020395,353.063237027706
6.651249900000001,-3.018319662887307,-6.370427747584903,6.367165804668854,-46.592290141746105,227.787768859884,368.28825834105703
6.6612499000000005,-3.25910306139843,-7.890431051492654,7.7910944856929065,-39.657099445676046,227.89166141480064,383.6392289632279
6.6712499,-3.460472097915359,-10.170919259392774,9.475190927118042,-24.831104182677308,225.94092444140966,399.0941884010129
6.6812499,-3.883193476563094,-13.277720419053933,11.87211295022087,-1.9917364825276112,220.20158631722967,412.58114677125656
6.691249900000001,-4.772435540827868,-16.514979608773004,14.713420837965286,28.08115156753194,208.24164995946555,420.14787224586274
6.7012499000000005,-5.63732325030037,-19.19390968730808,16.70580492478182,63.023349851641555,189.2097520010321,418.6123570274249
6.7112499,-5.521182892265169,-21.100463615166404,18.377974845364914,96.88170453784788,163.66822766579827,407.6791674376675
6.7212499,-4.539487992395908,-22.65971876509616,21.571723176976096,120.14851714803278,129.47159846370704,387.55110634790697
6.731249900000001,-3.0562433228189394,-24.590610151450868,25.468959703784865,127.21329059405181,85.55771999346193,356.3724237524429
6.741249900000001,-1.1157261233920464,-26.502955791656575,27.228710082307725,124.5664421154443,34.19533710069865,312.38578186763164
6.7512499,0.7747906903762457,-26.93630921878905,27.587187447448212,106.89724694573853,-24.791136988097385,256.5878197787412
6.7612499,2.4771737800281257,-26.903676557018724,29.309448758026136,70.55561474516306,-93.33552220074951,191.6495615931564
6.771249900000001,4.101055812552638,-28.424231998615998,31.332369341850697,29.66969988205287,-169.1700048633576,118.84515842314133
6.781249900000001,5.180030267761003,-31.418627895767134,33.13731264713908,-6.7798079212233775,-251.77152812840473,40.99067922945061
6.7912499,6.482278583444016,-35.97362144878863,35.593663833844424,-32.44541421670068,-332.4016176767863,-37.42497001625679
6.8012499,7.148623328494833,-40.953458857168606,37.97135283485905,-43.27155983473364,-406.50503223814815,-119.43408384124838
6.811249900000001,4.20760847995582,-45.89350161469909,40.21779410276105,-27.866928951835977,-475.6047910428492,-229.8064191370408
6.821249900000001,-1.4621121250092712,-49.73111972207198,39.89995656305714,8.60917178385216,-503.09425953767396,-360.2002665393363
6.8312499,-7.105199806167852,-52.435369994790776,36.88583333241871,54.76175252663963,-499.4655894341413,-463.5226079760543
6.8412499,-13.955595444326534,-56.59485135098347,34.68139368998942,122.48703767136115,-499.79854627183636,-502.5375999525883
6.851249900000001,-22.437892838328068,-55.72181701645639,30.46059644169597,174.44685072966163,-500.1804454714042,-499.7870471020264
6.861249900000001,-27.964578565313154,-47.185642020385785,23.546384317117028,168.13475815502267,-499.8984026010942,-499.56407158284134
6.8712499000000005,-32.70413237696323,-39.9961899607225,17.809529268874503,114.43153357319446,-500.38339655364564,-500.23300474893654
6.8812499,-41.86554439310551,-35.471306373952785,11.446869898235672,40.247104184214265,-498.7968513036235,-500.4434879874928
6.891249900000001,-46.940236476687545,-26.723985398314035,2.3961562593608305,-25.260448850474212,-502.20160134471564,-498.46828842302324
6.901249900000001,-42.87550558576694,-14.591800352403768,-1.3134617525191554,-75.60858878258972,-494.3564875651434,-502.4313239594942
6.9112499000000005,-41.721647210009266,-10.96499699481631,-0.2834299718538056,-54.93674066773989,-423.4925422729586,-494.576172229611
6.9212499,-44.8296980019924,-9.895233779462414,-6.669821259742321,41.45485258016329,-337.08717950689083,-394.5866766239474
6.9312499,-40.383308188995585,0.8960501491666336,-15.598511235212275,106.59247056951068,-288.34961560362706,-240.6500242854717
6.941249900000001,-29.948581004898383,16.613433069475487,-17.852547871849094,93.41803728511829,-234.61195292536158,-126.56040911667709
6.9512499000000005,-22.57810159052338,26.275422196638655,-15.542269901346224,20.280763027210728,-158.80691232837688,-59.0549206972934
6.9612499,-19.75948444133971,23.908071355880416,-11.880367070461428,-72.82130314037312,-94.40411326208726,-1.7328880136232745
6.9712499,-19.746854220165865,15.321821464750515,-8.135835383738236,-148.77559534747607,-53.93385281001526,55.152092377846316
6.981249900000001,-20.060637606344258,7.48849971366101,-3.198389545346808,-185.94669918757975,-32.561672294799806,88.99823760770755
6.991249900000001,-18.66775044131363,0.34595366078806905,1.871219624200596,-181.09909491480877,-25.5531201719326,93.2919375616631
7.0012499,-14.956711313733864,-5.962534046627721,4.231817442835517,-151.49736183783784,-24.658625992892514,84.7078228261778
7.0112499,-9.519898335342488,-9.84298067284838,4.497634065380028,-109.70979695538955,-22.154263033080465,76.96821741040067
7.021249900000001,-2.206646356004621,-10.2577783932701,3.5680646985076945,-56.364663463253905,-12.066366260568646,69.0271646245472
7.031249900000001,4.83420378435489,-8.381876493582293,1.8024232707970647,-10.332598689866316,1.4823192322727443,60.00426651886046
7.0412499,10.217066605998612,-6.890210481656326,0.6212960541893302,19.85776466948802,14.645575282351164,52.63610118230231
7.0512499,13.732595559342668,-6.609336001382835,0.7098754072036914,42.99249957795572,27.07392240791364,46.425539759712294
7.061249900000001,14.94626587379004,-6.82559268309941,1.1949803274774873,58.30848103527935,37.63008351380992,39.36998036904332
7.071249900000001,14.793319866321902,-7.035078353890425,1.6243516993069473,63.51400277795433,45.59517833808364,29.484978495619035
7.0812499,13.709211149281572,-7.189175466746686,2.160553380140622,59.18995934085867,48.83102733973405,16.985228328705745
7.0912499,12.181145136526187,-7.509063766044561,2.8640020279589726,50.36382314855024,47.90569822538347,3.682147538962281
7.101249900000001,10.800837563632497,-7.9752474643399465,3.5572356729779786,39.33649665132738,45.630979231818316,-8.903122462621749
7.111249900000001,9.64112995181318,-8.167350985117626,3.6283666189937755,26.781285284432684,43.25876965177709,-19.424362381558257
7.1212499000000005,8.883537789773966,-8.154202499781544,3.2724119841878263,15.038789958311579,40.48690144508714,-27.46103526277641
7.1312499,8.732695481062938,-8.131712906086516,3.292002082177117,6.251819411113458,37.330866819541754,-33.631551402993146
7.141249900000001,9.052029968625952,-8.005088674113553,3.572902163184807,1.8948268034255504,32.71026129662805,-38.70498726511126
7.151249900000001,9.40834526489909,-7.866014543011279,3.622000397690151,2.934327675067541,24.71230255461747,-42.4757852379622
7.1612499000000005,9.568958184139829,-7.828583010575615,3.240187742524636,8.259845170525173,12.861862752786227,-44.5083935215768
7.1712499,9.708902177869627,-7.54973991990385,2.6591829331684034,13.280994306176524,-0.5364211039601716,-45.132886224068024
7.1812499,9.813701853587613,-6.625899531826081,2.1154868264010815,13.641681980478825,-12.729766744390513,-45.52798194485673
7.191249900000001,9.642154816310136,-5.493526928648375,1.6672773156156837,7.472710239040156,-22.86860393849193,-46.78885091836361
7.2012499000000005,9.369368289841791,-4.608119032411956,1.3480441380909904,-5.206545511912194,-30.327945512172494,-49.02603218179474
7.2112499,9.224862584343064,-3.9364938826020186,1.2488971909753381,-23.500444254846197,-34.282857938623906,-51.64843187573265
7.2212499,9.173352719875762,-3.3148931375589545,1.1251717066678932,-45.79739925135464,-33.979814918907664,-54.87856704362235
7.231249900000001,9.279117101902196,-2.74747466656219,0.9983326117762267,-72.78283029289977,-28.566363589828896,-59.89433308721871
7.241249900000001,9.409772120955505,-2.719135763289107,1.2390671176246448,-94.84952406317126,-20.198230488032376,-64.79823891804408
7.2512499,9.208732591109596,-3.026228472804134,1.5355439796393495,-106.73591288979102,-11.915753972346218,-68.15029427289566
7.2612499,8.75717900277797,-3.3730627031100253,1.6908367631750216,-110.57401054616896,-4.7698769824505325,-69.63275280022346
7.271249900000001,8.434086209705201,-3.853557988555247,1.7364471921001197,-104.81635185213327,0.8568676911184113,-68.12722349123733
7.281249900000001,8.140252288164145,-4.175036726648112,1.7430339937569017,-92.45604051321682,4.546318139402225,-63.98401476465391
7.2912499,7.710756975480417,-4.210839299199661,1.7696204502291066,-76.7808306928699,6.345560049007583,-58.15186089244479
7.3012499,7.382575253898763,-3.972325637488536,1.5980713559382693,-60.079598836545934,6.963416346954483,-51.617159227115394
7.311249900000001,7.276868501166334,-3.4755694919635003,1.4404066459970886,-45.79984060033402,6.4889383186404865,-45.12474704444218
7.321249900000001,7.387391951508667,-2.9033576803188996,1.484362711894714,-35.46984104999151,6.226085215682262,-39.270762013600965
7.3312499,7.491492928032622,-2.453567643878431,1.5210231901958653,-28.45982709527064,6.5379836994782785,-34.65252386842202
7.3412499,7.567723178905972,-2.412543500687892,1.6229541687638047,-23.10262981465696,7.160994947713916,-30.646363020557544
7.351249900000001,7.764104750459733,-2.5339772065054254,1.6202940029044621,-17.81444150157439,7.719895961662556,-26.58727613056594
7.361249900000001,7.970354356600126,-2.5929848942036684,1.2832220550362066,-12.16492971499041,6.89734239243007,-22.493950026180205
7.3712499,8.190536160271572,-2.645030935147494,1.0148294324869047,-7.433152223529014,4.44997087208364,-18.344611991811952
7.3812499,8.438639423262272,-2.562900259527997,0.8988774502713668,-4.482766370939283,1.6575940857431082,-14.438419463155086
7.391249900000001,8.658832811169079,-2.325919632978123,0.6542151753736808,-3.5914672503883427,-1.2126624131008703,-11.134130046712132
7.401249900000001,9.073010857386732,-2.0417934993464013,0.2858752392310664,-5.543273867786422,-3.924619192436646,-8.596237391181406
7.4112499,9.560485182367913,-1.773683577143048,0.013935157644585049,-10.07623958284768,-6.237426341502166,-6.453332527604767
7.4212499,9.912725664359314,-1.6377094812898312,-0.0561325008943922,-16.511780843293558,-8.25497168444342,-4.300665946016187
7.4312499,10.238416411048583,-1.6582739537289015,-0.12432807614798966,-23.44517437128092,-9.585118575888801,-1.8693372603238008
7.441249900000001,10.411741256225568,-1.901903153987154,-0.13430320464951226,-30.1622010025507,-11.048665547961031,1.884391493568514
7.4512499,10.352841724322923,-2.24779000146576,-0.002621631648715105,-35.53243610437608,-12.345733180313742,6.13497426712341
7.4612499,10.228075232088674,-2.516838772055288,0.14489446757168947,-38.43810238517235,-12.837241571316378,9.015528033363047
7.4712499,10.14522616276526,-2.870782582908841,0.25967192181858895,-38.82182160432074,-13.321330267627182,10.186275060716609
7.481249900000001,10.10936116696004,-3.3038930893207956,0.3714893208399978,-37.134399591141346,-13.84140138604301,10.217642178635131
7.491249900000001,10.092082553287513,-3.5554194983924705,0.5445807734594699,-34.368072270722806,-13.811776178816466,9.138178682767107
7.5012499,10.104084065810117,-3.693965446887802,0.85088241995156,-30.680498740991172,-12.804314663306538,6.668130052983737
7.5112499,10.116019274177619,-3.8822226402765754,1.1658774056947054,-25.661215153066653,-10.830349709464146,3.1833916886227343
7.521249900000001,9.94495877565601,-4.067935046979898,1.325355752237278,-20.103894484165956,-8.352738809859447,0.049789805755997604
7.531249900000001,9.576506270799301,-4.1557744313784175,1.2448097387672195,-14.287017510925955,-6.201165995269936,-2.1503225240125614
7.5412499,9.19853705822809,-4.011344323128486,1.078776581792921,-9.078230010044654,-4.684694308682594,-3.5465326978256475
7.5512499,8.919678619918631,-3.867304523406303,1.0252085485342788,-5.184199970313868,-3.6869241185977106,-4.097685058544408
7.561249900000001,8.697388252233397,-3.7161539748057573,0.8701940828380402,-3.254354642575135,-2.8795815222114967,-4.665817184753262
7.571249900000001,8.567071791090976,-3.41439327258514,0.6910644314121934,-3.4302876847946115,-2.3109308166329754,-5.615093254863492
7.5812499,8.599213646655784,-3.2322173435557593,0.6756984542251019,-4.488358314476508,-1.8628624763712613,-6.271839253450313
7.5912499,8.628203445885879,-3.275745234506861,0.7518424449140019,-5.842741165360024,-0.9714787006575711,-6.361925466856725
7.601249900000001,8.572296980603506,-3.2444825855405828,0.7824281129774096,-8.336591262274572,0.044039495082309935,-6.126889202097512
7.611249900000001,8.494903184264894,-3.1916791132769142,0.7374262504809002,-10.101922235998178,0.2018744988474105,-5.7844747749862275
7.6212499,8.598731637124391,-3.355043330684907,0.6456291538506433,-9.758604951403548,0.9072130595625164,-4.993092383288962
7.6312499,8.650663623893434,-3.3607840908848607,0.5231032817557711,-9.325464160931364,1.4571954333006423,-3.659699943725239
7.641249900000001,8.732152286582423,-3.3373512143550093,0.5014121670325438,-7.865149543325092,1.8213596515601034,-2.5116672324930214
7.651249900000001,8.984275386295263,-3.393182540269314,0.5604451917109976,-5.441115432052551,2.2561597898772465,-0.9178642859135875
7.6612499,9.190039437002524,-3.4351187258850606,0.5490023218408673,-3.125314037600748,2.5247958336073557,1.0692127665501998
7.6712499,9.203910643258627,-3.419497969839592,0.44788850971991134,-1.7151320964689536,2.5886318657056564,2.779982706560153
7.6812499,9.159630354497201,-3.35717183431725,0.3037633419418472,-1.05601458967061,2.9504904462950012,4.310265614687045
7.691249900000001,9.14222708031306,-3.339328966988047,0.23304979884422852,-0.6599521435250432,3.3052711919126887,5.602951710392348
7.7012499,9.169548551629589,-3.4599390143866504,0.26861553588685105,-0.10139533510930804,3.5036287748619066,6.643252743173084
7.7112499,9.190833550894459,-3.5760435453910233,0.2994409465528952,0.5068405321869816,3.970699702924288,7.6069513884991675
7.7212499,9.184188345288243,-3.5977126668837087,0.32764584484895115,0.5586399909798867,4.457778068098239,8.323268192105061
7.731249900000001,9.17668402280544,-3.5834762720488067,0.37551643304475013,-0.13143452099860664,5.038804282498915,8.793320083968252
7.741249900000001,9.121628693478502,-3.5492257719378157,0.46955974520464766,-1.864639451446179,5.475390219485588,8.973505928425244
7.7512499,9.079281297460168,-3.5976143092640926,0.5467666044187326,-3.8663418851909275,5.702787052015345,8.740608351153877
7.7612499,9.061239267058813,-3.7124256698724447,0.5469032080063427,-5.497261693512451,5.64807051832957,8.23072956710887
7.771249900000001,9.032113016300341,-3.801598410341403,0.5265119506669098,-7.059869832598055,5.1699074896121076,7.5509264258547395
7.781249900000001,8.980029541208333,-3.8408662460252208,0.5136472042876411,-8.296629382156862,4.720505061940917,6.730610813813527
7.7912499,8.968435271608394,-3.8720479421565,0.5382893857726093,-8.818823166786894,4.3894327343569035,5.584429920926904
7.8012499,9.032080938626864,-3.9957071037137752,0.6433410739737043,-7.984208798744752,3.9242113955033506,4.551555586672937
7.811249900000001,9.031193777012673,-4.117860820779216,0.7489383157983254,-6.401576426674364,3.664728424999771,3.998909036824594
7.821249900000001,9.105864777490183,-4.171051606374294,0.768936090915469,-4.047426775082549,4.079749713126302,4.003946393477254
7.8312499,9.20238283761625,-4.095551921354307,0.7448650287552634,-2.176671538154271,4.477844283579726,4.109080877021374
7.8412499,9.190702943608233,-3.9303059695649907,0.7345861599876383,-1.7795520631004242,4.898484768474093,3.9717744557352797
7.851249900000001,9.13525347540467,-3.7649880596089824,0.7239979028154269,-2.3798884750059437,5.62655142821012,3.5443748088981963
7.861249900000001,9.048080428969975,-3.6466350855113108,0.7115811618372924,-3.6876703921746365,6.310818113427487,3.1144880267240884
7.8712499,9.006196558454594,-3.703975223286673,0.7686383675537257,-5.02039547652097,7.104406425815706,3.1072047309306625
7.8812499,9.014659166977765,-3.8329772383524916,0.837766595601867,-5.6799068593341975,8.118836798613092,3.4016639573227314
7.891249900000001,8.955528761578831,-3.902862213189429,0.8914853427581496,-5.827154419504208,8.829306867541252,3.7567130502130706
7.901249900000001,8.868125257155679,-3.9849828832927803,1.002143161917679,-5.405045852891724,9.069037524287204,4.1234355791090955
7.9112499,8.818260982448296,-4.0854816869991,1.0399566481944607,-4.471013374236274,9.078166707300623,4.597952002440075
7.9212499,8.702310175698639,-4.1274967249337475,0.9407291207208507,-3.798999049647723,8.593032147335819,5.288068173899494
7.931249900000001,8.584415878470626,-4.1009780997417975,0.8037105391064078,-3.8804004786704502,8.017292971329919,6.011907002228072
7.941249900000001,8.540126646249652,-4.028106060647537,0.7325794657809396,-4.914560847167093,7.505562056889161,6.502231279834328
7.9512499,8.566053701381419,-3.9554756381826786,0.7564153780497425,-6.685479100813909,7.0784491467363875,6.71401921670012
7.9612499,8.666040567243114,-3.943256898181122,0.8432151235005886,-9.133231472627443,6.9679176561224345,6.743101168004203
7.9712499,8.783331284555178,-3.9924214270129825,0.9095264516731996,-11.692465222460356,7.550249481134543,6.973795668845961
7.981249900000001,8.806571670176085,-4.079437268595741,0.8989494275630072,-13.306069770972073,7.975761307691255,7.490973342452991
7.991249900000001,8.754135614082177,-4.204252990038224,0.8478229476383373,-14.080318909081258,7.757682298980361,8.429113643799413
8.0012499,8.693885424075777,-4.27196821178202,0.830103249108985,-14.232302896636513,7.451387524723707,9.628397016726536
8.0112499,8.62278396720568,-4.2954042176406935,0.7952461362400802,-14.144562353777012,7.336984557573682,10.805794003877175
8.021249899999999,8.624651695527362,-4.390675386019578,0.7306322306497766,-13.731083262914598,7.134952883839149,12.006631208445848
8.031249899999999,8.67185404108584,-4.543148651875882,0.748252159254295,-12.772957951021603,6.94474792961761,13.433303370697622
8.0412499,8.632372807341197,-4.635316781182031,0.7793786328460276,-11.90858185496344,7.064120423822301,15.00673766229315
8.0512499,8.573444716459598,-4.7190179386735505,0.7487410193591976,-11.059369561099443,7.2558873762683485,16.35459512396419
8.0612499,8.557609539736394,-4.813314395946919,0.6990923248438696,-10.356344241550497,7.350197946373879,17.68524567729754
8.0712499,8.420230051744324,-4.862028955781786,0.5646640121729855,-10.477684901270795,7.194373971108234,19.46709368889713
8.0812499,8.183844479461701,-4.844045199225604,0.3754520789157687,-11.819992192261797,6.512297668592881,21.43133743088486
8.0912499,8.020705370650868,-4.829908269085948,0.23091464336849152,-14.533986086950897,5.262688641498154,22.979683623676536
8.1012499,7.9460156613567055,-4.810997929144438,0.062031363099476544,-18.37914297088264,4.0857046331312326,24.32937840451073
8.111249899999999,7.835861695209009,-4.732674949516737,-0.14376499094392822,-23.70291316520715,2.9690399096268667,25.47262850436902
8.1212499,7.725837815486946,-4.824121993761183,-0.3134044885229579,-30.3420977052633,2.325114296799659,26.51001279910166
8.1312499,7.640747057873799,-5.008356833758299,-0.42441826748167,-37.8388473065538,3.0156332943765496,27.738503539084952
8.1412499,7.402328834205449,-5.0743479110847,-0.5718816271500664,-46.313093456863626,4.279149725879246,28.95281926452895
8.1512499,7.088460698936711,-5.2671401880181055,-0.7939868895483289,-53.78688165092417,6.005848833329682,30.086919564741624
8.1612499,6.711772571360118,-5.559609221468944,-1.0035254230295332,-59.472690819195165,8.924722022044934,31.62802906140579
8.1712499,6.235481589967114,-5.759010521370571,-1.1825548892840227,-63.916997592047515,13.148851756867213,34.34944992544844
8.1812499,5.674670946261229,-5.83418332177973,-1.3881690796000652,-67.44611827859484,18.24942510302033,38.26007388119604
8.191249899999999,5.045159322861483,-5.788112892307812,-1.5797250908046607,-70.07590898367293,24.397524486364794,43.3961347010423
8.201249899999999,4.423391212609945,-5.59509959273771,-1.826196872276673,-72.42472393136114,31.342475285922724,49.9055605638969
8.2112499,3.9068072019407936,-5.306729324494346,-2.0859842418360466,-75.13418274705859,38.83473260769982,57.654499273798436
8.2212499,3.4704901356536393,-4.973307534891454,-2.1593891287630167,-78.3036124687047,47.212366809860015,66.3068478887263
8.2312499,3.0301391466886147,-4.641344624331586,-2.155701673542282,-82.29047946217855,57.08431851640609,75.90432389472757
8.2412499,2.5390018062011506,-4.333044203985669,-2.229096486871257,-86.71527318168957,67.52744800564916,86.46949724443719
8.2512499,2.101182539291697,-4.057119348552192,-2.267128283969113,-90.69856401749678,77.85945088965028,97.62079940076826
8.2612499,1.6888807204151952,-3.7411160153773255,-2.238544444516552,-94.8275135794707,89.3346685785666,110.20460643341777
8.271249899999999,1.2395675207446588,-3.4604542038660395,-2.1529383392516417,-98.13122694276912,101.16576957452077,123.53897732599921
8.281249899999999,0.7844942384108091,-3.2463430073285764,-1.9511828772889512,-100.45488634139406,114.83482563760441,140.49011040924415
8.2912499,0.4828663398137595,-3.063209281120263,-1.7031039460947803,-101.77515024255139,129.39900019233042,159.79121148974005
8.3012499,0.2899179669721894,-2.950807189723667,-1.344793241607349,-100.66489611418459,141.53480439972114,176.72769968407738
8.3112499,0.13245032634581275,-2.895121803214732,-0.8216077958663797,-95.8662001433779,153.3357245362432,193.23404418823367
8.3212499,-0.12021305310597095,-2.9213755369143395,-0.40470823957400254,-89.18258123480251,164.55310348654655,210.32090225163492
8.3312499,-0.5804110225975473,-3.3435692458029025,0.09645500944315609,-81.21375639341844,173.95086380374616,228.0457418853324
8.3412499,-0.9811521739418689,-3.9563412843904158,0.7692591470798871,-69.75246101103897,182.82043765597086,245.70170355477237
8.3512499,-1.2469309589167576,-4.186013978157065,1.2295904838996599,-56.488179715956235,190.86698646120823,261.96545441715335
8.361249899999999,-1.406747584499429,-4.236714543106894,1.6445821156818987,-42.56482214436605,197.23779158109676,275.94227333902126
8.3712499,-1.4418209664481123,-4.211941674769157,2.0793287253825627,-29.43387602077231,202.61322543389903,288.16570381759635
8.3812499,-1.542166675240837,-4.218121425518125,2.5869580928111224,-18.260638792462622,207.34078421758002,300.1955589826658
8.3912499,-1.778066089464806,-4.634458230028817,3.481554239332509,-9.069647301130367,211.250899010081,312.7412596014775
8.4012499,-1.9464047269010316,-5.113104008136573,4.433950467802773,-2.127366506222129,214.95254363558624,326.0267823505198
8.4112499,-2.0655048962482527,-5.512556521978951,5.374789848745683,3.161502986018411,217.8437591958928,339.17072082406247
8.4212499,-2.1308850378911286,-6.232959009584149,6.48868933721193,7.3154410322316705,220.73799358671437,351.55170343420565
8.4312499,-2.3715636395011583,-7.294919043548329,7.3967276099805455,11.814417258979208,223.23914479776573,363.23690598870024
8.441249899999999,-2.933363088185915,-8.720419775933538,8.351556940454183,19.26073054539703,223.68987915223016,373.793622168445
8.451249899999999,-3.6591386813728155,-10.733894654922857,9.811646966831912,30.349390157788925,221.07044273038764,382.72584484181925
8.4612499,-4.3024946775202695,-12.852388534617987,11.353821621529951,43.254248027311405,215.20205821060281,388.98332762846854
8.4712499,-4.83107361261241,-14.550083835776096,12.63345658512233,56.39755023908526,206.17772807805008,390.9669243141716
8.4812499,-5.2383196122062525,-15.90040566212932,13.764066736062732,68.77322649466305,194.3872688206474,387.8581087730918
8.4912499,-5.0280032224881985,-17.290864027180103,15.52532231450226,80.01594030242796,176.50745094262626,377.48994336498674
8.5012499,-4.0581665867225185,-19.029524713470874,18.034211795703122,90.41950497600327,150.77190286562245,358.8566647085226
8.5112499,-2.575126345020075,-20.748900725476695,19.79945317142294,103.13882808102498,121.9193513378955,334.9261878517697
8.521249899999999,-0.7216896191223814,-22.33722212145958,21.578150105112154,118.4676703394329,86.41176613816528,306.28134662259146
8.531249899999999,1.2502081632875113,-23.653993118749188,24.09515591977341,128.1393933855028,43.229087100479916,274.9073421771304
8.5412499,3.0042123556657305,-24.42468140739953,25.743765614844744,132.19967705183072,-6.384731429435911,239.09836937022934
8.5512499,4.426113971388102,-24.2560747116048,26.469233848717632,128.65076571505634,-63.50783591692405,197.10823111945538
8.5612499,5.699985538055353,-23.671689708006525,27.87622843556044,111.37635346447402,-127.89394745991056,151.6225498814286
8.5712499,7.064797142173667,-23.674981486656694,29.33844553207357,86.59763364737381,-196.4817721723757,101.35865488240988
8.5812499,8.39262509705669,-23.89217060049435,30.963468530123784,55.23224464328257,-266.3303462634076,43.99768861249761
8.5912499,9.047405770973036,-25.722996077995784,35.23325089473191,26.256067824971662,-332.4395932859135,-19.376524379965467
8.6012499,7.58448463301519,-29.593108511396018,40.87428266353886,5.730276680390351,-399.27774127456996,-90.95401522027848
8.611249899999999,3.386950452205382,-34.772437396505026,45.271705528301865,3.4352657225039427,-467.95288789678017,-172.57802288925794
8.6212499,-2.943213299604075,-39.271572403427996,47.033300698875095,13.393528246905811,-501.5251088441443,-265.37883767560515
8.6312499,-9.119476938343913,-42.02387361558326,45.688128656925095,31.965932026766644,-500.0866707707598,-361.0389625591221
8.6412499,-14.673018431842104,-45.71911119789942,42.42217326725878,73.35774970952026,-499.56261680497624,-444.39188597793134
8.6512499,-21.61930626322487,-46.219725241636816,36.952410291940915,104.52284878994573,-500.2879218223459,-493.62088483539867
8.6612499,-27.305014586820764,-42.9397703050563,29.284430844983515,109.7973125764325,-499.8177801108248,-501.78878225485767
8.6712499,-32.11216558658204,-40.807678962433585,21.09423466963351,95.69756958805249,-500.1843205071249,-499.7930517880022
8.6812499,-38.1525603503184,-35.10857241671176,12.082948588842738,58.59916885905077,-500.04848872846657,-488.06134601564844
8.691249899999999,-41.1447935664039,-22.79891706181769,3.7727588352370205,4.448486106937902,-498.82159262721376,-474.9234648781192
8.7012499,-43.39061893309517,-11.751102300101412,-0.8760347397708304,-42.581897459438885,-503.9181543772468,-445.67631454075604
8.7112499,-46.99093609717728,-9.907858972177612,-4.515949564161016,-20.196934110874228,-479.3397558151299,-353.01033428663663
8.7212499,-43.152554696871846,-7.354086235019439,-11.7280941000224,38.747246493302974,-393.866477171379,-222.6408321553684
8.7312499,-33.476341303736824,6.7248143683130825,-18.75347736327298,45.371834057523515,-304.79967162411396,-126.47995003856072
8.7412499,-25.797943481386266,22.456415248888003,-19.161354710563213,-22.880944376710257,-224.0888509340241,-89.85227224961275
8.7512499,-21.930293947025625,24.490132046894036,-14.518391254305264,-132.85501360335354,-145.89631634624675,-60.94834662490714
8.7612499,-19.93066191520278,15.500643200334117,-10.24588623700221,-224.41542187504257,-78.85128351556594,-13.143467134363016
8.771249899999999,-18.033645964676577,5.979203628337109,-5.411927389037119,-247.15893350232815,-34.0337233279771,28.04319548280474
8.781249899999999,-15.549915435130288,-0.8310564240198198,1.7951212951903108,-200.50978729010046,-15.502796677544628,47.395184734727444
8.7912499,-11.767983827047676,-5.278115258850314,6.885476475540671,-124.29942245257585,-9.755906743044392,53.52458302253128
8.8012499,-7.138042888478853,-7.376714289292089,7.459665212332607,-54.53649555394171,-8.792499460268273,57.65031485825806
8.8112499,-2.229556920251439,-7.020453679405279,5.6706226184139155,-6.382791006395075,-9.207037711334548,61.7451289488544
8.8212499,2.349204071002018,-5.514622720218017,3.67789474254418,17.347239322620368,-7.92794378745494,59.84422370384201
8.8312499,6.225669948192363,-4.449133315369848,2.0526536997431473,16.58617896135235,-5.617385104444959,49.57309583138884
8.8412499,9.261407151822057,-3.998660537462953,0.8571378894595679,0.5357850945396772,-2.1171935339925736,31.601311180564714
8.8512499,11.018028459406867,-4.271162847608104,0.6865527429291177,-23.85632572378864,1.8271221422524286,10.058214126628455
8.861249899999999,11.639265184849098,-6.258445949688217,1.15227607165863,-43.47740524038794,5.58826021478868,-9.676940737223878
8.8712499,11.6920029271583,-9.003977745356574,1.4131007073905555,-46.676561567693184,8.347069405121855,-24.592799218889674
8.8812499,11.675548439090063,-10.38743645312928,1.6283868203859329,-38.90874211512848,9.419519899525461,-34.882886634738675
8.8912499,11.709643290432478,-10.216334561764507,2.126860541710157,-28.93714287126264,9.20187046038819,-42.743359278948354
8.9012499,11.764032538272831,-9.759887899210142,2.489478162985355,-16.793903125751562,9.202192995382124,-49.07483663320441
8.9112499,11.541717642657476,-8.985523175369424,2.253477429224256,-6.301745264490044,8.778864342959917,-53.86582524338681
8.9212499,11.044032077290211,-7.927639299450704,1.9133375548842402,-2.6048029617529056,7.531864353036017,-56.548016032502886
8.9312499,10.497776253231743,-7.260172024068361,1.8543357134340674,-4.255982032545002,6.1254646026873525,-57.20178967666857
8.941249899999999,9.854584357540537,-6.767656204934314,1.7613123936398611,-8.818167643127115,4.390963120349752,-56.93880594192084
8.9512499,9.23597068592822,-6.227315498562254,1.6093059931610352,-16.070849977767338,2.5716784832094075,-55.954639173194536
8.9612499,8.85401595500197,-5.699642518998004,1.5375698508346254,-24.55967230133442,1.436478097579466,-54.74407791554091
8.9712499,8.702233170154352,-5.230759686967737,1.3438065779885198,-31.969892949456053,0.8548022011945761,-53.51661217619349
8.9812499,8.643222606618055,-4.946365903981413,1.16260943062342,-36.55173426110512,0.04496560059216178,-52.16537110898472
8.9912499,8.511022529131166,-4.961355236816554,1.2751998546592356,-38.266558387880266,-1.1556133523686574,-50.574678089282315
9.0012499,8.338811253650386,-4.9291063866639995,1.2224747463028096,-37.92151153875194,-2.34865292816692,-48.33886311359326
9.0112499,8.225660701946076,-4.518806252950039,0.8454961551005779,-37.54540166461703,-3.619970576920807,-45.97611438313086
9.0212499,8.127009085101811,-4.0150576294649465,0.6213207397917955,-39.17824139763677,-4.688262954010937,-44.1365807175099
9.0312499,7.967923507023588,-3.522760684204345,0.5352311072039443,-43.65002038985494,-4.897488571011446,-42.35247235077331
9.0412499,7.749632991082807,-2.952621056370795,0.27789825715617955,-51.14435657399771,-4.187269090530461,-40.834318605565706
9.0512499,7.712340546893538,-2.498489407396826,0.0696395496481445,-60.2886421705017,-2.0647959781108702,-39.56138642996046
9.0612499,7.958726583542721,-2.3780943894032034,0.23098897471166885,-68.83299390235105,1.5449558468420843,-38.142069258263014
9.0712499,7.991628554122022,-2.300361068562045,0.47654935583503455,-77.4511135004403,4.142042432589309,-36.96270313066854
9.0812499,8.058982384045237,-2.6330585524272343,0.7520487656811977,-81.01598461385521,6.542519558215073,-35.490203300512945
9.0912499,8.284601778151268,-3.366332461286302,1.1375677140771903,-77.2249007100269,9.389290075968805,-32.96320883675023
9.1012499,8.218347257652775,-3.7335297616473797,1.3704630097283672,-70.36092659374611,11.158538758868048,-29.4796910653687
9.1112499,8.096202593690096,-4.010472996629835,1.4100894205666434,-60.18706715131398,12.715305030335493,-25.323363603104
9.1212499,7.894337490830245,-4.153646987177972,1.2462795157001036,-47.214307667514696,13.437735173882956,-20.407318461677516
9.1312499,7.672203941492157,-3.935307933241051,1.0088179345582775,-35.12282526048935,13.110594992716969,-15.908507538915734
9.1412499,7.712828255693984,-3.6278628241069777,0.9421592036310364,-26.268242829362975,12.607912364612035,-13.269824197724864
9.1512499,7.893882688208875,-3.54994403814369,0.97606388601276,-18.86453364706412,11.59379742213702,-11.668688291113208
9.1612499,8.039223011789757,-3.5678983493694982,0.8473745499801251,-12.713757302958335,10.02390789985283,-9.766018830471138
9.1712499,8.181649479058425,-3.379367334486859,0.5784868148942511,-8.712687840696066,8.057734146160005,-7.583205056208631
9.1812499,8.39348468299506,-3.177934451809275,0.38205281510637973,-6.704111824917481,5.367913427599578,-5.608194331902849
9.1912499,8.637245748440176,-3.098029540181568,0.2403053906659562,-6.852364420849834,2.2972523075294893,-3.4616495111209415
9.2012499,8.902979515781132,-2.945082252574985,0.04954715238286297,-9.668214936848337,-0.6440782596117889,-1.212410717267616
9.2112499,9.193683910654645,-2.726777254426964,-0.08927252715217976,-14.534984438071321,-3.381704598249,0.7163823162640797
9.2212499,9.407380484199646,-2.7032690675930375,-0.12197673417822802,-20.018138559991485,-5.992655134218567,2.311510853750572
9.2312499,9.488756637218351,-2.875201365736019,-0.15241912944240946,-25.285942598659197,-8.298621772973446,4.329232174762528
9.2412499,9.57745177605462,-3.078019615898055,-0.19519679826492448,-29.71253343456407,-10.178279966878497,6.610669968201047
9.2512499,9.670285826063479,-3.1815292293917556,-0.18994445275985264,-33.44794678644,-11.818606713409727,8.638452822920575
9.2612499,9.77615995520015,-3.2293718391665505,-0.035825839906823365,-36.507101201112036,-12.775258717700002,9.734264882102586
9.2712499,9.972252432133482,-3.358672278092315,0.21791733386830592,-38.62976650809613,-12.63591272584816,9.651730909328341
9.2812499,10.083314281549233,-3.528086129696566,0.37980906164560263,-40.327978240738965,-12.124557749046225,8.563903592631155
9.2912499,10.023863380979204,-3.736022438312825,0.494882212932552,-41.02718880429493,-11.53144837803761,7.152538550399926
9.3012499,9.858297162579051,-3.9985402885588597,0.6247032256505565,-39.70863306210594,-10.740601010631671,5.423555815216115
9.3112499,9.567286550808833,-4.249462610395539,0.701278344623586,-36.04307221463095,-9.98966403362169,3.2719673328996572
9.3212499,9.25450988024079,-4.468819858011335,0.7405162410399254,-30.16252021773158,-9.665068960189078,1.1720679691830214
9.3312499,8.987410782562852,-4.572357105495368,0.7696263163183245,-21.95789517668976,-9.32631415402805,-0.5016264249960208
9.3412499,8.81959126009955,-4.500577036439763,0.7871936646569475,-13.613863724534909,-8.674895873276807,-1.2311629475963448
9.3512499,8.74837282438009,-4.320176992782947,0.7496765277536175,-7.723628348700922,-7.99411139648131,-1.2110712622326951
9.3612499,8.671347341864848,-4.079400671959379,0.657291959014433,-3.8061548059427426,-7.292029792957665,-1.039318965089564
9.3712499,8.626264401497497,-3.805275951882697,0.49964387170339913,-1.9997234764178349,-6.323059789427329,-0.4704909727817334
9.3812499,8.636783945630059,-3.5119563433311396,0.2690249203155281,-2.457134289696934,-5.143499102667042,0.20267569122848889
9.3912499,8.709919482892923,-3.27217587953418,0.15120023400114052,-4.657411404342279,-3.7950818690261423,0.416599368559577
9.4012499,8.784758307829444,-3.1950904420573214,0.15813070421641753,-7.521474126941764,-1.9208913980798288,0.34322418646369923
9.4112499,8.702656425924742,-3.213437876292409,0.07139078328143511,-10.3258645248744,-0.16691389144863183,0.4688495092279996
9.4212499,8.649111822890985,-3.265809405587727,-0.061400662078136,-12.525130254392442,1.3519783320625884,0.9454892504440884
9.4312499,8.694138065398235,-3.401277062685378,-0.08221298091901336,-12.748719222963308,2.809818735268783,1.9188046652727548
9.4412499,8.700652296766348,-3.5864898348135714,-0.00675807437506846,-10.572367502721965,4.222240584731386,3.3681054789523275
9.4512499,8.72253597222881,-3.820626813968311,0.12440663646869048,-6.469510840718085,5.542668911279743,5.041838199902012
9.4612499,8.808209498478107,-4.035195455730745,0.27419894493592195,-1.0547616612900075,6.82352367396077,6.788871509394479
9.4712499,8.853938414162934,-4.055676067092715,0.33433677709055326,4.3859190107889106,7.7721239032601295,7.967452996965215
9.4812499,8.942114919616179,-3.9817362532707232,0.317596831351188,9.072814288844425,8.699082061741517,8.445957391008031
9.4912499,9.044871862495054,-3.887976984296741,0.3226541061948161,12.355961792358029,9.991335542194168,8.895642026315064
9.5012499,8.943360643661043,-3.727306006345097,0.3752014283889492,13.542548813316683,10.669067521867017,9.558879419891824
9.5112499,8.914049413091433,-3.658965416028627,0.45858408439095744,13.316759141040945,11.651035453115059,10.034981019983393
9.5212499,8.961830705872952,-3.634431352779071,0.47018926768617814,11.722469688121643,12.821208584859965,10.36959158048187
9.5312499,8.93962804496068,-3.6382630073177284,0.47550950590555013,9.329039367248257,13.436998516781648,10.681090455442547
9.5412499,8.934127035044972,-3.7505437724719854,0.620388002780891,6.590218918968898,13.642016360775738,10.846003688183137
