# Time (seconds),Accel_X,Accel_Y,Accel_Z,Gyro_X,Gyro_Y,Gyro_Z
0.0099999,9.227252960205078,-1.5179238319396973,1.1563993692398071,34.271240234375,18.12744140625,9.613037109375
0.029999900000000003,9.461885452270508,-1.237802267074585,1.2665326595306396,36.5142822265625,22.7813720703125,13.8092041015625
0.0499999,9.63187313079834,-0.9744400978088379,1.3623007535934448,33.8134765625,24.4140625,14.6484375
0.0699999,9.725247383117676,-0.7709329724311829,1.482010841369629,25.2685546875,25.4364013671875,11.871337890625
0.08999990000000001,9.75397777557373,-0.6703764796257019,1.7118542194366455,17.6849365234375,27.435302734375,8.880615234375
0.10999990000000001,9.744400978088379,-0.7158663272857666,2.0661959648132324,17.5323486328125,28.74755859375,7.781982421875
0.1299999,9.696516990661621,-0.9026140570640564,2.5115175247192383,25.848388671875,28.656005859375,8.9263916015625
0.14999990000000002,9.622296333312988,-1.1971008777618408,2.9927520751953125,38.8641357421875,26.275634765625,11.1236572265625
0.1699999,9.528923034667969,-1.5107412338256836,3.4141316413879395,52.9937744140625,21.697998046875,12.939453125
0.1899999,9.437943458557129,-1.7693150043487549,3.7397429943084717,62.4847412109375,16.998291015625,13.5650634765625
0.20999990000000002,9.370905876159668,-1.922544002532959,3.9264907836914062,65.6890869140625,13.671875,13.275146484375
0.2299999,9.330204010009766,-1.9608511924743652,4.000710964202881,63.3697509765625,11.9781494140625,12.5274658203125
0.2499999,9.32541561126709,-1.9105730056762695,3.9887399673461914,57.31201171875,10.528564453125,11.138916015625
0.2699999,9.334992408752441,-1.7956513166427612,3.9217023849487305,49.49951171875,8.270263671875,9.5367431640625
0.28999990000000003,9.330204010009766,-1.656787633895874,3.8594532012939453,39.00146484375,5.8135986328125,7.6751708984375
0.3099999,9.299078941345215,-1.4628572463989258,3.9240965843200684,8.697509765625,0.9918212890625,2.9754638671875
0.3299999,9.275136947631836,-1.4867992401123047,4.086902141571045,-2.4566650390625,-0.885009765625,0.3662109375
0.34999990000000003,9.260771751403809,-1.5945383310317993,4.261679172515869,-8.48388671875,-2.8076171875,-1.5106201171875
0.3699999,9.248801231384277,-1.766920804977417,4.383783340454102,-9.5977783203125,-5.645751953125,-1.5716552734375
0.3899999,9.248801231384277,-1.944091796875,4.393360137939453,-7.4005126953125,-9.70458984375,-0.8544921875
0.40999990000000003,9.27034854888916,-2.056619167327881,4.290409564971924,-6.28662109375,-13.1072998046875,-0.6256103515625
0.4299999,9.30386734008789,-2.1068975925445557,4.113238334655762,-6.0577392578125,-15.716552734375,-2.25830078125
0.4499999,9.361329078674316,-2.075772762298584,3.88818359375,-3.41796875,-17.88330078125,-3.5247802734375
0.4699999,9.425971984863281,-1.9776105880737305,3.6607344150543213,-1.800537109375,-19.59228515625,-3.72314453125
0.4899999,9.500192642211914,-1.8483237028121948,3.445256233215332,-2.6092529296875,-21.026611328125,-4.608154296875
0.5099999,9.586383819580078,-1.678335428237915,3.24414324760437,-3.5247802734375,-21.97265625,-4.7607421875
0.5299999,9.677363395690918,-1.4867992401123047,3.0837318897247314,-6.34765625,-22.857666015625,-3.814697265625
0.5499999,9.758766174316406,-1.2832920551300049,2.9712042808532715,-14.862060546875,-22.8729248046875,-4.1351318359375
0.5699999,9.77791976928711,-1.091755986213684,2.920926094055176,-25.7415771484375,-21.209716796875,-5.950927734375
0.5899998999999999,9.701305389404297,-0.9433154463768005,2.9257144927978516,-34.6527099609375,-18.98193359375,-8.270263671875
0.6099998999999999,9.519346237182617,-0.8762778043746948,2.956839084625244,-39.48974609375,-17.8375244140625,-10.0860595703125
0.6299999,9.253589630126953,-0.8762778043746948,2.9520506858825684,-38.665771484375,-18.61572265625,-9.9029541015625
0.6499999,8.987833023071289,-0.9457096457481384,2.8874073028564453,-34.48486328125,-20.2789306640625,-8.2855224609375
0.6699999,8.791508674621582,-1.01753568649292,2.7317841053009033,-28.50341796875,-21.5911865234375,-5.0506591796875
0.6899999,8.712499618530273,-1.072602391242981,2.4851813316345215,-22.7813720703125,-21.6522216796875,-2.0599365234375
0.7099999,8.755595207214355,-1.0797849893569946,2.1787235736846924,-20.599365234375,-20.477294921875,-0.5340576171875
0.7299998999999999,8.868123054504395,-1.0462661981582642,1.8148049116134644,-22.7813720703125,-18.1427001953125,-0.5035400390625
0.7499998999999999,8.992621421813965,-1.0295066833496094,1.4460978507995605,-27.1148681640625,-14.556884765625,-2.1209716796875
0.7699999,9.0859956741333,-1.0678139925003052,1.1013327836990356,-30.94482421875,-9.796142578125,-2.4566650390625
0.7899999,9.121908187866211,-1.2114660739898682,0.8403648138046265,-32.257080078125,-4.1046142578125,-0.213623046875
0.8099999,9.10993766784668,-1.4532804489135742,0.6775590777397156,-27.4200439453125,1.2664794921875,3.5247802734375
0.8299999,9.069235801696777,-1.7621324062347412,0.6177040338516235,-17.6849365234375,5.8441162109375,8.7738037109375
0.8499998999999999,9.006986618041992,-2.0685901641845703,0.6177040338516235,-7.5531005859375,9.3994140625,15.3350830078125
0.8699998999999999,8.949525833129883,-2.341529369354248,0.646434485912323,-2.44140625,10.6964111328125,20.4315185546875
0.8899999,8.901641845703125,-2.537853717803955,0.6727706789970398,-4.0435791015625,11.1236572265625,23.1170654296875
0.9099999,8.877699851989746,-2.671929121017456,0.6943184733390808,-12.1307373046875,11.962890625,24.23095703125
0.9299999,8.901641845703125,-2.7102363109588623,0.7541735172271729,-23.3917236328125,12.298583984375,23.4832763671875
0.9499999,8.99740982055664,-2.7892448902130127,0.8547300100326538,-33.99658203125,13.0615234375,16.90673828125
0.9699998999999999,9.133879661560059,-2.8874073028564453,0.9840168952941895,-39.1387939453125,14.678955078125,10.8795166015625
0.9899998999999999,9.311050415039062,-3.07415509223938,1.1204863786697388,-37.65869140625,16.0675048828125,8.6822509765625
1.0099999,9.481039047241211,-3.3494882583618164,1.256955862045288,-27.3284912109375,15.0604248046875,6.5765380859375
1.0299999,9.624691009521484,-3.6152446269989014,1.3934253454208374,-10.80322265625,14.0380859375,5.9814453125
1.0499999,9.725247383117676,-3.840299606323242,1.525106430053711,6.0577392578125,12.969970703125,5.0506591796875
1.0699999,9.794678688049316,-3.9695863723754883,1.659181833267212,18.402099609375,10.68115234375,3.753662109375
1.0899999,9.821015357971191,-3.97916316986084,1.7525556087493896,24.322509765625,7.7972412109375,3.2501220703125
1.1099999,9.816226959228516,-3.8810009956359863,1.7884687185287476,23.7579345703125,4.547119140625,2.044677734375
1.1299999,9.806650161743164,-3.6966474056243896,1.8076223134994507,15.6707763671875,0.2288818359375,-0.42724609375
1.1499999,9.792284965515137,-3.471592426300049,1.800439715385437,4.852294921875,-3.3721923828125,-3.936767578125
1.1699998999999999,9.775525093078613,-3.2632968425750732,1.800439715385437,-1.4801025390625,-6.2713623046875,-6.4697265625
1.1899998999999999,9.713275909423828,-3.134010076522827,1.7980455160140991,1.6632080078125,-9.674072265625,-7.6446533203125
1.2099999,9.576807022094727,-3.069366693496704,1.800439715385437,9.4451904296875,-13.61083984375,-7.26318359375
1.2299999,9.346963882446289,-3.045424461364746,1.7908629179000854,15.0146484375,-16.6168212890625,-7.781982421875
1.2499999,9.045293807983398,-2.9951462745666504,1.7597382068634033,17.02880859375,-17.4560546875,-8.2244873046875
1.2699999,8.741230010986328,-2.8874073028564453,1.7166426181793213,15.80810546875,-16.3421630859375,-7.9345703125
1.2899999,8.501810073852539,-2.7269957065582275,1.623268723487854,12.5732421875,-12.87841796875,-6.9427490234375
1.3099999,8.38688850402832,-2.5498247146606445,1.5059528350830078,9.674072265625,-7.8125,-4.852294921875
1.3299999,8.427590370178223,-2.403778553009033,1.3646949529647827,7.843017578125,-2.899169921875,-1.3885498046875
1.3499999,8.592789649963379,-2.3104045391082764,1.235408067703247,6.683349609375,2.0294189453125,2.532958984375
1.3699999,8.83939266204834,-2.279279947280884,1.1635819673538208,6.6070556640625,6.0577392578125,5.2337646484375
1.3899999,9.095572471618652,-2.2816741466522217,1.1659762859344482,7.476806640625,8.4381103515625,6.439208984375
1.4099999,9.320627212524414,-2.3127987384796143,1.259350061416626,9.1552734375,9.368896484375,5.43212890625
1.4299998999999999,9.473855972290039,-2.33913516998291,1.4173674583435059,10.19287109375,9.82666015625,3.7994384765625
1.4499999,9.543288230895996,-2.3702597618103027,1.6041151285171509,12.2222900390625,9.6435546875,2.5787353515625
1.4699999,9.555258750915527,-2.3798365592956543,1.802833914756775,15.9454345703125,8.392333984375,2.9144287109375
1.4899999,9.526528358459473,-2.3535003662109375,1.9584569931030273,19.8974609375,6.683349609375,3.84521484375
1.5099999,9.502586364746094,-2.2816741466522217,2.0805611610412598,19.7296142578125,4.8828125,3.72314453125
1.5299999,9.502586364746094,-2.190694570541382,2.142810583114624,14.862060546875,3.4942626953125,2.5177001953125
1.5499999,9.524134635925293,-2.0925323963165283,2.1715409755706787,9.368896484375,2.716064453125,1.9378662109375
1.5699999,9.53849983215332,-2.056619167327881,2.185906171798706,6.4849853515625,2.3193359375,1.7547607421875
1.5899999,9.524134635925293,-2.078166961669922,2.205059766769409,8.270263671875,1.8768310546875,2.6702880859375
1.6099999,9.454702377319336,-2.1595699787139893,2.229001760482788,13.18359375,0.91552734375,4.3487548828125
1.6299999,9.337387084960938,-2.2577321529388428,2.2409727573394775,16.8304443359375,-0.152587890625,6.2255859375
1.6499999,9.193734169006348,-2.346317768096924,2.2385785579681396,16.4947509765625,-0.8697509765625,7.4005126953125
1.6699999,9.057265281677246,-2.3989901542663574,2.1954829692840576,13.580322265625,-0.701904296875,7.5836181640625
1.6899998999999999,8.968679428100586,-2.4157495498657227,2.1595699787139893,9.8724365234375,0.3204345703125,7.3394775390625
1.7099999,8.93037223815918,-2.4133553504943848,2.1164743900299072,7.0648193359375,2.62451171875,6.53076171875
1.7299999,8.949525833129883,-2.389413356781006,2.1092917919158936,7.75146484375,5.0048828125,5.706787109375
1.7499999,9.011775016784668,-2.3702597618103027,2.1332337856292725,11.23046875,7.080078125,5.1422119140625
1.7699999,9.097966194152832,-2.3343467712402344,2.1763293743133545,14.46533203125,9.1705322265625,5.5084228515625
1.7899999,9.198522567749023,-2.2840683460235596,2.2625205516815186,16.021728515625,10.833740234375,5.67626953125
1.8099999,9.296685218811035,-2.233790159225464,2.3774423599243164,17.0745849609375,12.1917724609375,5.55419921875
1.8299999,9.378087997436523,-2.188300371170044,2.5546131134033203,18.6309814453125,12.3291015625,6.8511962890625
1.8499999,9.454702377319336,-2.126051187515259,2.8179752826690674,22.9949951171875,9.8114013671875,6.40869140625
1.8699999,9.526528358459473,-2.056619167327881,3.093308687210083,26.641845703125,5.4779052734375,1.9683837890625
1.8899999,9.634267807006836,-1.9512743949890137,3.3231520652770996,24.139404296875,0.946044921875,-3.41796875
1.9099999,9.768342971801758,-1.7860745191574097,3.442862033843994,13.3209228515625,-2.50244140625,-4.913330078125
1.9299998999999999,9.921571731567383,-1.625662922859192,3.3949780464172363,-1.861572265625,-5.401611328125,-5.5084228515625
1.9499999,10.04846477508545,-1.50355863571167,3.24414324760437,-16.9525146484375,-8.0108642578125,-6.7901611328125
1.9699999,10.110713958740234,-1.4867992401123047,3.0573954582214355,-29.3121337890625,-9.8876953125,-7.32421875
1.9899999,10.08198356628418,-1.6041151285171509,2.892195701599121,-34.9578857421875,-11.383056640625,-6.988525390625
2.0099999,9.955090522766113,-1.8052281141281128,2.7676970958709717,-34.4085693359375,-12.5579833984375,-6.6986083984375
2.0299999,9.751583099365234,-2.0446481704711914,2.674323320388794,-31.67724609375,-13.641357421875,-8.5906982421875
2.0499999,9.50498104095459,-2.2146365642547607,2.5665841102600098,-30.3802490234375,-13.18359375,-10.009765625
2.0699999,9.253589630126953,-2.298433542251587,2.4229321479797363,-31.219482421875,-11.444091796875,-9.82666015625
2.0899999,9.026140213012695,-2.2649147510528564,2.2433669567108154,-32.2265625,-9.82666015625,-8.5906982421875
2.1099999,8.848969459533691,-2.1499931812286377,2.0638017654418945,-32.4249267578125,-7.8277587890625,-7.3394775390625
2.1299999,8.71489429473877,-2.0015525817871094,1.9057846069335938,-30.8837890625,-4.2266845703125,-5.92041015625
2.1499999,8.607154846191406,-1.8531121015548706,1.7836803197860718,-28.1982421875,-0.152587890625,-2.899169921875
2.1699999,8.487444877624512,-1.7381904125213623,1.6759412288665771,-25.543212890625,3.021240234375,1.3885498046875
2.1899999,8.324639320373535,-1.6543933153152466,1.5514427423477173,-25.0701904296875,5.43212890625,6.7901611328125
2.2099999,8.097189903259277,-1.6304513216018677,1.3742717504501343,-26.06201171875,7.0037841796875,13.1683349609375
2.2299999,7.795520782470703,-1.678335428237915,1.113303780555725,-25.8941650390625,6.8511962890625,23.3154296875
2.2499999,7.486668586730957,-1.845929503440857,0.8020575642585754,-23.8037109375,4.5928955078125,37.2467041015625
2.2699999,7.2352776527404785,-2.0829553604125977,0.4908113479614258,-19.1802978515625,3.509521484375,54.9774169921875
2.2899999,7.103596210479736,-2.343923568725586,0.2298433631658554,-14.8773193359375,5.31005859375,75.25634765625
2.3099999,7.096413612365723,-2.5977089405059814,0.047884032130241394,-16.2811279296875,8.60595703125,95.794677734375
2.3299999,7.273584842681885,-2.7437551021575928,-0.08140286058187485,-25.2227783203125,10.986328125,119.659423828125
2.3499999,7.572859764099121,-2.7988216876983643,-0.20350714027881622,-40.6341552734375,11.1236572265625,142.3492431640625
2.3699999,8.24084186553955,-2.801215887069702,-0.363918662071228,-55.72509765625,5.0048828125,162.78076171875
2.3899999,9.66539192199707,-2.6144683361053467,-0.6799532771110535,-75.8514404296875,-5.889892578125,190.0177001953125
2.4099999,12.787431716918945,-1.8770540952682495,-1.2258312702178955,-120.54443359375,-24.017333984375,216.6290283203125
2.4299999,18.557456970214844,-0.27054479718208313,-1.9608511924743652,-200.1495361328125,-54.6875,232.879638671875
2.4499999,26.515783309936523,2.449268341064453,-3.1507694721221924,-289.6881103515625,-98.7548828125,248.8250732421875
2.4699999,35.209129333496094,5.408501625061035,-4.220977783203125,-391.9525146484375,-137.2833251953125,275.848388671875
2.4899999,40.79719543457031,7.663839817047119,-4.659116744995117,-494.964599609375,-144.500732421875,331.1004638671875
2.5099999,38.66156768798828,7.086836814880371,-3.9408559799194336,-500,-126.0223388671875,382.7667236328125
2.5299999,25.725696563720703,2.9496564865112305,-3.5865142345428467,-500,-101.4862060546875,435.2264404296875
2.5499999,2.6886885166168213,-3.3423056602478027,-4.2760443687438965,-500,-97.4578857421875,490.9820556640625
2.5699999,-21.459230422973633,-7.953537940979004,-4.93923807144165,-500,-14.373779296875,405.548095703125
2.5899999,-41.07252883911133,-10.654197692871094,-5.092466831207275,-500,190.85693359375,16.3116455078125
2.6099999,-49.52645492553711,-11.250353813171387,-4.838681697845459,-115.875244140625,214.1876220703125,-342.437744140625
2.6299999,-48.738765716552734,-9.895236015319824,-4.089296340942383,499.9847412109375,72.296142578125,-340.9576416015625
2.6499999,-40.89296340942383,-7.73087739944458,-4.960785865783691,499.9847412109375,-46.93603515625,-186.8133544921875
2.6699999,-31.146169662475586,-4.903325080871582,-7.362170219421387,499.9847412109375,-83.221435546875,-174.072265625
2.6899999,-19.658790588378906,-0.7206547260284424,-10.0580415725708,168.9300537109375,-28.2135009765625,-222.808837890625
2.7099999,-8.147468566894531,2.1140801906585693,-11.60708999633789,-94.90966796875,52.703857421875,-224.456787109375
2.7299999,1.8555063009262085,2.1739351749420166,-11.779472351074219,-161.62109375,104.7515869140625,-197.1282958984375
2.7499999,9.509769439697266,-0.27054479718208313,-10.699687004089355,-51.94091796875,133.4686279296875,-151.4129638671875
2.7699999,14.575900077819824,-3.8379054069519043,-8.880094528198242,156.2347412109375,137.7410888671875,-103.33251953125
2.7899999,17.039533615112305,-6.89530086517334,-6.897695064544678,324.5697021484375,121.551513671875,-70.37353515625
2.8099999,17.630901336669922,-8.348581314086914,-5.499481201171875,364.2578125,112.0147705078125,-72.6165771484375
2.8299999,16.71870994567871,-7.826645374298096,-4.707000732421875,311.5081787109375,117.950439453125,-103.82080078125
2.8499999,14.930241584777832,-5.935225963592529,-4.280832767486572,232.147216796875,123.626708984375,-140.0604248046875
2.8699999,12.837709426879883,-3.687070608139038,-3.9240965843200684,173.1414794921875,114.9139404296875,-156.8603515625
2.8899999,10.896012306213379,-1.8195933103561401,-3.397372245788574,146.1944580078125,99.212646484375,-149.5361328125
2.9099999,9.327810287475586,-0.706289529800415,-2.695871114730835,136.8865966796875,92.6971435546875,-130.5694580078125
2.9299999,8.166622161865234,-0.3734954595565796,-1.86508309841156,138.5040283203125,94.7113037109375,-115.0970458984375
2.9499999,7.453149795532227,-0.6057330369949341,-1.036689281463623,153.167724609375,89.4775390625,-98.968505859375
2.9699999,7.1706342697143555,-1.259350061416626,-0.2298433631658554,174.1943359375,71.4111328125,-81.878662109375
2.9899999,7.254431247711182,-1.9129672050476074,0.363918662071228,171.56982421875,57.3883056640625,-60.6231689453125
3.0099999,7.7428483963012695,-2.449268341064453,0.8523358106613159,128.2501220703125,48.2025146484375,-52.0782470703125
3.0299999,8.506598472595215,-2.7988216876983643,1.1276689767837524,74.5697021484375,34.2864990234375,-58.1207275390625
3.0499999,9.485827445983887,-2.999934673309326,1.2306196689605713,38.177490234375,15.9912109375,-58.3343505859375
3.0699999,10.54645824432373,-3.203441858291626,1.2617442607879639,19.04296875,-1.9378662109375,-50.537109375
3.0899999,11.523292541503906,-3.40216064453125,1.280897855758667,7.7667236328125,-13.1988525390625,-44.7845458984375
3.1099999,12.188880920410156,-3.557783842086792,1.3455413579940796,4.180908203125,-17.242431640625,-41.839599609375
3.1299999,12.447454452514648,-3.6080620288848877,1.4987702369689941,9.94873046875,-19.47021484375,-36.1175537109375
3.1499999,12.229581832885742,-3.5697548389434814,1.699883222579956,19.775390625,-21.42333984375,-29.1900634765625
3.1699999,11.599906921386719,-3.4165258407592773,1.8746598958969116,23.8494873046875,-22.308349609375,-26.123046875
3.1899999,10.740388870239258,-3.066972494125366,2.0422539710998535,12.87841796875,-21.8353271484375,-26.580810546875
3.2099999,9.828198432922363,-2.6001031398773193,2.1499931812286377,-8.5601806640625,-19.5159912109375,-30.5328369140625
3.2299999,9.045293807983398,-2.049436569213867,2.2385785579681396,-26.0162353515625,-14.1143798828125,-36.163330078125
3.2499999,8.465897560119629,-1.558625340461731,2.346317768096924,-34.60693359375,-5.889892578125,-39.9932861328125
3.2699999,8.073247909545898,-1.2210428714752197,2.4372973442077637,-32.65380859375,1.8768310546875,-39.85595703125
3.2899999,7.817068576812744,-1.0821791887283325,2.492363929748535,-21.6522216796875,6.2408447265625,-34.7137451171875
3.3099999,7.675810813903809,-1.137245774269104,2.4827871322631836,-10.1165771484375,6.1187744140625,-24.383544921875
3.3299999000000002,7.654263019561768,-1.3407529592514038,2.346317768096924,-0.0457763671875,5.401611328125,-13.12255859375
3.3499999,7.843404769897461,-1.601720929145813,2.1068975925445557,3.11279296875,5.6915283203125,-4.852294921875
3.3699999,8.293514251708984,-1.8531121015548706,1.7334020137786865,-4.608154296875,5.7525634765625,-0.48828125
3.3899999,9.004592895507812,-2.0398597717285156,1.3215993642807007,-19.4854736328125,4.4708251953125,-1.1138916015625
3.4099999,9.847352027893066,-2.1978771686553955,0.9074024558067322,-30.45654296875,4.150390625,-6.5460205078125
3.4299999,10.630255699157715,-2.382230758666992,0.5985504388809204,-30.8380126953125,3.47900390625,-11.71875
3.4499999,11.14500904083252,-2.6192567348480225,0.4572925269603729,-19.866943359375,1.2969970703125,-11.5509033203125
3.4699999,11.293449401855469,-2.8850131034851074,0.524330198764801,-2.197265625,-0.8697509765625,-8.0413818359375
3.4899999,11.051634788513184,-3.1052796840667725,0.730231523513794,11.505126953125,-1.4495849609375,-5.3253173828125
3.5099999,10.532093048095703,-3.1914708614349365,1.0223240852355957,15.472412109375,-1.64794921875,-3.753662109375
3.5299999,9.840168952941895,-3.1196448802948,1.2306196689605713,8.941650390625,-3.3416748046875,-1.0223388671875
3.5499999,9.121908187866211,-2.9520506858825684,1.3263877630233765,-6.1187744140625,-4.8065185546875,1.739501953125
3.5699999,8.456320762634277,-2.7724854946136475,1.2521674633026123,-21.3623046875,-3.8299560546875,3.2196044921875
3.5899999,7.95832633972168,-2.6647465229034424,1.1037269830703735,-30.5633544921875,-1.5869140625,4.608154296875
3.6099999,7.642292022705078,-2.6815059185028076,0.9145850539207458,-32.89794921875,1.0528564453125,6.3629150390625
3.6299999,7.556100368499756,-2.808398485183716,0.7781155705451965,-30.1055908203125,4.364013671875,7.87353515625
3.6499999,7.675810813903809,-3.0142998695373535,0.7038952708244324,-22.7203369140625,9.1400146484375,9.1400146484375
3.6699999,7.960720539093018,-3.2632968425750732,0.6943184733390808,-10.467529296875,13.0615234375,11.7950439453125
3.6899999,8.365341186523438,-3.485957622528076,0.7158663272857666,2.5177001953125,14.007568359375,15.8843994140625
3.7099999,8.83699893951416,-3.6559460163116455,0.7398083209991455,11.0015869140625,11.505126953125,18.49365234375
3.7299999,9.339780807495117,-3.734954595565796,0.7350199222564697,12.725830078125,7.32421875,18.7530517578125
3.7499999,9.861717224121094,-3.7277719974517822,0.7015010714530945,8.3160400390625,2.0294189453125,16.082763671875
3.7699999,10.32858657836914,-3.7158010005950928,0.6488286852836609,0.518798828125,-4.4403076171875,11.04736328125
3.7899999,10.682928085327148,-3.7253777980804443,0.5650315880775452,-6.7596435546875,-10.101318359375,7.0343017578125
3.8099999,10.833763122558594,-3.799597978591919,0.4812345504760742,-11.0626220703125,-14.068603515625,2.6397705078125
3.8299999000000002,10.752359390258789,-3.909731388092041,0.4118026793003082,-11.6424560546875,-15.960693359375,-3.1585693359375
3.8499999,10.460267066955566,-4.010287761688232,0.395043283700943,-8.392333984375,-16.387939453125,-7.7667236328125
3.8699999,9.998186111450195,-4.055777549743652,0.45010992884635925,-2.3193359375,-14.892578125,-10.650634765625
3.8899999,9.457097053527832,-4.017470359802246,0.5554547905921936,5.828857421875,-12.0086669921875,-12.5579833984375
3.9099999,8.923190116882324,-3.8762125968933105,0.6703764796257019,14.312744140625,-9.6893310546875,-12.1917724609375
3.9299999,8.485051155090332,-3.6343982219696045,0.7469909191131592,18.8751220703125,-8.270263671875,-9.09423828125
3.9499999,8.192957878112793,-3.3039982318878174,0.7445967197418213,17.9443359375,-6.8359375,-4.39453125
3.9699999,8.078036308288574,-2.956839084625244,0.6655880808830261,14.0380859375,-5.035400390625,1.190185546875
3.9899999,8.10437297821045,-2.607285737991333,0.5410895943641663,8.880615234375,-2.9144287109375,7.5225830078125
4.0099999,8.2312650680542,-2.31758713722229,0.4141969084739685,4.302978515625,-0.823974609375,12.3138427734375
4.029999900000001,8.42040729522705,-2.099714994430542,0.3232172429561615,1.220703125,1.77001953125,14.58740234375
4.0499999,8.638279914855957,-1.9560627937316895,0.31124621629714966,0.152587890625,5.645751953125,15.4266357421875
4.069999900000001,8.904036521911621,-1.8938134908676147,0.4118026793003082,0.7171630859375,10.7421875,15.716552734375
4.0899999000000005,9.215282440185547,-1.9057846069335938,0.646434485912323,3.4942626953125,15.7012939453125,15.68603515625
4.1099999,9.548076629638672,-1.968033790588379,0.9840168952941895,8.575439453125,19.561767578125,15.3656005859375
4.1299999000000005,9.873687744140625,-2.0901381969451904,1.3982137441635132,13.214111328125,21.1181640625,14.9993896484375
4.1499999,10.156203269958496,-2.231395959854126,1.843535304069519,14.5416259765625,20.233154296875,14.2059326171875
4.1699999000000005,10.366893768310547,-2.3965959548950195,2.2577321529388428,13.7786865234375,16.387939453125,10.25390625
4.1899999,10.493785858154297,-2.559401512145996,2.609679937362671,11.6729736328125,9.70458984375,4.4403076171875
4.209999900000001,10.560823440551758,-2.7006595134735107,2.8634653091430664,7.7667236328125,1.8768310546875,-0.3814697265625
4.2299999,10.560823440551758,-2.8131868839263916,2.9903578758239746,3.47900390625,-5.5999755859375,-4.5928955078125
4.249999900000001,10.498574256896973,-2.873042106628418,2.9712042808532715,-0.0152587890625,-11.6424560546875,-8.6212158203125
4.2699999,10.350133895874023,-2.8826189041137695,2.8179752826690674,-4.730224609375,-15.8538818359375,-11.810302734375
4.289999900000001,10.089165687561035,-2.846705913543701,2.542642116546631,-11.2457275390625,-17.7154541015625,-13.9312744140625
4.3099999,9.691728591918945,-2.7724854946136475,2.1787235736846924,-17.5018310546875,-16.4947509765625,-14.83154296875
4.329999900000001,9.153033256530762,-2.674323320388794,1.7764976024627686,-21.087646484375,-13.1378173828125,-13.3819580078125
4.3499999,8.458714485168457,-2.518700122833252,1.3670891523361206,-20.782470703125,-8.331298828125,-8.1939697265625
4.369999900000001,7.556100368499756,-2.2816741466522217,1.015141487121582,-17.39501953125,-2.0294189453125,1.9683837890625
4.3899999,6.385335922241211,-1.9800047874450684,0.6177040338516235,-6.103515625,6.8511962890625,18.6309814453125
4.409999900000001,4.9583916664123535,-1.5466543436050415,0.11252748221158981,8.8043212890625,21.6217041015625,43.7774658203125
4.4299999,3.265691041946411,-0.9959878921508789,-0.569819986820221,-6.8511962890625,51.116943359375,72.3724365234375
4.449999900000001,1.338358759880066,-0.545877993106842,-1.5466543436050415,-50.1861572265625,95.550537109375,102.72216796875
4.4699999,-0.5099649429321289,-0.36152446269989014,-2.7078421115875244,-81.35986328125,134.8876953125,154.7393798828125
4.489999900000001,-1.9105730056762695,-0.7422025203704834,-3.9240965843200684,-87.1124267578125,155.2581787109375,231.689453125
4.5099999,-2.5282769203186035,-2.0183119773864746,-4.999093055725098,-81.3140869140625,157.012939453125,313.323974609375
4.529999900000001,-2.1475989818573,-4.304774761199951,-5.731719017028809,-88.0279541015625,151.6265869140625,390.869140625
4.5499999,-0.9385270476341248,-7.91283655166626,-6.042964935302734,-127.4261474609375,152.0538330078125,447.967529296875
4.569999900000001,1.1204863786697388,-13.187262535095215,-5.729324817657471,-201.4923095703125,153.5797119140625,463.3026123046875
4.5899999000000005,4.448426723480225,-20.10890007019043,-4.797980308532715,-291.32080078125,146.3623046875,428.8787841796875
4.609999900000001,9.318233489990234,-28.335376739501953,-3.0813376903533936,-377.2735595703125,122.9095458984375,323.3489990234375
4.6299999000000005,16.124948501586914,-36.32243347167969,-0.2537853717803955,-446.1669921875,90.9423828125,154.1748046875
4.6499999,24.016237258911133,-42.576087951660156,4.623203277587891,-500,61.6455078125,-65.887451171875
4.6699999000000005,30.875625610351562,-45.87529754638672,11.513715744018555,-473.9532470703125,10.0555419921875,-301.300048828125
4.6899999,34.25384521484375,-45.88966369628906,19.826383590698242,-313.201904296875,-106.170654296875,-500
4.709999900000001,32.51804733276367,-43.033382415771484,28.589162826538086,-149.1241455078125,-268.6767578125,-500
4.7299999,25.175031661987305,-38.29286193847656,35.03914260864258,-107.147216796875,-393.12744140625,-500
4.749999900000001,13.15613842010498,-33.063926696777344,37.639244079589844,-149.3682861328125,-447.9827880859375,-500
4.7699999,-2.494758129119873,-28.026525497436523,34.74465560913086,-137.8173828125,-451.324462890625,-500
4.789999900000001,-19.953277587890625,-22.340295791625977,26.872520446777344,-71.685791015625,-421.9818115234375,-253.7841796875
4.8099999,-36.21469497680664,-15.942989349365234,15.828067779541016,-40.58837890625,-271.8963623046875,-100.9979248046875
4.829999900000001,-48.501739501953125,-9.117119789123535,3.576937437057495,-9.674072265625,-41.3055419921875,-92.498779296875
4.8499999,-53.6612434387207,-2.27209734916687,-7.113173484802246,116.8670654296875,122.6654052734375,-27.557373046875
4.869999900000001,-51.14972686767578,2.252943754196167,-15.188815116882324,244.4610595703125,186.981201171875,74.920654296875
4.8899999,-41.86261749267578,3.756502389907837,-19.92454719543457,279.2816162109375,209.0301513671875,145.4925537109375
4.909999900000001,-28.299463272094727,2.492363929748535,-20.95884132385254,218.719482421875,218.597412109375,187.774658203125
4.9299999,-13.172897338867188,-0.9433154463768005,-18.669984817504883,105.52978515625,226.5777587890625,189.1326904296875
4.949999900000001,0.8379706144332886,-5.7556610107421875,-13.998897552490234,0.5950927734375,220.7489013671875,147.735595703125
4.9699999,11.444284439086914,-10.74996566772461,-8.099584579467773,-37.2467041015625,190.7196044921875,91.827392578125
4.989999900000001,17.669208526611328,-14.808137893676758,-2.5689783096313477,-0.274658203125,158.966064453125,27.2979736328125
5.0099999,19.792865753173828,-17.058687210083008,1.5107412338256836,58.2275390625,131.2255859375,-38.4063720703125
5.029999900000001,18.88546371459961,-16.871938705444336,3.4548330307006836,99.5941162109375,95.76416015625,-76.7974853515625
5.0499999,16.381128311157227,-14.477737426757812,3.3255462646484375,103.5003662109375,64.178466796875,-92.010498046875
5.069999900000001,13.390769958496094,-10.642226219177246,1.7956513166427612,81.60400390625,51.0101318359375,-101.1505126953125
5.0899999000000005,10.481815338134766,-6.4164605140686035,-0.24181437492370605,53.7261962890625,61.0504150390625,-103.6834716796875
5.109999900000001,7.955932140350342,-2.832340717315674,-2.051830768585205,31.1737060546875,88.470458984375,-94.9554443359375
5.1299999000000005,5.8657941818237305,-0.5051765441894531,-3.3446998596191406,26.641845703125,114.4561767578125,-71.4569091796875
5.1499999,4.252102375030518,0.45489832758903503,-3.9432501792907715,42.3736572265625,119.293212890625,-35.797119140625
5.1699999000000005,3.1914708614349365,0.304063618183136,-3.892971992492676,63.2171630859375,115.0970458984375,-5.5999755859375
5.1899999,2.8610711097717285,-0.4884171485900879,-3.3662476539611816,76.35498046875,117.2027587890625,5.096435546875
5.209999900000001,3.2632968425750732,-1.5969325304031372,-2.518700122833252,77.7740478515625,128.2958984375,0.6866455078125
5.2299999,4.367023944854736,-2.7222073078155518,-1.7956513166427612,78.125,137.420654296875,-5.767822265625
5.249999900000001,6.016628742218018,-3.758896589279175,-1.3862427473068237,78.8726806640625,135.80322265625,-10.8184814453125
5.2699999,8.030152320861816,-4.728548526763916,-1.4676456451416016,75.592041015625,122.55859375,-18.1427001953125
5.289999900000001,10.153809547424316,-5.564124584197998,-1.9847931861877441,76.6448974609375,94.66552734375,-18.61572265625
5.3099999,12.205639839172363,-6.253654956817627,-2.7006595134735107,77.423095703125,53.28369140625,-12.7410888671875
5.329999900000001,13.91270637512207,-6.794744491577148,-3.3734302520751953,71.990966796875,9.765625,-13.6871337890625
5.3499999,14.980520248413086,-7.108384609222412,-3.689464807510376,55.23681640625,-20.32470703125,-18.096923828125
5.369999900000001,15.15769100189209,-7.201758861541748,-3.529053211212158,31.3873291015625,-31.036376953125,-21.7742919921875
5.3899999,14.281413078308105,-7.122750282287598,-2.8227639198303223,15.5181884765625,-27.9541015625,-26.3214111328125
5.409999900000001,12.528857231140137,-6.878541469573975,-1.802833914756775,19.0582275390625,-21.087646484375,-29.1595458984375
5.4299999,10.295066833496094,-6.426037311553955,-0.6775590777397156,39.306640625,-18.9056396484375,-29.9224853515625
5.449999900000001,8.109161376953125,-5.762843608856201,0.2992752194404602,57.6019287109375,-21.9879150390625,-31.7230224609375
5.4699999,6.411672115325928,-4.876988887786865,0.9648633003234863,56.060791015625,-25.1922607421875,-31.4178466796875
5.489999900000001,5.410895824432373,-3.885789394378662,1.2665326595306396,34.7137451171875,-25.1007080078125,-28.2440185546875
5.5099999,5.082890033721924,-3.0190882682800293,1.2330138683319092,13.00048828125,-20.7366943359375,-25.238037109375
5.529999900000001,5.298368453979492,-2.456450939178467,0.9648633003234863,7.8277587890625,-13.1683349609375,-18.5546875
5.5499999,5.837063789367676,-2.3247697353363037,0.5817909836769104,16.6473388671875,-5.5999755859375,-6.9580078125
5.569999900000001,6.519411087036133,-2.5522189140319824,0.22266076505184174,26.7486572265625,-0.5950927734375,4.5623779296875
5.5899999000000005,7.237671852111816,-2.999934673309326,0.05985504388809204,31.524658203125,3.387451171875,12.1917724609375
5.609999900000001,7.905653953552246,-3.5434184074401855,0.08858546614646912,31.79931640625,7.7972412109375,15.9149169921875
5.6299999000000005,8.51138687133789,-4.077325344085693,0.30885201692581177,27.16064453125,9.9945068359375,16.8304443359375
5.6499999,9.05487060546875,-4.623203277587891,0.6033388376235962,19.6380615234375,6.744384765625,14.312744140625
5.6699999000000005,9.519346237182617,-5.157110691070557,0.8475474119186401,14.58740234375,1.007080078125,9.552001953125
5.6899999,9.945513725280762,-5.65031623840332,0.9648633003234863,11.1541748046875,-3.3416748046875,4.2572021484375
5.709999900000001,10.335768699645996,-6.054935932159424,0.8762778043746948,5.645751953125,-7.5225830078125,-1.312255859375
5.7299999,10.721235275268555,-6.339846134185791,0.5650315880775452,3.8909912109375,-17.63916015625,-6.7138671875
5.749999900000001,10.984597206115723,-6.4595561027526855,0.047884032130241394,9.765625,-31.73828125,-12.6190185546875
5.7699999,11.061211585998535,-6.3949127197265625,-0.5434837937355042,13.1988525390625,-42.0379638671875,-18.8140869140625
5.789999900000001,10.831368446350098,-6.1770405769348145,-1.0342950820922852,8.4381103515625,-46.4324951171875,-25.390625
5.8099999,10.218452453613281,-5.815515995025635,-1.292868971824646,3.84521484375,-45.8984375,-29.5562744140625
5.829999900000001,9.244012832641602,-5.403713226318359,-1.2976573705673218,6.256103515625,-40.4052734375,-30.364990234375
5.8499999,8.070854187011719,-4.965574264526367,-1.1109095811843872,15.6097412109375,-28.3966064453125,-25.7110595703125
5.869999900000001,6.900089263916016,-4.563348293304443,-0.7254431247711182,29.7088623046875,-10.7269287109375,-16.6473388671875
5.8899999,5.9304375648498535,-4.24970817565918,-0.2561795711517334,44.158935546875,4.730224609375,-10.1165771484375
5.909999900000001,5.370194435119629,-4.010287761688232,0.22266076505184174,50.1251220703125,16.11328125,-3.9215087890625
5.9299999,5.279214859008789,-3.909731388092041,0.6248866319656372,49.468994140625,23.3612060546875,-0.79345703125
5.949999900000001,5.657498836517334,-3.9480385780334473,0.8643068075180054,45.1202392578125,27.069091796875,-2.166748046875
5.9699999,6.449979305267334,-4.127603530883789,0.9145850539207458,39.4287109375,28.411865234375,-4.08935546875
5.989999900000001,7.4770917892456055,-4.448426723480225,0.8259995579719543,42.54150390625,26.42822265625,-6.256103515625
6.0099999,8.552088737487793,-4.838681697845459,0.6440402865409851,50.72021484375,20.050048828125,-8.056640625
6.029999900000001,9.469067573547363,-5.197812080383301,0.40222588181495667,51.6815185546875,12.8326416015625,-9.4757080078125
6.0499999,10.093954086303711,-5.451597213745117,0.1412578970193863,42.05322265625,7.8582763671875,-12.0697021484375
6.069999900000001,10.376470565795898,-5.5760955810546875,-0.05985504388809204,26.214599609375,5.523681640625,-14.8468017578125
6.0899999000000005,10.335768699645996,-5.621585369110107,-0.181959331035614,13.2904052734375,4.1961669921875,-16.54052734375
6.109999900000001,10.036493301391602,-5.626373767852783,-0.16998831927776337,7.14111328125,2.105712890625,-15.472412109375
6.1299999000000005,9.555258750915527,-5.659893035888672,-0.07182604819536209,3.997802734375,0.7476806640625,-12.3138427734375
6.149999900000001,8.990227699279785,-5.69580602645874,0.09576806426048279,2.25830078125,0.9307861328125,-8.1329345703125
6.1699999000000005,8.451532363891602,-5.700594425201416,0.2537853717803955,-1.220703125,1.8310546875,-3.23486328125
6.1899999,8.01339340209961,-5.65031623840332,0.363918662071228,-11.199951171875,2.3651123046875,-0.2593994140625
6.209999900000001,7.706935405731201,-5.552153587341309,0.40940847992897034,-25.390625,3.570556640625,1.5411376953125
6.2299999,7.51779317855835,-5.47075080871582,0.33518823981285095,-33.7982177734375,7.99560546875,4.119873046875
6.249999900000001,7.433996200561523,-5.403713226318359,0.15801730751991272,-28.1524658203125,16.845703125,8.30078125
6.2699999,7.33583402633667,-5.355829238891602,-0.038307227194309235,-24.4140625,26.2298583984375,11.9171142578125
6.289999900000001,7.194576263427734,-5.317522048950195,-0.2298433631658554,-37.994384765625,32.9742431640625,13.397216796875
6.3099999,6.888118267059326,-5.264849662780762,-0.3519476354122162,-54.534912109375,39.703369140625,16.7236328125
6.329999900000001,6.36378812789917,-5.212177276611328,-0.38307225704193115,-64.63623046875,48.4466552734375,26.2908935546875
6.3499999,5.497087001800537,-5.169081687927246,-0.4213795065879822,-68.4814453125,59.814453125,42.633056640625
6.369999900000001,4.244919776916504,-5.073313236236572,-0.5123591423034668,-69.0765380859375,75.3631591796875,66.1163330078125
6.3899999,2.5977089405059814,-4.869806289672852,-0.667982280254364,-73.4100341796875,98.2818603515625,96.25244140625
6.409999900000001,0.6703764796257019,-4.525041103363037,-0.8906430602073669,-79.254150390625,129.21142578125,133.3160400390625
6.4299999,-1.2761094570159912,-4.039018154144287,-1.0989385843276978,-85.235595703125,166.7938232421875,176.8646240234375
6.449999900000001,-2.9903578758239746,-3.4763808250427246,-1.1779472827911377,-89.874267578125,208.49609375,224.365234375
6.4699999,-4.285621166229248,-2.9688100814819336,-1.0103530883789062,-97.137451171875,253.6468505859375,272.6593017578125
6.489999900000001,-5.16429328918457,-2.846705913543701,-0.4668693244457245,-97.59521484375,295.5169677734375,314.8345947265625
6.5099999,-5.640739440917969,-3.2321722507476807,0.5506663918495178,-77.5299072265625,325.5767822265625,355.6976318359375
6.529999900000001,-5.961562156677246,-4.218583583831787,2.1739351749420166,-50.1708984375,342.1783447265625,389.34326171875
6.5499999,-6.09324312210083,-5.746084213256836,4.431667327880859,-39.00146484375,342.9107666015625,399.505615234375
6.569999900000001,-5.825092792510986,-7.910442352294922,7.694964408874512,-57.12890625,331.8939208984375,387.1917724609375
6.5899999000000005,-4.460397720336914,-11.03248119354248,12.294225692749023,-54.4281005859375,307.9071044921875,373.84033203125
6.609999900000001,-1.3982137441635132,-15.236700057983398,17.9924259185791,40.8172607421875,255.645751953125,362.2894287109375
6.6299999000000005,3.378218650817871,-19.819202423095703,23.88694953918457,218.780517578125,136.688232421875,310.882568359375
6.649999900000001,8.971074104309082,-23.858219146728516,29.30023956298828,302.3681640625,-53.77197265625,221.37451171875
6.6699999000000005,14.460978507995605,-25.95314598083496,33.509246826171875,191.8792724609375,-261.138916015625,139.6026611328125
6.6899999,17.769765853881836,-26.60915756225586,37.160404205322266,-26.8707275390625,-430.1910400390625,8.6212158203125
6.709999900000001,17.492036819458008,-27.63627052307129,40.96479034423828,-157.40966796875,-500,-209.4879150390625
6.7299999,12.306197166442871,-30.645782470703125,44.5896110534668,3.875732421875,-500,-415.6951904296875
6.749999900000001,2.0901381969451904,-35.60417175292969,46.90959548950195,332.3516845703125,-500,-486.297607421875
6.7699999,-11.707646369934082,-40.33750915527344,46.11711502075195,470.5963134765625,-500,-425.384521484375
6.789999900000001,-26.31706428527832,-41.42208480834961,40.631996154785156,330.50537109375,-500,-329.7576904296875
6.8099999,-38.37905502319336,-37.265750885009766,31.067161560058594,111.2823486328125,-500,-272.15576171875
6.829999900000001,-45.98543167114258,-29.245174407958984,18.45929527282715,24.2919921875,-424.9267578125,-219.207763671875
6.8499999,-47.39801025390625,-18.610130310058594,5.971138954162598,98.2513427734375,-242.645263671875,-69.03076171875
6.869999900000001,-43.88092803955078,-9.131484985351562,-4.213795185089111,135.0860595703125,-85.4034423828125,27.862548828125
6.8899999,-36.02555465698242,-1.601720929145813,-10.342951774597168,58.77685546875,40.4815673828125,49.49951171875
6.909999900000001,-25.82625389099121,2.7006595134735107,-12.042834281921387,-62.4237060546875,110.687255859375,64.3463134765625
6.9299999,-14.542381286621094,3.6367924213409424,-10.201693534851074,-141.7694091796875,146.392822265625,77.0263671875
6.949999900000001,-2.580949544906616,1.9847931861877441,-6.081272125244141,-141.4794921875,154.84619140625,86.334228515625
6.9699999,8.848969459533691,-1.1444283723831177,-0.8834604024887085,-96.0540771484375,128.570556640625,68.42041015625
6.989999900000001,18.114530563354492,-4.395754337310791,4.173093795776367,-48.8128662109375,72.8759765625,25.4669189453125
7.0099999,24.12158203125,-6.890512466430664,8.221688270568848,-34.8663330078125,2.1209716796875,-12.451171875
7.029999900000001,25.64190101623535,-8.221688270568848,10.735600471496582,-55.419921875,-58.7921142578125,-31.463623046875
7.0499999,23.40092658996582,-8.422801971435547,11.511322021484375,-86.3037109375,-100.2655029296875,-39.3524169921875
7.069999900000001,18.986019134521484,-7.694964408874512,10.754754066467285,-104.644775390625,-117.6300048828125,-44.49462890625
7.0899999000000005,13.982137680053711,-6.461950302124023,8.96149730682373,-95.123291015625,-115.4937744140625,-49.31640625
7.109999900000001,6.222530364990234,-3.847482204437256,4.077325344085693,-30.029296875,-83.9691162109375,-40.7867431640625
7.1299999000000005,4.003105163574219,-2.8658595085144043,1.8195933103561401,-16.4337158203125,-59.906005859375,-37.109375
7.149999900000001,2.734178304672241,-2.10210919380188,0.07900865375995636,-18.646240234375,-34.66796875,-32.1502685546875
7.1699999000000005,2.1978771686553955,-1.5466543436050415,-0.9983820915222168,-26.0009765625,-9.185791015625,-20.8587646484375
7.1899999,2.22660756111145,-1.1875240802764893,-1.4532804489135742,-30.3192138671875,14.4500732421875,-7.110595703125
7.209999900000001,2.7246015071868896,-0.9959878921508789,-1.3982137441635132,-36.7279052734375,34.332275390625,2.166748046875
7.2299999,3.6535518169403076,-1.036689281463623,-1.0558429956436157,-41.748046875,48.3551025390625,4.608154296875
7.249999900000001,5.0254292488098145,-1.2713210582733154,-0.6177040338516235,-36.0260009765625,52.703857421875,8.270263671875
7.2699999,6.766014099121094,-1.6974890232086182,-0.16998831927776337,-24.5819091796875,47.05810546875,15.0146484375
7.289999900000001,8.724471092224121,-2.2433669567108154,0.24181437492370605,-20.7061767578125,37.841796875,15.4571533203125
7.3099999,10.647014617919922,-2.868253707885742,0.6488286852836609,-21.7742919921875,28.778076171875,4.364013671875
7.329999900000001,12.270283699035645,-3.4596214294433594,1.094150185585022,-13.61083984375,17.3797607421875,-8.9569091796875
7.3499999,13.323732376098633,-3.9671921730041504,1.525106430053711,-0.3204345703125,3.6773681640625,-16.5557861328125
7.369999900000001,13.737929344177246,-4.266467571258545,1.900996208190918,5.7373046875,-11.8408203125,-21.7742919921875
7.3899999,13.524845123291016,-4.2544965744018555,2.233790159225464,-1.861572265625,-25.3143310546875,-28.7933349609375
7.409999900000001,12.780248641967773,-3.936067581176758,2.4636335372924805,-16.2506103515625,-32.8369140625,-36.6058349609375
7.4299999,11.676521301269531,-3.4093432426452637,2.626439332962036,-24.7039794921875,-36.102294921875,-40.3900146484375
7.449999900000001,10.395624160766602,-2.851494312286377,2.6575639247894287,-23.681640625,-36.0870361328125,-37.353515625
7.4699999,9.11233139038086,-2.3582887649536133,2.5665841102600098,-19.8211669921875,-32.562255859375,-28.7933349609375
7.489999900000001,8.010998725891113,-1.9608511924743652,2.3965959548950195,-17.6849365234375,-24.96337890625,-21.148681640625
7.5099999,7.1921820640563965,-1.6735470294952393,2.1523873805999756,-15.3350830078125,-14.2974853515625,-17.4407958984375
7.529999900000001,6.703764915466309,-1.4844050407409668,1.8962076902389526,-13.3819580078125,-5.462646484375,-13.6566162109375
7.5499999,6.543353080749512,-1.4269442558288574,1.6208745241165161,-12.63427734375,1.3427734375,-8.9111328125
7.569999900000001,6.6846113204956055,-1.4748282432556152,1.3527239561080933,-10.6201171875,7.1868896484375,-4.1961669921875
7.5899999000000005,7.12035608291626,-1.6184803247451782,1.170764684677124,-7.7362060546875,12.3138427734375,-1.3427734375
7.609999900000001,7.8098859786987305,-1.800439715385437,1.0654197931289673,-4.5318603515625,17.4560546875,-0.0152587890625
7.6299999000000005,8.676587104797363,-2.0254945755004883,1.0582371950149536,-1.03759765625,20.050048828125,0.823974609375
7.649999900000001,9.615114212036133,-2.296039342880249,1.0989385843276978,3.143310546875,17.7001953125,2.0294189453125
7.6699999000000005,10.517727851867676,-2.583343744277954,1.161187767982483,7.75146484375,11.04736328125,3.47900390625
7.6899999,11.26950740814209,-2.8586769104003906,1.2258312702178955,6.53076171875,1.3885498046875,2.716064453125
7.709999900000001,11.777078628540039,-3.0621838569641113,1.290474772453308,-1.9073486328125,-9.0484619140625,-1.3275146484375
7.7299999,11.963826179504395,-3.162740468978882,1.3527239561080933,-12.26806640625,-17.63916015625,-7.38525390625
7.749999900000001,11.774683952331543,-3.1938650608062744,1.41257905960083,-18.3868408203125,-23.590087890625,-13.7176513671875
7.7699999,11.228805541992188,-3.181894063949585,1.4652514457702637,-17.5323486328125,-26.7791748046875,-16.6168212890625
7.789999900000001,10.429142951965332,-3.1244332790374756,1.5107412338256836,-10.9710693359375,-27.2369384765625,-14.6636962890625
7.8099999,9.531316757202148,-3.0119056701660156,1.5322890281677246,-3.8909912109375,-24.0020751953125,-12.0697021484375
7.829999900000001,8.683769226074219,-2.8443117141723633,1.522712230682373,-1.3580322265625,-18.4326171875,-10.5438232421875
7.8499999,8.034940719604492,-2.647987127304077,1.4676456451416016,-1.3275146484375,-12.4359130859375,-7.904052734375
7.869999900000001,7.6566572189331055,-2.47560453414917,1.3958195447921753,-2.4566650390625,-6.805419921875,-3.8909912109375
7.8899999,7.534552574157715,-2.4181437492370605,1.2976573705673218,-3.5858154296875,-1.4190673828125,-0.823974609375
7.909999900000001,7.65186882019043,-2.4636335372924805,1.2306196689605713,-3.7384033203125,3.1890869140625,2.5177001953125
7.9299999,7.8745293617248535,-2.650381326675415,1.192312479019165,-3.4942626953125,6.3018798828125,4.638671875
7.949999900000001,8.149862289428711,-2.9089550971984863,1.1779472827911377,-4.8675537109375,7.8277587890625,4.69970703125
7.9699999,8.44434928894043,-3.201047658920288,1.2306196689605713,-9.6435546875,9.4451904296875,3.0364990234375
7.989999900000001,8.765172004699707,-3.4763808250427246,1.2832920551300049,-11.41357421875,12.3138427734375,0.54931640625
8.0099999,9.14345645904541,-3.6727054119110107,1.3215993642807007,-7.4462890625,14.2822265625,-0.9307861328125
8.0299999,9.519346237182617,-3.773261785507202,1.290474772453308,-3.4637451171875,12.6190185546875,-1.3885498046875
8.049999900000001,9.828198432922363,-3.7684733867645264,1.1444283723831177,-4.08935546875,8.4381103515625,-2.288818359375
8.069999900000001,10.019734382629395,-3.646369218826294,0.9481038451194763,-11.23046875,3.997802734375,-4.150390625
8.0899999,10.065223693847656,-3.4524388313293457,0.751779317855835,-23.345947265625,2.6702880859375,-6.011962890625
8.1099999,9.962273597717285,-3.2178070545196533,0.6177040338516235,-31.585693359375,3.936767578125,-7.232666015625
8.129999900000001,9.751583099365234,-2.9735984802246094,0.5770025849342346,-30.0140380859375,4.1656494140625,-6.65283203125
8.149999900000001,9.47146224975586,-2.7293899059295654,0.6153098344802856,-23.4375,2.410888671875,-3.936767578125
8.1699999,9.186552047729492,-2.4875755310058594,0.6991068720817566,-16.9830322265625,0.457763671875,-0.48828125
8.1899999,8.999804496765137,-2.233790159225464,0.8355764150619507,-13.946533203125,0.0152587890625,2.2430419921875
8.2099999,8.935160636901855,-2.011129379272461,0.9457096457481384,-12.969970703125,1.7242431640625,2.8533935546875
8.229999900000001,8.983044624328613,-1.8555063009262085,1.015141487121582,-10.07080078125,3.6468505859375,2.8533935546875
8.2499999,9.11233139038086,-1.800439715385437,1.0199298858642578,-6.8359375,4.302978515625,4.638671875
8.2699999,9.244012832641602,-1.8579005002975464,0.9696516990661621,-3.4942626953125,5.096435546875,7.8277587890625
8.2899999,9.349357604980469,-1.9919757843017578,0.8978256583213806,0.1220703125,6.7291259765625,11.71875
8.309999900000001,9.399636268615723,-2.185906171798706,0.8571242094039917,1.3275146484375,8.5296630859375,14.984130859375
8.3299999,9.385271072387695,-2.4013843536376953,0.8643068075180054,-1.1749267578125,10.009765625,18.12744140625
8.3499999,9.287108421325684,-2.6575639247894287,0.9169792532920837,-6.1798095703125,10.8795166015625,20.32470703125
8.3699999,9.11233139038086,-2.9257144927978516,1.0079588890075684,-11.3525390625,11.3525390625,21.0418701171875
8.389999900000001,8.899248123168945,-3.2154128551483154,1.1204863786697388,-17.059326171875,11.8408203125,21.1181640625
8.4099999,8.671798706054688,-3.514688014984131,1.2473790645599365,-20.782470703125,13.031005859375,22.4456787109375
8.4299999,8.461109161376953,-3.7900211811065674,1.3551181554794312,-19.59228515625,13.85498046875,25.3753662109375
8.4499999,8.26239013671875,-3.9911341667175293,1.403002142906189,-17.5628662109375,13.092041015625,29.9530029296875
8.469999900000001,8.078036308288574,-4.019864559173584,1.3239935636520386,-19.04296875,9.8876953125,36.407470703125
8.4899999,7.94635534286499,-3.8594532012939453,1.0893617868423462,-23.193359375,3.3416748046875,43.8079833984375
8.5099999,7.948749542236328,-3.4763808250427246,0.7230489253997803,-32.8826904296875,-2.2430419921875,56.5643310546875
8.5299999,8.061277389526367,-3.023876667022705,0.2298433631658554,-47.42431640625,-4.974365234375,75.286865234375
8.549999900000001,8.358158111572266,-2.6001031398773193,-0.35913026332855225,-69.122314453125,-7.781982421875,101.104736328125
8.569999900000001,8.688557624816895,-2.360682964324951,-1.0606313943862915,-97.0306396484375,-15.80810546875,129.913330078125
8.5899999,9.124302864074707,-2.343923568725586,-1.889025092124939,-121.8719482421875,-29.388427734375,160.2020263671875
8.6099999,9.928754806518555,-2.410961151123047,-2.8658595085144043,-149.0325927734375,-45.501708984375,193.4814453125
8.629999900000001,11.791443824768066,-2.248155355453491,-3.995922565460205,-190.399169921875,-65.2618408203125,226.0589599609375
8.649999900000001,15.832856178283691,-1.3311761617660522,-5.216965675354004,-262.847900390625,-89.5843505859375,255.9814453125
8.6699999,22.349872589111328,0.5339069962501526,-6.138733386993408,-367.3248291015625,-123.016357421875,269.866943359375
8.6899999,29.88681983947754,2.8586769104003906,-6.234501361846924,-469.4061279296875,-148.7884521484375,262.5885009765625
8.709999900000001,35.776554107666016,4.7189717292785645,-5.22175407409668,-500,-159.7442626953125,278.3355712890625
8.729999900000001,35.886688232421875,4.8051629066467285,-3.6176388263702393,-500,-176.9561767578125,326.6448974609375
8.7499999,26.79590606689453,2.889801502227783,-2.425326347351074,-500,-210.540771484375,357.3150634765625
8.7699999,6.998251438140869,-1.5083470344543457,-3.5721490383148193,-500,-244.0185546875,382.598876953125
8.7899999,-14.894329071044922,-5.037400245666504,-4.802768707275391,-500,-186.553955078125,382.6141357421875
8.809999900000001,-34.88351821899414,-7.311892032623291,-4.702212333679199,-438.4918212890625,76.72119140625,139.0228271484375
8.8299999,-45.64066696166992,-8.556877136230469,-3.8331170082092285,-43.0908203125,250.3204345703125,-172.8973388671875
8.8499999,-47.12507247924805,-8.621520042419434,-2.434903144836426,499.9847412109375,171.966552734375,-264.190673828125
8.8699999,-41.51066970825195,-6.789956092834473,-2.892195701599121,499.9847412109375,37.841796875,-145.9503173828125
8.889999900000001,-32.786197662353516,-4.525041103363037,-5.827486991882324,499.9847412109375,-24.6734619140625,-111.8011474609375
8.9099999,-21.820755004882812,-1.1061211824417114,-9.59835433959961,211.029052734375,12.75634765625,-204.132080078125
8.9299999,-10.000580787658691,1.6280571222305298,-12.126631736755371,-75.531005859375,74.310302734375,-211.6241455078125
8.9499999,0.706289529800415,1.1276689767837524,-12.808979034423828,-87.3870849609375,105.865478515625,-175.0640869140625
8.969999900000001,9.114726066589355,-2.056619167327881,-12.081141471862793,83.9080810546875,137.8173828125,-123.382568359375
8.9899999,14.662091255187988,-6.129156112670898,-10.431536674499512,296.7681884765625,163.7115478515625,-77.850341796875
9.0099999,17.367538452148438,-9.251194953918457,-8.597578048706055,416.1834716796875,159.576416015625,-72.7996826171875
9.0299999,17.824831008911133,-10.259154319763184,-7.271190643310547,404.022216796875,137.5579833984375,-104.7821044921875
9.049999900000001,16.70913314819336,-9.129091262817383,-6.382941722869873,316.619873046875,124.57275390625,-141.41845703125
9.069999900000001,14.745888710021973,-6.734889507293701,-5.78678560256958,215.972900390625,123.22998046875,-167.9229736328125
9.0899999,12.63899040222168,-4.343081951141357,-5.173870086669922,142.2576904296875,120.574951171875,-184.8602294921875
9.1099999,10.821791648864746,-2.513911724090576,-4.458003520965576,112.579345703125,109.92431640625,-180.2978515625
9.129999900000001,9.500192642211914,-1.7597382068634033,-3.576937437057495,113.555908203125,99.945068359375,-167.2515869140625
9.149999900000001,8.56645393371582,-1.8171991109848022,-2.7437551021575928,124.542236328125,90.7135009765625,-152.099609375
9.1699999,8.003816604614258,-2.360682964324951,-1.886630892753601,131.9580078125,75.6378173828125,-129.3182373046875
9.1899999,7.711723804473877,-2.920926094055176,-1.2282254695892334,131.8511962890625,55.96923828125,-105.316162109375
9.209999900000001,7.668628215789795,-3.292027235031128,-0.768538773059845,118.4539794921875,35.980224609375,-91.3848876953125
9.229999900000001,7.819462776184082,-3.287238836288452,-0.5027823448181152,89.35546875,16.78466796875,-78.9794921875
9.2499999,8.135497093200684,-3.0310592651367188,-0.35673606395721436,50.323486328125,1.220703125,-60.516357421875
9.2699999,8.592789649963379,-2.7293899059295654,-0.26575639843940735,17.181396484375,-7.9498291015625,-46.9207763671875
9.2899999,9.150638580322266,-2.557007312774658,-0.08619125932455063,0.762939453125,-10.7879638671875,-39.6270751953125
9.309999900000001,9.708487510681152,-2.5498247146606445,0.17238251864910126,1.434326171875,-9.9945068359375,-32.623291015625
9.3299999,10.14902114868164,-2.693476915359497,0.5267243981361389,15.472412109375,-9.09423828125,-27.1453857421875
9.3499999,10.38844108581543,-2.8227639198303223,0.871489405632019,27.191162109375,-8.36181640625,-23.651123046875
9.3699999,10.414777755737305,-2.82515811920166,1.1563993692398071,24.078369140625,-8.48388671875,-21.1944580078125
9.389999900000001,10.280701637268066,-2.6623523235321045,1.3048399686813354,9.9945068359375,-9.521484375,-19.34814453125
9.4099999,10.079588890075684,-2.3726539611816406,1.3670891523361206,-5.55419921875,-8.6212158203125,-17.2271728515625
9.4299999,9.84256362915039,-2.0590133666992188,1.3455413579940796,-16.6778564453125,-3.5858154296875,-12.8631591796875
9.4499999,9.583989143371582,-1.8411411046981812,1.3215993642807007,-20.3857421875,1.1138916015625,-9.8876953125
9.469999900000001,9.334992408752441,-1.745373010635376,1.316810965538025,-17.2119140625,2.410888671875,-8.60595703125
9.4899999,9.107542991638184,-1.800439715385437,1.4101848602294922,-9.735107421875,2.9296875,-10.7269287109375
9.5099999,8.939949035644531,-1.9608511924743652,1.534683346748352,-2.777099609375,6.7901611328125,-14.3280029296875
9.5299999,8.83939266204834,-2.1547815799713135,1.659181833267212,-2.410888671875,13.24462890625,-16.3116455078125
9.549999900000001,8.829815864562988,-2.31758713722229,1.6927006244659424,-6.6070556640625,17.1966552734375,-17.6544189453125
9.569999900000001,8.927978515625,-2.4133553504943848,1.6304513216018677,-5.9051513671875,16.5252685546875,-20.2789306640625
9.5899999,9.174580574035645,-2.4827871322631836,1.4652514457702637,3.0975341796875,13.48876953125,-22.7508544921875
9.6099999,9.521739959716797,-2.5330653190612793,1.2186486721038818,12.5274658203125,9.46044921875,-21.209716796875
9.629999900000001,9.871294021606445,-2.537853717803955,0.9313444495201111,15.838623046875,4.150390625,-17.486572265625
9.649999900000001,10.129867553710938,-2.499546527862549,0.6200982332229614,14.3280029296875,-1.5411376953125,-17.3187255859375
9.6699999,10.201693534851074,-2.408566951751709,0.3016694188117981,9.4757080078125,-4.4403076171875,-19.4244384765625
9.6899999,10.096348762512207,-2.300827741622925,0.08140286058187485,2.74658203125,-5.2642822265625,-18.5089111328125
9.709999900000001,9.859322547912598,-2.2601263523101807,-0.009576806798577309,-3.5400390625,-5.279541015625,-14.5721435546875
9.729999900000001,9.543288230895996,-2.298433542251587,0.031124621629714966,-2.38037109375,-5.2337646484375,-10.1470947265625
9.7499999,9.23682975769043,-2.38462495803833,0.19393034279346466,5.157470703125,-5.1422119140625,-5.096435546875
9.7699999,8.999804496765137,-2.454056739807129,0.45250412821769714,13.6260986328125,-5.0506591796875,-0.274658203125
9.7899999,8.858546257019043,-2.4827871322631836,0.689530074596405,19.2718505859375,-4.39453125,2.9754638671875
9.809999900000001,8.834604263305664,-2.4181437492370605,0.871489405632019,19.7906494140625,-3.8604736328125,4.8675537109375
9.8299999,8.901641845703125,-2.2912509441375732,0.9576807022094727,14.678955078125,-4.0130615234375,5.6915283203125
9.8499999,9.016563415527344,-2.1595699787139893,0.9385270476341248,9.3536376953125,-3.875732421875,4.974365234375
9.8699999,9.131484985351562,-2.0901381969451904,0.8212111592292786,6.622314453125,-3.021240234375,5.1727294921875
9.889999900000001,9.188945770263672,-2.1308395862579346,0.646434485912323,6.591796875,-1.9989013671875,8.0718994140625
9.9099999,9.215282440185547,-2.319981336593628,0.49320554733276367,10.162353515625,-0.7171630859375,12.115478515625
9.9299999,9.239224433898926,-2.6168625354766846,0.42377370595932007,15.594482421875,2.74658203125,16.7236328125
9.9499999,9.289502143859863,-2.911349296569824,0.4836287498474121,20.965576171875,7.3699951171875,20.6756591796875
9.969999900000001,9.375694274902344,-3.1699230670928955,0.6967126727104187,22.9949951171875,9.9639892578125,19.561767578125
9.9899999,9.423578262329102,-3.313575267791748,0.9624691009521484,21.759033203125,11.04736328125,15.6097412109375
10.0099999,9.409213066101074,-3.354276657104492,1.2401964664459229,20.6146240234375,10.3759765625,12.3443603515625
10.0299999,9.32541561126709,-3.3255462646484375,1.4867992401123047,17.15087890625,7.75146484375,11.260986328125
10.049999900000001,9.196128845214844,-3.2417490482330322,1.6424223184585571,11.90185546875,5.55419921875,12.0697021484375
10.069999900000001,9.050082206726074,-3.138798475265503,1.6927006244659424,5.5694580078125,4.08935546875,13.3514404296875
10.0899999,8.901641845703125,-3.0358476638793945,1.6136919260025024,-3.7078857421875,4.4403076171875,15.167236328125
10.1099999,8.719682693481445,-2.9281086921691895,1.4101848602294922,-15.167236328125,6.2103271484375,19.012451171875
10.129999900000001,8.427590370178223,-2.8395233154296875,1.1252747774124146,-24.0020751953125,8.5601806640625,25.390625
10.149999900000001,7.903259754180908,-2.827552318572998,0.7733271718025208,-22.5677490234375,9.0179443359375,39.703369140625
10.1699999,7.096413612365723,-2.8610711097717285,0.3423708379268646,-1.89208984375,6.195068359375,70.73974609375
10.1899999,6.01423454284668,-2.889801502227783,-0.14844051003456116,27.9998779296875,5.1422119140625,114.501953125
10.209999900000001,4.786009311676025,-2.9041666984558105,-0.7733271718025208,38.177490234375,12.969970703125,160.3240966796875
10.229999900000001,3.536235809326172,-2.7964274883270264,-1.5753847360610962,12.8326416015625,33.3099365234375,206.695556640625
10.2499999,2.296039342880249,-2.7030537128448486,-2.516305923461914,-46.93603515625,59.9517822265625,244.659423828125
10.2699999,1.0319008827209473,-2.894589900970459,-3.5386300086975098,-124.114990234375,84.7930908203125,268.310546875
10.2899999,-0.33279404044151306,-3.8522706031799316,-4.532223701477051,-180.8929443359375,100.0518798828125,288.3758544921875
10.309999900000001,-1.7310078144073486,-5.7772088050842285,-5.360617637634277,-194.427490234375,107.4676513671875,326.59912109375
10.3299999,-2.9281086921691895,-8.7484130859375,-5.942408561706543,-176.1474609375,114.593505859375,370.880126953125
10.3499999,-3.5194764137268066,-12.519280433654785,-6.323086738586426,-167.7703857421875,132.14111328125,389.923095703125
10.3699999,-3.1196448802948,-16.723499298095703,-6.45476770401001,-187.469482421875,152.6031494140625,376.15966796875
10.389999900000001,-1.4484920501708984,-21.356279373168945,-6.428431510925293,-227.7069091796875,168.1365966796875,332.366943359375
10.4099999,1.922544002532959,-26.161441802978516,-6.165069580078125,-269.7601318359375,171.0968017578125,265.31982421875
10.4299999,7.017405033111572,-31.376012802124023,-5.240907669067383,-319.8699951171875,170.1202392578125,182.4798583984375
10.4499999,14.015656471252441,-36.420597076416016,-3.248931646347046,-356.0333251953125,165.985107421875,94.5892333984375
10.469999900000001,22.17270278930664,-40.435672760009766,0.49559974670410156,-344.0399169921875,120.17822265625,-23.5748291015625
10.4899999,29.496564865112305,-43.25843811035156,6.593631267547607,-289.85595703125,3.387451171875,-203.4149169921875
10.5099999,33.583465576171875,-44.18020248413086,14.45619010925293,-270.355224609375,-133.6669921875,-384.7503662109375
10.5299999,32.37200164794922,-43.84022903442383,22.986730575561523,-320.465087890625,-239.471435546875,-500
10.549999900000001,25.119964599609375,-42.638336181640625,30.166940689086914,-330.2154541015625,-331.1004638671875,-500
10.569999900000001,12.926295280456543,-40.33272171020508,34.13174057006836,-280.45654296875,-402.8167724609375,-500
10.5899999,-2.9520506858825684,-36.916194915771484,33.72233200073242,-258.087158203125,-388.7481689453125,-500
10.6099999,-20.333955764770508,-30.98575782775879,29.338546752929688,-203.826904296875,-266.1285400390625,-433.2275390625
10.629999900000001,-35.55628967285156,-22.54619789123535,22.139183044433594,-78.67431640625,-73.394775390625,-291.0919189453125
10.649999900000001,-47.28308868408203,-13.42668342590332,13.134590148925781,69.7174072265625,113.006591796875,-257.1868896484375
10.6699999,-52.26542282104492,-4.311957359313965,3.8115692138671875,243.4539794921875,193.0999755859375,-181.1065673828125
10.6899999,-50.67327880859375,2.3104045391082764,-5.1116204261779785,365.29541015625,163.4063720703125,-79.3609619140625
10.709999900000001,-43.26082992553711,5.896918773651123,-12.45703125,360.7635498046875,113.037109375,-5.37109375
10.729999900000001,-31.77584457397461,6.658275127410889,-17.417818069458008,265.533447265625,98.4649658203125,55.908203125
10.7499999,-18.432958602905273,4.845864295959473,-19.37148666381836,138.824462890625,114.013671875,94.8486328125
10.7699999,-5.547365188598633,0.8331822156906128,-18.52393913269043,60.4248046875,130.767822265625,112.85400390625
10.7899999,4.972756862640381,-4.446032524108887,-15.631742477416992,76.995849609375,132.8125,118.7286376953125
10.809999900000001,11.93509578704834,-9.77791976928711,-11.638214111328125,142.7764892578125,126.129150390625,91.400146484375
10.8299999,15.3731689453125,-13.94861888885498,-7.5848307609558105,169.921875,125.0152587890625,16.845703125
10.8499999,15.799337387084961,-16.16086196899414,-4.235342979431152,142.0440673828125,128.8909912109375,-72.0977783203125
10.8699999,14.180856704711914,-16.10340118408203,-2.1332337856292725,105.865478515625,134.0179443359375,-124.51171875
10.889999900000001,11.57357120513916,-14.235923767089844,-1.2018892765045166,83.8470458984375,134.368896484375,-140.7012939453125
10.9099999,8.841787338256836,-11.343728065490723,-1.192312479019165,78.55224609375,131.3018798828125,-149.871826171875
10.9299999,6.610390663146973,-8.20492935180664,-1.6112977266311646,81.1767578125,138.0462646484375,-158.8134765625
10.9499999,5.092466831207275,-5.614402770996094,-2.1380221843719482,78.155517578125,151.5045166015625,-156.219482421875
10.969999900000001,4.299986362457275,-3.9025487899780273,-2.612074136734009,69.1986083984375,156.219482421875,-130.7525634765625
10.9899999,4.065354347229004,-3.069366693496704,-2.868253707885742,62.835693359375,145.5078125,-101.3641357421875
11.0099999,4.323928356170654,-2.8131868839263916,-2.896984100341797,64.3157958984375,130.4168701171875,-89.569091796875
11.0299999,4.932055473327637,-2.8419175148010254,-2.6791117191314697,62.5,120.4833984375,-85.8917236328125
11.049999900000001,5.853823184967041,-2.9233202934265137,-2.2361843585968018,49.74365234375,115.3411865234375,-77.4078369140625
11.069999900000001,6.916848659515381,-3.050212860107422,-1.7142484188079834,33.0352783203125,111.63330078125,-68.450927734375
11.0899999,7.9631147384643555,-3.2178070545196533,-1.280897855758667,25.4669189453125,104.7821044921875,-60.5010986328125
11.1099999,8.96389102935791,-3.378218650817871,-0.9576807022094727,28.4576416015625,90.9881591796875,-49.835205078125
11.129999900000001,9.799467086791992,-3.5242648124694824,-0.8427590131759644,24.261474609375,72.235107421875,-39.4287109375
11.149999900000001,10.496180534362793,-3.6511576175689697,-0.9169792532920837,11.0015869140625,53.741455078125,-34.2864990234375
11.1699999,11.049241065979004,-3.6990416049957275,-1.1085153818130493,-0.335693359375,37.0941162109375,-29.510498046875
11.1899999,11.341333389282227,-3.7660791873931885,-1.3024457693099976,-5.706787109375,24.0936279296875,-20.660400390625
11.209999900000001,11.36048698425293,-3.8498764038085938,-1.381454348564148,-8.11767578125,15.56396484375,-7.2021484375
11.229999900000001,11.015722274780273,-4.019864559173584,-1.2976573705673218,-7.293701171875,9.979248046875,6.6680908203125
11.2499999,10.493785858154297,-4.216189384460449,-1.139639973640442,7.7667236328125,6.6986083984375,16.6473388671875
11.2699999,9.837775230407715,-4.299986362457275,-0.667982280254364,30.4718017578125,-0.9002685546875,20.8892822265625
11.2899999,9.423578262329102,-4.220977783203125,-0.08140286058187485,22.2015380859375,-10.833740234375,17.8070068359375
11.309999900000001,9.263166427612305,-3.9839515686035156,0.7445967197418213,-2.899169921875,-12.8936767578125,8.11767578125
11.3299999,9.38048267364502,-3.6750996112823486,1.625662922859192,-20.904541015625,-10.6353759765625,-0.2593994140625
11.3499999,9.619902610778809,-3.471592426300049,2.343923568725586,-23.74267578125,-7.62939453125,-5.615234375
11.3699999,9.823410034179688,-3.406949043273926,2.808398485183716,-12.20703125,-4.8370361328125,-7.9803466796875
11.389999900000001,9.840168952941895,-3.471592426300049,2.935291290283203,6.3323974609375,-1.556396484375,-8.5601806640625
11.4099999,9.603142738342285,-3.584120035171509,2.782062292098999,23.92578125,0.5645751953125,-6.500244140625
11.4299999,9.133879661560059,-3.663128614425659,2.3367409706115723,29.1290283203125,1.0833740234375,-2.0904541015625
11.4499999,8.640673637390137,-3.6511576175689697,1.7118542194366455,22.7813720703125,5.096435546875,1.5716552734375
11.469999900000001,8.166622161865234,-3.5697548389434814,1.1180921792984009,8.2550048828125,9.5367431640625,2.7618408203125
11.4899999,7.908048152923584,-3.4979286193847656,0.7182605266571045,-10.4522705078125,9.94873046875,1.2054443359375
11.5099999,7.848193168640137,-3.5386300086975098,0.6823474764823914,-16.2811279296875,6.8359375,-0.1983642578125
11.5299999,7.931990146636963,-3.7852327823638916,0.9481038451194763,-8.0108642578125,3.204345703125,0.457763671875
11.549999900000001,8.13789176940918,-4.156333923339844,1.2617442607879639,10.223388671875,5.157470703125,4.150390625
11.569999900000001,8.382100105285645,-4.505887508392334,1.381454348564148,23.9105224609375,11.90185546875,7.99560546875
11.5899999,8.561665534973145,-4.7189717292785645,1.1875240802764893,16.845703125,16.876220703125,9.185791015625
11.6099999,8.638279914855957,-4.817133903503418,0.7541735172271729,-4.3792724609375,19.04296875,8.48388671875
11.629999900000001,8.530540466308594,-4.896142482757568,0.24181437492370605,-18.0511474609375,20.69091796875,9.2926025390625
11.649999900000001,8.2312650680542,-5.0876784324646,-0.15322890877723694,-23.162841796875,23.8037109375,13.0157470703125
11.6699999,7.718906402587891,-5.403713226318359,-0.4189853072166443,-32.3638916015625,30.059814453125,18.6767578125
11.6899999,6.955155849456787,-5.705382823944092,-0.6200982332229614,-46.0968017578125,40.6646728515625,26.031494140625
11.709999900000001,5.808333396911621,-5.839457988739014,-0.8786720037460327,-59.3109130859375,58.77685546875,35.7513427734375
11.729999900000001,4.132391929626465,-5.702988624572754,-1.278503656387329,-69.51904296875,85.723876953125,56.121826171875
11.7499999,2.027888774871826,-5.236119270324707,-1.7357962131500244,-70.73974609375,119.7509765625,98.5870361328125
11.7699999,-0.38546648621559143,-4.364629745483398,-2.2026655673980713,-64.1937255859375,159.24072265625,159.271240234375
11.7899999,-2.782062292098999,-3.1938650608062744,-2.5043349266052246,-63.4765625,200.5157470703125,215.88134765625
11.809999900000001,-4.8482584953308105,-1.9057846069335938,-2.3942017555236816,-69.6868896484375,243.408203125,266.1285400390625
11.8299999,-6.495469093322754,-0.9026140570640564,-1.867477297782898,-72.845458984375,289.1845703125,324.76806640625
11.8499999,-7.73087739944458,-0.545877993106842,-0.6703764796257019,-63.65966796875,329.925537109375,390.9759521484375
11.8699999,-8.69334602355957,-1.1755530834197998,1.2306196689605713,-51.422119140625,350.3265380859375,444.580078125
11.889999900000001,-9.32541561126709,-3.0861260890960693,4.537012100219727,-36.0870361328125,339.8284912109375,463.470458984375
11.9099999,-9.191340446472168,-6.291962146759033,9.830592155456543,21.6827392578125,313.4002685546875,448.486328125
11.9299999,-7.65186882019043,-10.333374977111816,16.879121780395508,136.688232421875,285.94970703125,408.9202880859375
11.9499999,-3.5865142345428467,-14.470555305480957,25.02180290222168,258.880615234375,222.3358154296875,343.963623046875
11.969999900000001,2.9903578758239746,-18.262969970703125,32.63057327270508,308.6395263671875,71.1822509765625,279.47998046875
11.9899999,10.314221382141113,-20.623653411865234,38.02949905395508,256.2103271484375,-163.1622314453125,260.1470947265625
12.0099999,16.82884407043457,-22.60605239868164,41.841068267822266,16.082763671875,-402.5115966796875,194.0765380859375
12.0299999,19.405004501342773,-25.548526763916016,44.613555908203125,-197.9217529296875,-500,-17.486572265625
12.049999900000001,16.622941970825195,-30.224401473999023,47.407588958740234,-61.7523193359375,-500,-285.8428955078125
12.069999900000001,8.063671112060547,-36.004005432128906,49.9885368347168,301.300048828125,-500,-430.511474609375
12.0899999,-5.571307182312012,-40.869022369384766,51.006072998046875,444.915771484375,-500,-415.8172607421875
12.1099999,-21.562179565429688,-41.79318618774414,48.00613784790039,289.886474609375,-500,-327.606201171875
12.129999900000001,-36.18596267700195,-37.323211669921875,40.509891510009766,78.2012939453125,-500,-268.2342529296875
12.149999900000001,-46.75636672973633,-29.549238204956055,28.596345901489258,7.8125,-478.1646728515625,-225.189208984375
12.1699999,-50.12022018432617,-18.677167892456055,14.85123348236084,112.1368408203125,-326.35498046875,-58.4564208984375
12.1899999,-47.66376876831055,-8.604761123657227,2.054224967956543,113.2354736328125,-190.4144287109375,58.7005615234375
12.209999900000001,-39.97119903564453,-0.3016694188117981,-7.249642848968506,-20.0042724609375,-80.291748046875,67.7490234375
12.229999900000001,-29.53726577758789,4.965574264526367,-11.868058204650879,-134.09423828125,-20.6756591796875,82.2601318359375
12.2499999,-18.16241455078125,6.2847795486450195,-12.20803451538086,-177.0782470703125,3.7384033203125,84.53369140625
12.2699999,-6.8809356689453125,4.707000732421875,-9.5408935546875,-164.8406982421875,14.6484375,88.7908935546875
12.289999900000002,3.531447410583496,1.455674648284912,-5.468356609344482,-138.9007568359375,18.1884765625,78.5369873046875
12.309999900000001,12.06198787689209,-1.8507179021835327,-1.1899182796478271,-132.0953369140625,16.5252685546875,50.079345703125
12.3299999,18.069040298461914,-4.438849925994873,2.365471363067627,-142.974853515625,10.5743408203125,14.9078369140625
12.3499999,21.114465713500977,-6.042964935302734,4.903325080871582,-134.674072265625,-3.4027099609375,-7.2021484375
12.3699999,21.26529884338379,-6.66785192489624,6.165069580078125,-93.2159423828125,-21.5606689453125,-12.8173828125
12.389999900000001,19.306842803955078,-6.449979305267334,6.208165168762207,-66.95556640625,-41.0003662109375,-16.54052734375
12.4099999,16.302120208740234,-5.518634796142578,5.238513469696045,-100.03662109375,-48.8128662109375,-28.62548828125
12.4299999,13.046005249023438,-4.182670593261719,3.691859006881714,-154.9530029296875,-41.1529541015625,-45.0592041015625
12.4499999,9.974244117736816,-2.8802247047424316,2.049436569213867,-173.2940673828125,-22.735595703125,-52.0172119140625
12.469999900000001,7.405265808105469,-2.0159177780151367,0.7613561153411865,-145.904541015625,0.8697509765625,-42.2821044921875
12.4899999,5.415684223175049,-1.6160861253738403,0.038307227194309235,-79.9102783203125,22.9949951171875,-19.683837890625
12.5099999,4.132391929626465,-1.5969325304031372,-0.16519992053508759,-6.2408447265625,42.5872802734375,4.8370361328125
12.5299999,3.550601005554199,-1.7405846118927002,-0.07900865375995636,37.8265380859375,57.373046875,23.3154296875
12.549999900000001,3.6942532062530518,-1.8602946996688843,0.0694318488240242,39.337158203125,65.582275390625,35.3240966796875
12.569999900000001,4.446032524108887,-1.9991583824157715,0.07422025501728058,11.5966796875,65.0482177734375,36.7279052734375
12.5899999,5.726930618286133,-2.207453966140747,-0.009576806798577309,-21.148681640625,53.436279296875,29.205322265625
12.6099999,7.445967197418213,-2.6144683361053467,-0.05506663769483566,-47.8515625,38.8336181640625,15.9149169921875
12.629999900000001,9.397241592407227,-3.2561142444610596,0.031124621629714966,-52.4139404296875,26.947021484375,1.373291015625
12.649999900000001,11.310209274291992,-4.091690540313721,0.3280056416988373,-33.0963134765625,15.4266357421875,-6.8206787109375
12.6699999,12.85207462310791,-4.922478675842285,0.7086837291717529,-2.0751953125,0.8087158203125,-8.30078125
12.6899999,13.747506141662598,-5.513846397399902,1.0989385843276978,16.754150390625,-12.6953125,-10.2081298828125
12.709999900000001,13.886369705200195,-5.70777702331543,1.400607943534851,8.6212158203125,-21.1944580078125,-16.998291015625
12.729999900000001,13.273454666137695,-5.475539207458496,1.558625340461731,-17.0745849609375,-25.7720947265625,-25.5126953125
12.7499999,12.045228958129883,-4.929661273956299,1.5897499322891235,-39.6881103515625,-30.670166015625,-31.0516357421875
12.7699999,10.465055465698242,-4.235342979431152,1.5322890281677246,-46.3409423828125,-33.4320068359375,-30.7769775390625
12.789999900000002,8.856152534484863,-3.5242648124694824,1.479616641998291,-41.4276123046875,-30.2276611328125,-25.4364013671875
12.809999900000001,7.508216381072998,-2.87064790725708,1.5131354331970215,-32.073974609375,-21.4996337890625,-18.00537109375
12.8299999,6.6391215324401855,-2.298433542251587,1.6352397203445435,-22.369384765625,-11.77978515625,-11.2457275390625
12.8499999,6.289567947387695,-1.8363527059555054,1.7836803197860718,-19.622802734375,-3.3721923828125,-6.4849853515625
12.8699999,6.430825710296631,-1.5442601442337036,1.920149803161621,-28.564453125,2.99072265625,-3.7841796875
12.889999900000001,6.904877662658691,-1.4772224426269531,2.006340980529785,-37.6129150390625,7.0037841796875,-0.3814697265625
12.9099999,7.5848307609558105,-1.6903064250946045,2.032677173614502,-38.51318359375,8.758544921875,5.706787109375
12.9299999,8.329427719116211,-2.207453966140747,2.0254945755004883,-31.158447265625,8.36181640625,12.1917724609375
12.9499999,9.023746490478516,-2.9233202934265137,1.920149803161621,-9.58251953125,6.317138671875,18.6309814453125
12.969999900000001,9.576807022094727,-3.648763418197632,1.7334020137786865,22.7508544921875,1.9378662109375,22.9339599609375
12.9899999,9.971850395202637,-4.242525577545166,1.4772224426269531,49.31640625,-3.35693359375,21.78955078125
13.0099999,10.18493366241455,-4.565742492675781,1.2114660739898682,54.0771484375,-6.1492919921875,17.9290771484375
13.0299999,10.256759643554688,-4.627991676330566,0.9959878921508789,36.56005859375,-5.3863525390625,12.481689453125
13.049999900000001,10.156203269958496,-4.484339714050293,0.9074024558067322,8.8958740234375,-3.4637451171875,5.157470703125
13.069999900000001,9.911994934082031,-4.2760443687438965,0.9433154463768005,-17.39501953125,-3.0670166015625,-3.509521484375
13.0899999,9.526528358459473,-4.07014274597168,1.0821791887283325,-31.2957763671875,-4.4403076171875,-8.4991455078125
13.1099999,9.07641887664795,-3.9193081855773926,1.2880805730819702,-29.1748046875,-5.8135986328125,-7.9345703125
13.129999900000001,8.664615631103516,-3.8331170082092285,1.4915876388549805,-19.805908203125,-4.6234130859375,-3.8604736328125
13.149999900000001,8.35097599029541,-3.7708675861358643,1.6208745241165161,-11.199951171875,-1.3427734375,0.67138671875
13.1699999,8.166622161865234,-3.670311212539673,1.6112977266311646,-8.026123046875,1.15966796875,4.8828125
13.1899999,8.11634349822998,-3.5386300086975098,1.5155296325683594,-11.5966796875,3.173828125,6.927490234375
13.209999900000001,8.152256965637207,-3.3901896476745605,1.3503297567367554,-15.2740478515625,7.5836181640625,7.720947265625
13.229999900000001,8.209717750549316,-3.2800562381744385,1.1683704853057861,-11.322021484375,12.969970703125,9.2926025390625
13.2499999,8.195352554321289,-3.24414324760437,0.9433154463768005,1.1444091796875,13.397216796875,12.7716064453125
13.2699999,8.073247909545898,-3.31118106842041,0.6320692300796509,14.0838623046875,7.9345703125,19.22607421875
13.289999900000002,7.90086555480957,-3.383007049560547,0.2777273952960968,19.9127197265625,2.532958984375,29.9835205078125
13.309999900000001,7.826645374298096,-3.3949780464172363,-0.047884032130241394,13.641357421875,3.1280517578125,38.787841796875
13.3299999,7.9415669441223145,-3.3686418533325195,-0.2322375625371933,-0.518798828125,9.5977783203125,41.3970947265625
13.3499999,8.145073890686035,-3.40216064453125,-0.30885201692581177,-9.6435546875,14.678955078125,46.2188720703125
13.3699999,8.35097599029541,-3.5913026332855225,-0.33279404044151306,-10.223388671875,10.9100341796875,61.9659423828125
13.389999900000001,8.425195693969727,-3.928884983062744,-0.3926490843296051,-13.1378173828125,0.1678466796875,86.2884521484375
13.4099999,8.494627952575684,-4.302380561828613,-0.5099649429321289,-34.454345703125,-8.8958740234375,110.626220703125
13.4299999,8.71728801727295,-4.558559894561768,-0.7110779285430908,-75.897216796875,-14.2364501953125,131.866455078125
13.4499999,9.409213066101074,-4.616020679473877,-1.0199298858642578,-125.152587890625,-21.087646484375,152.313232421875
13.469999900000001,10.931924819946289,-4.402936935424805,-1.460463047027588,-172.2412109375,-34.7900390625,171.44775390625
13.4899999,13.97016716003418,-3.711012601852417,-2.161964178085327,-220.977783203125,-54.046630859375,190.521240234375
13.5099999,18.820819854736328,-2.094926595687866,-3.160346269607544,-305.17578125,-77.9876708984375,213.3636474609375
13.5299999,25.14869499206543,0.11013327538967133,-4.022258758544922,-432.4951171875,-114.1357421875,226.3641357421875
13.549999900000001,31.186870574951172,2.051830768585205,-4.307168960571289,-500,-153.3355712890625,241.729736328125
13.569999900000001,34.275390625,3.160346269607544,-3.663128614425659,-499.755859375,-172.119140625,316.6656494140625
13.5899999,31.318552017211914,2.964021682739258,-2.406172752380371,-500,-165.2984619140625,404.022216796875
13.6099999,19.38824462890625,1.3287819623947144,-2.1308395862579346,-500,-145.721435546875,447.052001953125
13.629999900000001,-1.4987702369689941,-0.912190854549408,-4.587290287017822,-500,-115.142822265625,483.82568359375
13.649999900000001,-21.368249893188477,-2.1499931812286377,-5.501875400543213,-500,26.06201171875,369.6136474609375
13.6699999,-38.21385192871094,-3.8379054069519043,-6.100425720214844,-380.7830810546875,252.227783203125,15.6707763671875
13.6899999,-44.79072570800781,-5.851428985595703,-5.2696380615234375,292.1142578125,215.6982421875,-251.0986328125
13.709999900000001,-44.06767654418945,-7.3238630294799805,-3.8115692138671875,499.9847412109375,25.32958984375,-287.1551513671875
13.729999900000001,-37.873878479003906,-7.297526836395264,-4.934449672698975,499.9847412109375,-93.7042236328125,-167.083740234375
13.7499999,-30.12384605407715,-6.086060523986816,-7.503427982330322,499.9847412109375,-104.1107177734375,-181.976318359375
13.7699999,-19.86708641052246,-2.875436305999756,-10.017339706420898,157.04345703125,-35.8123779296875,-237.274169921875
13.789999900000002,-8.427590370178223,-0.768538773059845,-10.66137981414795,-45.9442138671875,42.449951171875,-238.800048828125
13.809999900000001,2.0638017654418945,-1.3192051649093628,-9.765948295593262,-42.510986328125,100.433349609375,-218.32275390625
13.8299999,10.20648193359375,-3.77565598487854,-7.881711959838867,107.1929931640625,145.81298828125,-169.0673828125
13.8499999,15.488090515136719,-6.94079065322876,-5.87776517868042,275.6195068359375,162.567138671875,-127.685546875
13.8699999,17.875110626220703,-9.368511199951172,-4.443638324737549,373.8250732421875,140.07568359375,-126.8463134765625
13.889999900000001,18.246212005615234,-10.113107681274414,-3.799597978591919,374.9542236328125,107.9559326171875,-143.402099609375
13.9099999,17.281347274780273,-9.210494041442871,-3.8163576126098633,285.980224609375,100.3265380859375,-162.8570556640625
13.9299999,15.64610767364502,-7.297526836395264,-3.97916316986084,159.72900390625,106.26220703125,-184.967041015625
13.9499999,13.852850914001465,-5.145139217376709,-4.072536945343018,64.910888671875,106.6436767578125,-198.1353759765625
13.969999900000001,12.15057373046875,-3.4404678344726562,-3.892971992492676,22.6287841796875,103.4088134765625,-194.9615478515625
13.9899999,10.764330863952637,-2.6001031398773193,-3.248931646347046,13.3819580078125,94.390869140625,-178.3599853515625
14.0099999,9.727641105651855,-2.4803929328918457,-2.3558945655822754,28.3203125,75.775146484375,-145.9197998046875
14.0299999,9.08838939666748,-2.671929121017456,-1.4221558570861816,60.4095458984375,47.36328125,-105.712890625
14.049999900000001,8.796297073364258,-2.784456491470337,0,85.357666015625,-8.636474609375,-67.3980712890625
14.069999900000001,8.899248123168945,-2.494758129119873,0.3974374830722809,73.577880859375,-16.41845703125,-59.7686767578125
14.0899999,8.987833023071289,-2.2457611560821533,0.6967126727104187,60.546875,-13.4429931640625,-56.0302734375
14.1099999,9.016563415527344,-2.1045033931732178,0.9552865028381348,55.9234619140625,-8.087158203125,-47.6531982421875
14.129999900000001,8.954314231872559,-2.1116859912872314,1.137245774269104,60.0738525390625,-8.48388671875,-39.0777587890625
14.149999900000001,8.808267593383789,-2.126051187515259,1.161187767982483,62.103271484375,-12.5885009765625,-31.982421875
14.1699999,8.736441612243652,-2.0254945755004883,1.0678139925003052,56.488037109375,-14.6484375,-27.4810791015625
14.1899999,8.841787338256836,-1.8171991109848022,0.9600749015808105,45.1202392578125,-10.6353759765625,-26.2908935546875
14.209999900000001,9.193734169006348,-1.5753847360610962,0.9696516990661621,30.6854248046875,0.06103515625,-25.5584716796875
14.229999900000001,9.607931137084961,-1.3838485479354858,1.1037269830703735,16.1895751953125,11.2457275390625,-24.017333984375
14.2499999,9.950302124023438,-1.314416766166687,1.3527239561080933,6.4239501953125,15.7012939453125,-25.7720947265625
14.2699999,10.019734382629395,-1.3623007535934448,1.6184803247451782,4.5623779296875,11.383056640625,-27.6947021484375
14.289999900000002,9.859322547912598,-1.4891934394836426,1.8339585065841675,9.765625,3.6773681640625,-25.2685546875
14.309999900000001,9.593565940856934,-1.623268723487854,2.0231003761291504,13.7176513671875,-3.5247802734375,-19.2108154296875
14.3299999,9.378087997436523,-1.7118542194366455,2.145204782485962,11.6119384765625,-9.1094970703125,-11.993408203125
14.3499999,9.306262016296387,-1.6927006244659424,2.2218191623687744,2.716064453125,-12.6800537109375,-6.2103271484375
14.3699999,9.354146003723145,-1.6615760326385498,2.161964178085327,-11.505126953125,-12.4053955078125,-4.364013671875
14.389999900000001,9.509769439697266,-1.577778935432434,1.9704279899597168,-23.834228515625,-10.7879638671875,-0.4730224609375
14.4099999,9.713275909423828,-1.4987702369689941,1.6496049165725708,-27.252197265625,-8.60595703125,3.47900390625
14.4299999,9.897629737854004,-1.4389152526855469,1.2401964664459229,-21.209716796875,-6.500244140625,3.2501220703125
14.4499999,10.02452278137207,-1.3982137441635132,0.8379706144332886,-11.77978515625,-3.4942626953125,4.8370361328125
14.469999900000001,10.005369186401367,-1.381454348564148,0.524330198764801,-6.9427490234375,1.495361328125,11.5814208984375
14.4899999,9.825803756713867,-1.436521053314209,0.3734954595565796,-10.498046875,7.6904296875,16.6778564453125
14.5099999,9.478644371032715,-1.5705963373184204,0.4405331015586853,-17.2882080078125,13.0157470703125,16.815185546875
14.5299999,9.011775016784668,-1.7836803197860718,0.7015010714530945,-23.345947265625,16.265869140625,17.1661376953125
14.549999900000001,8.513781547546387,-2.10210919380188,1.0678139925003052,-22.4456787109375,15.625,17.5628662109375
14.569999900000001,8.087613105773926,-2.4588451385498047,1.4437036514282227,-16.510009765625,11.65771484375,18.8140869140625
14.5899999,7.843404769897461,-2.7724854946136475,1.680729627609253,-12.1612548828125,7.1258544921875,19.53125
14.6099999,7.898471355438232,-2.9927520751953125,1.7405846118927002,-10.5438232421875,3.47900390625,17.4407958984375
14.629999900000001,8.281543731689453,-3.071760892868042,1.6160861253738403,-13.3819580078125,2.685546875,15.472412109375
14.649999900000001,8.908824920654297,-3.1004912853240967,1.3742717504501343,-18.6920166015625,4.364013671875,13.1683349609375
14.6699999,9.62947940826416,-3.1938650608062744,1.1085153818130493,-18.0511474609375,5.79833984375,10.2996826171875
14.6899999,10.285490036010742,-3.3925838470458984,0.912190854549408,-8.36181640625,5.6915283203125,10.3759765625
14.709999900000001,10.711658477783203,-3.7421371936798096,0.8212111592292786,6.5460205078125,4.8980712890625,11.3983154296875
14.729999900000001,10.900800704956055,-4.158728122711182,0.8595184087753296,17.181396484375,4.1656494140625,10.7269287109375
14.7499999,10.826580047607422,-4.558559894561768,0.9313444495201111,21.392822265625,3.631591796875,5.8746337890625
14.7699999,10.541669845581055,-4.845864295959473,1.0247182846069336,22.2625732421875,0.5035400390625,-1.1444091796875
14.789999900000002,10.089165687561035,-4.9799394607543945,1.0606313943862915,20.172119140625,-5.1422119140625,-6.7596435546875
14.809999900000001,9.557653427124023,-4.960785865783691,1.0247182846069336,15.8843994140625,-10.3607177734375,-10.8795166015625
14.8299999,9.014169692993164,-4.807557106018066,0.9576807022094727,10.406494140625,-13.5040283203125,-12.969970703125
14.8499999,8.537723541259766,-4.594472885131836,0.8690952062606812,5.6610107421875,-14.007568359375,-13.275146484375
14.8699999,8.14028549194336,-4.371812343597412,0.7757213711738586,5.2490234375,-13.519287109375,-11.5203857421875
14.889999900000001,7.845798969268799,-4.168305397033691,0.6943184733390808,8.941650390625,-13.18359375,-7.904052734375
14.9099999,7.666234016418457,-3.995922565460205,0.629675030708313,13.519287109375,-13.519287109375,-3.96728515625
14.9299999,7.60637903213501,-3.823540210723877,0.5817909836769104,18.1121826171875,-13.0462646484375,0.5340576171875
14.9499999,7.682993412017822,-3.6176388263702393,0.5674257874488831,19.9432373046875,-11.7950439453125,5.31005859375
14.969999900000001,7.888894557952881,-3.3925838470458984,0.5841852426528931,16.8304443359375,-9.429931640625,8.087158203125
14.9899999,8.188169479370117,-3.184288263320923,0.6392518281936646,12.4969482421875,-7.0343017578125,8.1024169921875
15.0099999,8.561665534973145,-3.047818660736084,0.7374141216278076,12.451171875,-5.55419921875,6.7901611328125
15.0299999,8.944737434387207,-2.999934673309326,0.8834604024887085,16.3726806640625,-4.57763671875,6.2408447265625
15.049999900000001,9.311050415039062,-3.0358476638793945,1.039083480834961,20.6146240234375,-4.5928955078125,5.43212890625
15.069999900000001,9.612719535827637,-3.0861260890960693,1.1563993692398071,23.1170654296875,-6.28662109375,4.4403076171875
15.0899999,9.84256362915039,-3.1076738834381104,1.213860273361206,22.003173828125,-9.1400146484375,3.2806396484375
15.1099999,9.998186111450195,-3.0813376903533936,1.2114660739898682,16.3421630859375,-10.2691650390625,1.312255859375
15.129999900000001,10.072406768798828,-3.0095114707946777,1.1803414821624756,9.033203125,-8.2550048828125,-0.18310546875
15.149999900000001,10.055646896362305,-2.9305028915405273,1.192312479019165,5.462646484375,-5.157470703125,-1.556396484375
15.1699999,9.931148529052734,-2.8610711097717285,1.256955862045288,7.0343017578125,-2.01416015625,-1.7242431640625
15.1899999,9.710882186889648,-2.8131868839263916,1.3886369466781616,13.580322265625,0.823974609375,-1.556396484375
15.209999900000001,9.44991397857666,-2.7700912952423096,1.5969325304031372,19.866943359375,3.3111572265625,-1.9683837890625
15.229999900000001,9.184157371520996,-2.7030537128448486,1.802833914756775,22.491455078125,6.40869140625,-2.6702880859375
15.2499999,8.971074104309082,-2.5905263423919678,2.006340980529785,21.148681640625,7.9803466796875,-2.9144287109375
15.2699999,8.841787338256836,-2.425326347351074,2.1499931812286377,16.448974609375,7.843017578125,-3.1280517578125
15.289999900000002,8.78193187713623,-2.252943754196167,2.2170307636260986,10.467529296875,7.75146484375,-4.7760009765625
15.309999900000001,8.83699893951416,-2.099714994430542,2.248155355453491,5.4473876953125,6.866455078125,-5.706787109375
15.3299999,8.995016098022461,-1.9919757843017578,2.248155355453491,2.532958984375,5.3863525390625,-4.6234130859375
15.3499999,9.220070838928223,-1.946485996246338,2.22660756111145,1.617431640625,3.875732421875,-3.5552978515625
15.3699999,9.490615844726562,-1.946485996246338,2.190694570541382,0.5035400390625,2.25830078125,-2.5177001953125
15.389999900000001,9.732429504394531,-1.98958158493042,2.1356279850006104,-2.4261474609375,0.7781982421875,-2.3956298828125
15.4099999,9.914389610290527,-2.0661959648132324,2.1092917919158936,-5.67626953125,0.18310546875,-3.9215087890625
15.4299999,10.019734382629395,-2.1763293743133545,2.10210919380188,-7.415771484375,0.457763671875,-6.28662109375
15.4499999,10.043676376342773,-2.2912509441375732,2.1547815799713135,-6.591796875,-0.579833984375,-8.1024169921875
15.469999900000001,10.007762908935547,-2.382230758666992,2.2146365642547607,-7.1868896484375,-2.777099609375,-8.697509765625
15.4899999,9.943120002746582,-2.427720546722412,2.229001760482788,-12.0086669921875,-4.852294921875,-9.9334716796875
15.5099999,9.873687744140625,-2.3989901542663574,2.2026655673980713,-18.402099609375,-7.232666015625,-11.4593505859375
15.5299999,9.80904483795166,-2.31758713722229,2.078166961669922,-21.42333984375,-8.636474609375,-12.0849609375
15.549999900000001,9.746794700622559,-2.2026655673980713,1.9081788063049316,-20.294189453125,-10.5133056640625,-11.505126953125
15.569999900000001,9.670180320739746,-2.073378562927246,1.7046716213226318,-19.22607421875,-12.0697021484375,-9.8419189453125
15.5899999,9.545681953430176,-1.965639591217041,1.4867992401123047,-18.402099609375,-11.65771484375,-8.636474609375
15.6099999,9.390059471130371,-1.8842366933822632,1.3192051649093628,-16.3726806640625,-9.5977783203125,-7.4005126953125
15.629999900000001,9.208099365234375,-1.8387469053268433,1.1899182796478271,-14.801025390625,-5.9967041015625,-5.6304931640625
15.649999900000001,9.023746490478516,-1.821987509727478,1.1037269830703735,-14.4500732421875,-1.77001953125,-4.3182373046875
15.6699999,8.863334655761719,-1.8363527059555054,1.0438719987869263,-14.251708984375,1.220703125,-3.692626953125
15.6899999,8.760383605957031,-1.8555063009262085,0.9864110946655273,-13.885498046875,3.72314453125,-1.190185546875
15.709999900000001,8.712499618530273,-1.9057846069335938,0.9385270476341248,-13.48876953125,6.744384765625,2.838134765625
15.729999900000001,8.736441612243652,-1.9943699836730957,0.8930372595787048,-14.0533447265625,10.6964111328125,7.0648193359375
15.7499999,8.80587387084961,-2.1356279850006104,0.8451532125473022,-13.5955810546875,14.404296875,12.1917724609375
15.7699999,8.9064302444458,-2.341529369354248,0.8020575642585754,-10.5743408203125,16.357421875,17.88330078125
15.789999900000002,9.014169692993164,-2.5929205417633057,0.751779317855835,-8.4075927734375,17.3797607421875,23.3001708984375
15.809999900000001,9.10993766784668,-2.873042106628418,0.7086837291717529,-9.979248046875,18.3258056640625,26.092529296875
15.8299999,9.188945770263672,-3.160346269607544,0.6919242739677429,-13.9923095703125,18.7835693359375,26.702880859375
15.8499999,9.248801231384277,-3.4380736351013184,0.689530074596405,-17.4407958984375,18.4173583984375,26.275634765625
15.869999900000002,9.294290542602539,-3.7038300037384033,0.730231523513794,-18.1732177734375,16.2811279296875,23.1781005859375
15.889999900000001,9.313444137573242,-3.9647979736328125,0.7876923680305481,-15.869140625,13.336181640625,17.730712890625
15.9099999,9.311050415039062,-4.213795185089111,0.8786720037460327,-9.58251953125,9.857177734375,12.786865234375
15.9299999,9.29189682006836,-4.436455726623535,0.9959878921508789,-0.4425048828125,5.7830810546875,9.857177734375
15.9499999,9.26795482635498,-4.60165548324585,1.1061211824417114,9.185791015625,0.9765625,8.331298828125
15.969999900000001,9.275136947631836,-4.671087741851807,1.194706678390503,14.22119140625,-4.4097900390625,7.293701171875
15.9899999,9.306262016296387,-4.627991676330566,1.213860273361206,13.397216796875,-9.3841552734375,5.18798828125
16.0099999,9.354146003723145,-4.513070106506348,1.1635819673538208,8.4228515625,-12.8326416015625,1.6326904296875
16.0299999,9.399636268615723,-4.364629745483398,1.0869675874710083,3.143310546875,-15.228271484375,-1.1138916015625
16.0499999,9.39245319366455,-4.252102375030518,0.993593692779541,1.6021728515625,-16.143798828125,-2.25830078125
16.0699999,9.315838813781738,-4.177882194519043,0.9169792532920837,4.974365234375,-16.2353515625,-1.5716552734375
16.089999900000002,9.186552047729492,-4.137180328369141,0.8738836050033569,6.6680908203125,-15.9149169921875,0.335693359375
16.109999900000002,9.011775016784668,-4.091690540313721,0.8331822156906128,4.8828125,-14.1448974609375,1.434326171875
16.1299999,8.83699893951416,-4.019864559173584,0.7924807667732239,2.3956298828125,-12.3138427734375,1.861572265625
16.1499999,8.683769226074219,-3.892971992492676,0.730231523513794,0.1983642578125,-11.1236572265625,3.2196044921875
16.1699999,8.56645393371582,-3.7158010005950928,0.646434485912323,-3.662109375,-9.368896484375,4.913330078125
16.1899999,8.489839553833008,-3.4979286193847656,0.5482721924781799,-8.9263916015625,-6.7291259765625,4.8370361328125
16.2099999,8.453926086425781,-3.2632968425750732,0.4692635238170624,-13.641357421875,-3.6773681640625,3.448486328125
16.2299999,8.44195556640625,-3.0837318897247314,0.3902548849582672,-15.411376953125,0.2593994140625,3.1585693359375
16.249999900000002,8.437167167663574,-2.956839084625244,0.31364041566848755,-14.3280029296875,5.55419921875,5.9814453125
16.269999900000002,8.391676902770996,-2.9017724990844727,0.22266076505184174,-17.364501953125,12.0849609375,10.650634765625
16.2899999,8.315062522888184,-2.9257144927978516,0.14604631066322327,-24.6429443359375,18.096923828125,14.4195556640625
16.3099999,8.224082946777344,-2.9975404739379883,0.14604631066322327,-26.885986328125,21.759033203125,17.3187255859375
16.3299999,8.152256965637207,-3.1052796840667725,0.2585737705230713,-27.069091796875,24.6124267578125,22.0947265625
16.3499999,8.13789176940918,-3.222595453262329,0.48602294921875,-26.30615234375,28.7628173828125,27.984619140625
16.3699999,8.154650688171387,-3.2848446369171143,0.7637503147125244,-23.25439453125,31.6925048828125,34.7442626953125
16.3899999,8.147468566894531,-3.2632968425750732,0.9816226959228516,-23.4527587890625,30.82275390625,44.3572998046875
16.4099999,8.056488990783691,-3.179499864578247,1.048660397529602,-29.5562744140625,24.505615234375,55.8624267578125
16.429999900000002,7.884106159210205,-3.066972494125366,0.9169792532920837,-38.6810302734375,12.51220703125,71.441650390625
16.4499999,7.793126583099365,-2.978386878967285,0.6368576288223267,-52.1087646484375,-2.105712890625,93.26171875
16.4699999,7.91283655166626,-2.9544448852539062,0.26096799969673157,-71.83837890625,-14.8773193359375,117.73681640625
16.4899999,8.480262756347656,-3.0621838569641113,-0.12689268589019775,-94.29931640625,-29.9835205078125,140.625
16.5099999,9.684545516967773,-3.2393548488616943,-0.6200982332229614,-113.311767578125,-52.978515625,163.4368896484375
16.5299999,11.978191375732422,-3.404554843902588,-1.280897855758667,-133.3770751953125,-88.0279541015625,182.861328125
16.5499999,15.78976058959961,-3.265691041946411,-2.0470423698425293,-172.1343994140625,-133.11767578125,190.4144287109375
16.5699999,21.049821853637695,-2.6144683361053467,-2.5498247146606445,-242.9351806640625,-173.980712890625,176.6510009765625
16.589999900000002,26.944345474243164,-1.3527239561080933,-2.4827871322631836,-323.8372802734375,-198.822021484375,138.275146484375
16.609999900000002,31.763874053955078,0.10055647045373917,-1.8483237028121948,-399.8870849609375,-213.92822265625,95.5657958984375
16.6299999,33.90668487548828,1.3263877630233765,-0.8858546018600464,-484.8480224609375,-227.3101806640625,92.8802490234375
16.6499999,31.636981964111328,1.778891921043396,0.090979665517807,-500,-231.5673828125,154.0069580078125
16.6699999,24.00187110900879,1.6855180263519287,0.8331822156906128,-500,-229.98046875,259.5062255859375
16.6899999,9.679757118225098,0.21787235140800476,-0.009576806798577309,-500,-252.655029296875,388.5955810546875
16.7099999,-10.08437728881836,-1.2737152576446533,-2.341529369354248,-419.00634765625,-274.5513916015625,499.9847412109375
16.7299999,-28.107927322387695,-1.8148049116134644,-3.1196448802948,-357.4066162109375,-67.9473876953125,416.229248046875
16.749999900000002,-41.80754852294922,-4.120420932769775,-4.37420654296875,-234.1766357421875,209.3658447265625,-46.7071533203125
16.769999900000002,-47.228023529052734,-6.270414352416992,-4.874594688415527,395.599365234375,169.708251953125,-329.6051025390625
16.7899999,-44.445960998535156,-6.9024834632873535,-5.669469833374023,499.9847412109375,4.425048828125,-261.199951171875
16.8099999,-36.79169845581055,-7.338228225708008,-8.183381080627441,499.9847412109375,-51.483154296875,-215.3472900390625
16.8299999,-26.61873435974121,-4.845864295959473,-11.135432243347168,138.9312744140625,22.613525390625,-266.41845703125
16.8499999,-14.161703109741211,-2.1164743900299072,-12.720393180847168,-73.3795166015625,111.846923828125,-251.2969970703125
16.8699999,-2.0207061767578125,-1.1300631761550903,-12.634202003479004,-0.79345703125,147.9339599609375,-183.3953857421875
16.8899999,7.9631147384643555,-1.9249382019042969,-11.417947769165039,198.3795166015625,167.9229736328125,-90.02685546875
16.9099999,14.846445083618164,-3.6080620288848877,-9.579200744628906,343.902587890625,191.95556640625,-37.994384765625
16.929999900000002,18.34437370300293,-4.963180065155029,-7.869740962982178,391.387939453125,181.2744140625,-38.5894775390625
16.9499999,19.06742286682129,-5.3582234382629395,-6.627150535583496,360.321044921875,135.4827880859375,-53.16162109375
16.9699999,18.016366958618164,-4.994304656982422,-5.906495571136475,267.15087890625,109.832763671875,-64.6514892578125
16.9899999,16.024391174316406,-4.264073371887207,-5.4444146156311035,160.15625,118.3929443359375,-79.0863037109375
17.0099999,13.82412052154541,-3.754108190536499,-5.020640850067139,89.324951171875,132.720947265625,-100.189208984375
17.0299999,11.829751014709473,-3.7421371936798096,-4.424484729766846,83.2672119140625,130.340576171875,-117.85888671875
17.0499999,10.1753568649292,-4.412513732910156,-3.6607344150543213,128.60107421875,117.828369140625,-125.8697509765625
17.0699999,8.884882926940918,-5.494692802429199,-2.671929121017456,192.474365234375,98.6175537109375,-121.52099609375
17.089999900000002,7.869740962982178,-6.313509941101074,-1.8100165128707886,230.499267578125,76.6448974609375,-104.79736328125
17.109999900000002,7.2137298583984375,-6.596025466918945,-1.0965443849563599,216.0491943359375,51.1627197265625,-99.761962890625
17.1299999,6.981492042541504,-6.107608318328857,-0.7469909191131592,166.1224365234375,27.83203125,-113.1591796875
17.1499999,7.1490864753723145,-5.125985622406006,-0.6200982332229614,107.6507568359375,15.594482421875,-121.337890625
17.1699999,7.553706169128418,-4.039018154144287,-0.5817909836769104,59.14306640625,10.3607177734375,-116.8975830078125
17.1899999,8.125920295715332,-3.222595453262329,-0.5027823448181152,29.022216796875,5.2642822265625,-107.330322265625
17.2099999,8.69095230102539,-2.741360902786255,-0.3495534360408783,23.9715576171875,-1.617431640625,-93.8873291015625
17.2299999,9.222464561462402,-2.5330653190612793,-0.07422025501728058,39.4287109375,-9.063720703125,-72.7996826171875
17.249999900000002,9.641449928283691,-2.4660277366638184,0.2849099934101105,58.380126953125,-15.3656005859375,-49.560546875
17.269999900000002,9.95748519897461,-2.408566951751709,0.730231523513794,64.208984375,-18.218994140625,-31.9366455078125
17.2899999,10.132261276245117,-2.274491548538208,1.1803414821624756,53.6956787109375,-17.333984375,-22.3236083984375
17.3099999,10.15141487121582,-2.097320795059204,1.5634137392044067,36.43798828125,-14.95361328125,-18.9208984375
17.3299999,10.06043529510498,-1.9081788063049316,1.86508309841156,18.035888671875,-13.7786865234375,-18.6309814453125
17.3499999,9.904812812805176,-1.802833914756775,2.056619167327881,2.0751953125,-12.6495361328125,-20.0958251953125
17.3699999,9.782708168029785,-1.7812861204147339,2.1523873805999756,-3.7078857421875,-10.6048583984375,-19.5465087890625
17.3899999,9.708487510681152,-1.843535304069519,2.205059766769409,0.2899169921875,-8.270263671875,-16.4642333984375
17.409999900000003,9.672574996948242,-1.9608511924743652,2.229001760482788,9.46044921875,-5.2490234375,-12.20703125
17.429999900000002,9.5624418258667,-2.097320795059204,2.2385785579681396,18.3868408203125,-2.5482177734375,-7.6904296875
17.4499999,9.334992408752441,-2.2170307636260986,2.1978771686553955,22.4456787109375,-1.40380859375,-3.936767578125
17.4699999,8.98543930053711,-2.274491548538208,2.1164743900299072,18.9208984375,-2.685546875,-2.197265625
17.4899999,8.573636054992676,-2.2601263523101807,1.968033790588379,7.8582763671875,-4.39453125,-3.143310546875
17.5099999,8.22887134552002,-2.188300371170044,1.8387469053268433,-6.6375732421875,-4.302978515625,-5.18798828125
17.5299999,8.022970199584961,-2.1068975925445557,1.7286136150360107,-15.3961181640625,-2.777099609375,-5.9661865234375
17.5499999,8.030152320861816,-2.0590133666992188,1.656787633895874,-14.4195556640625,-2.166748046875,-4.2877197265625
17.5699999,8.252813339233398,-2.0590133666992188,1.6352397203445435,-11.444091796875,-2.288818359375,-1.1749267578125
17.589999900000002,8.628703117370605,-2.1045033931732178,1.6328455209732056,-11.29150390625,-0.6561279296875,0.9307861328125
17.609999900000002,9.071630477905273,-2.1715409755706787,1.6304513216018677,-12.725830078125,2.685546875,3.875732421875
17.6299999,9.481039047241211,-2.2361843585968018,1.5945383310317993,-13.5498046875,5.0506591796875,9.82666015625
17.6499999,9.794678688049316,-2.2864625453948975,1.4891934394836426,-13.0767822265625,4.150390625,16.4031982421875
17.6699999,10.007762908935547,-2.279279947280884,1.3215993642807007,-12.4664306640625,0.2593994140625,20.3094482421875
17.6899999,10.122684478759766,-2.231395959854126,1.1276689767837524,-13.6566162109375,-3.96728515625,21.3775634765625
17.7099999,10.158597946166992,-2.1475989818573,0.9720458984375,-17.51708984375,-6.8817138671875,20.7366943359375
17.7299999,10.098742485046387,-2.097320795059204,0.9074024558067322,-22.2930908203125,-7.720947265625,19.47021484375
17.749999900000002,9.928754806518555,-2.1356279850006104,0.950498104095459,-23.834228515625,-7.5531005859375,18.829345703125
17.769999900000002,9.679757118225098,-2.2673089504241943,1.0654197931289673,-19.622802734375,-7.0648193359375,19.744873046875
17.7899999,9.385271072387695,-2.427720546722412,1.2282254695892334,-14.6026611328125,-5.218505859375,19.8516845703125
17.8099999,9.097966194152832,-2.6024973392486572,1.3862427473068237,-13.336181640625,-1.6021728515625,16.2506103515625
17.8299999,8.860940933227539,-2.7126305103302,1.50355863571167,-14.0228271484375,3.143310546875,12.237548828125
17.8499999,8.69334602355957,-2.7772738933563232,1.5945383310317993,-13.458251953125,6.866455078125,9.857177734375
17.8699999,8.59997272491455,-2.7988216876983643,1.6352397203445435,-11.41357421875,9.6893310546875,8.9111328125
17.8899999,8.580819129943848,-2.8131868839263916,1.6280571222305298,-9.002685546875,12.3138427734375,10.101318359375
17.909999900000003,8.643068313598633,-2.8107926845550537,1.6089035272598267,-7.6904296875,14.09912109375,13.3209228515625
17.929999900000002,8.753201484680176,-2.8395233154296875,1.534683346748352,-7.7667236328125,16.17431640625,16.41845703125
17.9499999,8.904036521911621,-2.913743495941162,1.4676456451416016,-9.5062255859375,17.547607421875,19.4549560546875
17.9699999,9.047688484191895,-3.064578056335449,1.3718775510787964,-13.5040283203125,18.951416015625,22.6898193359375
17.9899999,9.160215377807617,-3.292027235031128,1.2952631711959839,-18.3868408203125,20.172119140625,24.749755859375
18.0099999,9.208099365234375,-3.6152446269989014,1.2713210582733154,-23.2391357421875,20.721435546875,24.6124267578125
18.0299999,9.169792175292969,-4.005499362945557,1.2761094570159912,-24.9176025390625,21.9879150390625,24.627685546875
18.0499999,9.045293807983398,-4.4723687171936035,1.3455413579940796,-23.2391357421875,21.7132568359375,24.4293212890625
18.0699999,8.851364135742188,-4.989516258239746,1.4221558570861816,-20.8740234375,20.721435546875,23.5595703125
18.089999900000002,8.616731643676758,-5.501875400543213,1.4772224426269531,-17.7001953125,20.416259765625,21.575927734375
18.109999900000002,8.377311706542969,-5.971138954162598,1.5418659448623657,-15.7318115234375,19.7296142578125,18.49365234375
18.1299999,8.161833763122559,-6.3302693367004395,1.53707754611969,-15.0604248046875,18.3868408203125,15.9149169921875
18.1499999,7.999027729034424,-6.528987884521484,1.4939818382263184,-16.17431640625,15.655517578125,14.5416259765625
18.1699999,7.920019149780273,-6.557718276977539,1.3838485479354858,-22.430419921875,12.8326416015625,12.0697021484375
18.1899999,7.931990146636963,-6.435614109039307,1.213860273361206,-29.998779296875,11.5509033203125,8.392333984375
18.2099999,8.032546997070312,-6.224924564361572,1.0438719987869263,-33.8287353515625,10.25390625,6.0882568359375
18.2299999,8.166622161865234,-5.995080947875977,0.8571242094039917,-32.928466796875,7.8277587890625,6.439208984375
18.249999900000002,8.310274124145508,-5.779603004455566,0.7374141216278076,-29.72412109375,4.4708251953125,6.9732666015625
18.269999900000002,8.437167167663574,-5.614402770996094,0.6871358752250671,-27.16064453125,3.0364990234375,3.509521484375
18.2899999,8.520963668823242,-5.5114521980285645,0.7110779285430908,-21.148681640625,4.7454833984375,-2.62451171875
18.3099999,8.552088737487793,-5.4659624099731445,0.8307880163192749,-11.6119384765625,5.9051513671875,-5.5084228515625
18.3299999,8.482656478881836,-5.4444146156311035,0.933738648891449,-1.312255859375,5.340576171875,-6.3323974609375
18.3499999,8.329427719116211,-5.394136428833008,1.0199298858642578,4.1656494140625,3.8909912109375,-8.6669921875
18.3699999,8.118738174438477,-5.284003257751465,1.0271124839782715,2.349853515625,3.2196044921875,-11.8408203125
18.3899999,7.924807548522949,-5.125985622406006,0.9888052940368652,-0.274658203125,3.5400390625,-12.1612548828125
18.409999900000003,7.8098859786987305,-4.955997467041016,0.9217676520347595,0.67138671875,2.960205078125,-8.9874267578125
18.429999900000002,7.812280178070068,-4.81473970413208,0.8786720037460327,3.0975341796875,1.983642578125,-5.2947998046875
18.4499999,7.9176249504089355,-4.721365928649902,0.8571242094039917,6.28662109375,1.1444091796875,-3.0670166015625
18.4699999,8.109161376953125,-4.668693542480469,0.8810662031173706,11.0626220703125,-0.9765625,-1.3427734375
18.4899999,8.339004516601562,-4.6471452713012695,0.9193734526634216,15.350341796875,-4.2877197265625,0.732421875
18.5099999,8.576030731201172,-4.6471452713012695,0.9840168952941895,16.6778564453125,-7.171630859375,1.495361328125
18.5299999,8.801085472106934,-4.6255974769592285,1.0773907899856567,14.2059326171875,-7.50732421875,2.4261474609375
18.5499999,8.987833023071289,-4.584896087646484,1.2018892765045166,11.3677978515625,-6.5155029296875,4.21142578125
18.5699999,9.11233139038086,-4.522646903991699,1.3503297567367554,12.5732421875,-6.744384765625,7.14111328125
18.589999900000002,9.165003776550293,-4.426878929138184,1.5059528350830078,13.85498046875,-7.1258544921875,11.138916015625
18.609999900000002,9.117119789123535,-4.309563159942627,1.647210717201233,10.8642578125,-7.415771484375,12.3748779296875
18.6299999,8.980650901794434,-4.170699596405029,1.7764976024627686,8.23974609375,-8.8043212890625,10.5133056640625
18.6499999,8.767566680908203,-4.017470359802246,1.8746598958969116,10.009765625,-13.0462646484375,9.9639892578125
18.6699999,8.583212852478027,-3.840299606323242,1.9800047874450684,13.3056640625,-19.805908203125,11.8408203125
18.6899999,8.506598472595215,-3.6343982219696045,2.1092917919158936,13.5498046875,-24.017333984375,11.8255615234375
18.7099999,8.607154846191406,-3.40216064453125,2.276885747909546,10.040283203125,-22.4609375,9.6588134765625
18.7299999,8.87051773071289,-3.181894063949585,2.4827871322631836,5.0201416015625,-17.5018310546875,7.843017578125
18.749999900000002,9.20091724395752,-3.050212860107422,2.6839001178741455,2.3956298828125,-11.566162109375,7.7056884765625
18.769999900000002,9.514557838439941,-3.0526070594787598,2.8203697204589844,3.662109375,-5.706787109375,8.941650390625
18.7899999,9.710882186889648,-3.205836057662964,2.8826189041137695,8.60595703125,-0.885009765625,10.4217529296875
18.8099999,9.746794700622559,-3.4548330307006836,2.8203697204589844,12.8936767578125,2.25830078125,13.0615234375
18.8299999,9.610325813293457,-3.751713991165161,2.6671407222747803,10.101318359375,3.5552978515625,15.1519775390625
18.8499999,9.299078941345215,-4.041412353515625,2.4420857429504395,-1.708984375,3.387451171875,15.0604248046875
18.8699999,8.83699893951416,-4.307168960571289,2.1739351749420166,-17.8985595703125,3.2958984375,13.48876953125
18.8899999,8.238448143005371,-4.522646903991699,1.8579005002975464,-35.4461669921875,2.3040771484375,14.801025390625
18.909999900000003,7.572859764099121,-4.63517427444458,1.455674648284912,-58.8836669921875,0.152587890625,25.177001953125
18.929999900000002,6.92881965637207,-4.663905143737793,0.9959878921508789,-91.9952392578125,-2.3651123046875,43.02978515625
18.9499999,6.414066314697266,-4.584896087646484,0.5363011956214905,-125.42724609375,-4.669189453125,60.760498046875
18.9699999,6.174646377563477,-4.541800498962402,0.23702596127986908,-151.0009765625,-7.7362060546875,72.1282958984375
18.9899999,6.212953567504883,-4.6471452713012695,0.08140286058187485,-164.093017578125,-11.627197265625,79.1168212890625
19.0099999,6.490680694580078,-4.977545261383057,0.035913024097681046,-163.0401611328125,-20.263671875,86.4715576171875
19.0299999,6.971915245056152,-5.542576789855957,-0.08379705995321274,-151.5655517578125,-36.102294921875,94.54345703125
19.0499999,7.733271598815918,-6.222530364990234,-0.395043283700943,-136.29150390625,-56.57958984375,105.0872802734375
19.0699999,8.951920509338379,-6.739677906036377,-1.039083480834961,-128.173828125,-77.2857666015625,119.5068359375
19.089999900000002,11.097125053405762,-6.785167694091797,-2.03507137298584,-142.5628662109375,-97.991943359375,130.0811767578125
19.109999900000002,14.568717002868652,-5.913678169250488,-3.2393548488616943,-189.453125,-122.6806640625,124.57275390625
19.1299999,20.058622360229492,-4.082113742828369,-4.2951979637146,-259.4757080078125,-148.834228515625,100.1434326171875
19.1499999,26.889278411865234,-1.3096283674240112,-4.54419469833374,-322.9217529296875,-178.9398193359375,76.1566162109375
19.1699999,33.52361297607422,2.0231003761291504,-3.9408559799194336,-383.6517333984375,-202.7587890625,63.232421875
19.1899999,37.23701858520508,4.1611223220825195,-2.964021682739258,-500,-219.573974609375,69.5343017578125
19.2099999,34.7949333190918,4.091690540313721,-1.886630892753601,-500,-251.556396484375,129.0435791015625
19.2299999,22.895750045776367,1.6687586307525635,-1.7070658206939697,-500,-306.8695068359375,238.2049560546875
19.249999900000002,2.1380221843719482,-2.4612393379211426,-3.7158010005950928,-500,-329.6051025390625,345.52001953125
19.269999900000002,-19.02193260192871,-5.279214859008789,-3.9815573692321777,-347.59521484375,-172.3785400390625,344.3603515625
19.2899999,-37.9648551940918,-7.0557122230529785,-4.1611223220825195,-121.6888427734375,135.07080078125,95.0927734375
19.3099999,-46.81382751464844,-7.534552574157715,-3.2297780513763428,375.48828125,203.79638671875,-169.6014404296875
19.3299999,-47.28308868408203,-5.9304375648498535,-2.5043349266052246,499.9847412109375,72.021484375,-229.3548583984375
19.3499999,-40.974369049072266,-3.9887399673461914,-3.35667085647583,499.9847412109375,-4.0740966796875,-194.915771484375
19.3699999,-31.371225357055664,-1.158793568611145,-6.071695327758789,303.5736083984375,7.9345703125,-191.619873046875
19.3899999,-19.18952751159668,1.2042834758758545,-8.71728801727295,68.084716796875,49.8504638671875,-170.83740234375
19.409999900000003,-6.6127848625183105,1.3934253454208374,-10.41956615447998,36.651611328125,79.071044921875,-132.50732421875
19.429999900000002,4.378994941711426,-0.9409212470054626,-11.008539199829102,142.2882080078125,105.4229736328125,-93.2159423828125
19.4499999,12.524068832397461,-4.611232280731201,-10.704475402832031,293.8385009765625,130.0201416015625,-61.8133544921875
19.4699999,17.26219367980957,-7.934384346008301,-10.170568466186523,384.490966796875,136.7034912109375,-44.7540283203125
19.4899999,18.89743423461914,-9.976638793945312,-9.459490776062012,368.10302734375,119.720458984375,-62.3779296875
19.5099999,18.157625198364258,-10.093954086303711,-8.81784439086914,288.970947265625,106.4910888671875,-88.6688232421875
19.5299999,16.196775436401367,-8.892065048217773,-8.02536392211914,195.4345703125,109.283447265625,-110.16845703125
19.5499999,13.82172679901123,-7.264008045196533,-6.926425457000732,130.43212890625,107.91015625,-134.3536376953125
19.5699999,11.750741958618164,-6.0597243309021,-5.640739440917969,111.4959716796875,94.1925048828125,-155.7769775390625
19.589999900000002,10.127472877502441,-5.480327606201172,-4.37420654296875,123.5809326171875,80.2764892578125,-157.7606201171875
19.609999900000002,8.916007041931152,-5.52821159362793,-3.181894063949585,144.04296875,70.526123046875,-152.28271484375
19.6299999,7.862558364868164,-5.633556365966797,-2.248155355453491,154.632568359375,60.24169921875,-143.6767578125
19.6499999,7.000645637512207,-5.556941986083984,-1.5275006294250488,152.3284912109375,45.6085205078125,-138.0615234375
19.6699999,6.325480937957764,-5.109226226806641,-1.0438719987869263,138.6260986328125,29.3731689453125,-129.08935546875
19.6899999,5.894524574279785,-4.299986362457275,-0.727837324142456,105.5450439453125,22.7203369140625,-108.5357666015625
19.7099999,5.724536418914795,-3.399766445159912,-0.5985504388809204,59.295654296875,25.0396728515625,-90.4541015625
19.7299999,5.78678560256958,-2.5474305152893066,-0.6033388376235962,20.1873779296875,27.923583984375,-74.0814208984375
19.749999900000002,6.090848922729492,-2.013523578643799,-0.6967126727104187,-2.0751953125,25.4364013671875,-55.694580078125
19.769999900000002,6.670246124267578,-1.9584569931030273,-0.7805097699165344,-3.7384033203125,19.500732421875,-34.637451171875
19.7899999,7.508216381072998,-2.2697031497955322,-0.7589619159698486,7.6446533203125,12.481689453125,-9.0484619140625
19.8099999,8.549694061279297,-2.849100112915039,-0.586579442024231,17.0745849609375,3.9215087890625,9.8114013671875
19.8299999,9.639056205749512,-3.4739866256713867,-0.3447650372982025,18.035888671875,-5.3558349609375,15.5029296875
19.8499999,10.627861022949219,-4.031835556030273,0.033518824726343155,12.6495361328125,-12.8631591796875,12.51220703125
19.8699999,11.362881660461426,-4.438849925994873,0.4381389021873474,6.9122314453125,-17.4713134765625,4.21142578125
19.8899999,11.72201156616211,-4.666299343109131,0.9169792532920837,5.279541015625,-20.8587646484375,-7.5225830078125
19.909999900000003,11.638214111328125,-4.683058738708496,1.3120225667953491,6.7901611328125,-22.2015380859375,-19.561767578125
19.929999900000002,11.142614364624023,-4.484339714050293,1.6160861253738403,7.568359375,-22.918701171875,-27.34375
19.9499999,10.357316970825195,-4.1395745277404785,1.7405846118927002,6.988525390625,-22.3846435546875,-28.1982421875
19.9699999,9.459490776062012,-3.691859006881714,1.721431016921997,5.5084228515625,-19.5770263671875,-23.9410400390625
19.9899999,8.619126319885254,-3.2369606494903564,1.5442601442337036,3.5552978515625,-15.31982421875,-19.805908203125
20.0099999,7.972691535949707,-2.851494312286377,1.3072341680526733,0.885009765625,-11.3677978515625,-15.533447265625
20.0299999,7.556100368499756,-2.5665841102600098,1.0319008827209473,0.579833984375,-7.2021484375,-8.575439453125
20.0499999,7.386112213134766,-2.410961151123047,0.811634361743927,1.434326171875,-3.326416015625,-1.068115234375
20.0699999,7.383718013763428,-2.434903144836426,0.6799532771110535,-3.4027099609375,2.38037109375,4.7454833984375
20.089999900000002,7.465120792388916,-2.612074136734009,0.6320692300796509,-14.2364501953125,10.80322265625,11.53564453125
20.109999900000002,7.6111674308776855,-2.9759926795959473,0.6655880808830261,-25.7415771484375,18.585205078125,17.9901123046875
20.1299999,7.814674377441406,-3.466804027557373,0.7757213711738586,-34.8358154296875,24.7955322265625,21.78955078125
20.1499999,8.128314971923828,-4.01268196105957,0.9672574996948242,-38.665771484375,29.296875,20.7672119140625
20.1699999,8.559270858764648,-4.5394062995910645,1.2282254695892334,-33.14208984375,31.18896484375,15.9454345703125
20.1899999,9.074024200439453,-4.970362663269043,1.4867992401123047,-20.20263671875,30.33447265625,12.7410888671875
20.2099999,9.619902610778809,-5.1810526847839355,1.647210717201233,-6.8359375,26.5350341796875,12.9852294921875
20.2299999,10.11789608001709,-5.145139217376709,1.6424223184585571,0.1373291015625,20.538330078125,11.138916015625
