# Time (seconds),Accel_X,Accel_Y,Accel_Z,Gyro_X,Gyro_Y,Gyro_Z
0.0012499,3.993557575552516,-7.9846985570060935,4.302336990901634,-0.043949181818933265,0.28881494390631013,-0.046244540479560184
0.0112499,3.9447089516015392,-8.126842781998041,4.3261233834842905,0.21635352522160609,0.03351557971144775,-0.18761595451120355
0.0212499,3.9370527680055543,-8.097900375224091,4.2743187917806855,0.5124329994573787,-0.12803256412178718,-0.20106172748026968
0.0312498999999999,3.982409426520795,-7.955961925528322,4.218220017789992,0.22498437675069602,-0.012226577506415235,-0.04420976570242624
0.0412499,3.9901717857882297,-7.906474499521371,4.238831462948799,-0.2919702643683327,0.13822627448187236,0.13964193632314428
0.0512499,3.9436770474116094,-8.003935078923531,4.295496880159196,-0.3092519719083391,0.16363954319081034,0.14696052306850743
0.0612498999999999,3.925772086033576,-8.098245310352349,4.343631919336492,0.042032789661406604,-0.02944913214926698,0.09916339926651631
0.0712499,3.9575224004561664,-8.065672624997612,4.325446458282502,0.29864725855883356,-0.1809908144680284,-0.0035485358717234285
0.0812499,3.9896156053551364,-7.977981538135462,4.257080963378992,0.18776911231659216,0.01066275877995595,-0.06131082063013069
0.0912499,3.9951012545669458,-7.959204222888257,4.2470233123901915,0.048114825732224836,0.20743084925946131,-0.16733403827950152
0.1012499,3.9842342577072563,-8.01189972371279,4.303159569050633,0.02068351472584988,0.21447695128622835,-0.1533577529834545
0.1112499,3.9712306207619026,-8.065471813436488,4.35271587800081,0.1044248922150762,0.19452165985878989,-0.014033045832021829
0.1212499,3.960258338995034,-8.059689249792438,4.335210736867184,0.34070507676289585,0.04745751216840005,0.052726511147260485
0.1312499,3.970106877494226,-8.002797810779954,4.284709817549877,0.291278152573406,-0.010653751866864888,0.07738303463512095
0.1412499,3.9683103954569847,-7.956243038617586,4.244454228146901,-0.06625840857132241,-0.0646911824515587,0.19591495568314923
0.1512499,3.925796916358134,-7.945949886230858,4.227586050967204,-0.48058638914299834,-0.1487592310514995,0.2342715305784106
0.1612499,3.9183696021656145,-7.970769202279195,4.252800419460137,-0.7801732736815316,-0.05632230625820895,0.3244746204792406
0.1712499,3.951588208561982,-8.029620811044918,4.283494093835822,-0.9062772997178953,0.003078553598360845,0.4871325040938084
0.1812499,3.9629498749768346,-8.080980583322711,4.310153436131327,-0.6447847921897811,0.008662597538610955,0.3481449298141278
0.1912499,3.9676138809259736,-8.06403269568889,4.3138028307625085,-0.2125031300572021,-0.14985846374800316,0.10521525284949146
0.2012499,3.9858964543160407,-8.008787516738643,4.299583447687612,0.14024768438372856,-0.122827357929686,-0.14077232295797062
0.2112499,4.01043735714529,-7.983322402055462,4.296313288832032,0.31126432564742157,0.13625475209403767,-0.26865337124026967
0.2212499,3.993291740758257,-8.035844332268644,4.313732809939827,0.4455641128591556,0.23531466684286165,-0.1580360804150248
0.2312499,3.9578954234051595,-8.105779380604881,4.331362218664612,0.6679931295276728,0.01632796585715267,-0.1157477711458871
0.2412499,3.9606203159698112,-8.078259286680211,4.2910006087509265,0.6200211022037851,-0.1573109639595128,-0.06094840277881149
0.2512499,3.96779918784839,-7.96197212420307,4.2254980541004805,0.3185112305915227,-0.16562822379869072,0.09587220554580415
0.2612499,3.9326372293074465,-7.911339287806557,4.238963851081409,-0.21934342450934036,0.03191743700727515,0.16480892738962089
0.2712499,3.897224451641431,-7.965714151068318,4.287518641804075,-0.5755817360242281,0.08444717821287716,0.2139769937752621
0.2812499,3.926414713031366,-8.024164316691357,4.31092663603741,-0.6285155093279173,0.009314275550850466,0.1628865445888469
0.2912499,3.9608246982573383,-8.038201530752547,4.3113093961695865,-0.36698141423246,-0.07915588225547839,0.17048810869508424
0.3012499,3.985779675111629,-8.048705245091064,4.28379874110484,-0.2261605526394868,-0.11316239559115678,0.03929879236790397
0.3112499,4.0090695576651045,-8.03873090608319,4.288850183481405,-0.04936425457718266,-0.08358720297578369,-0.2043186449056834
0.3212499,4.003248746384967,-8.017506054649141,4.319651336740615,0.3289360527126302,0.13997518805573742,-0.276020199277248
0.3312499,3.9944549238514857,-8.054266934525497,4.345986574413927,0.6503319111318756,0.16858373918229452,-0.30168885358333686
0.3412499,3.9880712034592545,-8.064906502780202,4.335280706879019,0.9171579753948825,-0.09841947202143016,-0.30879274784546284
0.3512499,3.9730734812155912,-7.985944151504938,4.275624245099909,0.8307560944035249,-0.052858825645690256,-0.23432208700531582
0.3612499,3.9461566879672416,-7.905816433651822,4.221973236411632,0.3003591908334465,0.02016545302615728,0.01228853425361947
0.3712499,3.9290671635750325,-7.895045335543853,4.217660472698702,-0.4329766506252012,0.025704532762553082,0.29293767454516617
0.3812499,3.9156394565516934,-7.957396675962192,4.24714242641061,-0.9190622019392763,0.012901173843962072,0.4408139709018438
0.3912499,3.927152474419369,-8.036060548082963,4.294699497901098,-1.140359998456734,-0.1300854694491614,0.49482667539885367
0.4012499,3.974112925591578,-8.059374291105387,4.297692324774225,-1.0827453579133566,-0.1712675636956409,0.4597915754204616
0.4112499,3.9895370302770785,-8.051249286872576,4.272706518701727,-0.9106299958735814,-0.07448381575717174,0.33072419508308354
0.4212499,3.9733184152875536,-8.057344956362426,4.281423334540171,-0.580623485774626,-0.06559211109359933,0.17145988853974747
0.4312499,3.979105277811969,-8.063828008917959,4.299111777002705,-0.21192333038734965,-0.019576962403079733,0.04941202369447789
0.4412499,3.989453173686223,-8.07642384926302,4.319348153054595,0.3042248396368764,0.1238833988793605,-0.01911299484648934
0.4512499,3.994379612791007,-8.085844065295598,4.3241835227028105,0.7653178996364207,0.13821145407135751,-0.27967075155521964
0.4612499,4.001708915271152,-8.056968531343967,4.306140947218604,1.0640592015755572,0.11163629910575268,-0.40939850476006867
0.4712499,3.977352543208974,-8.000261760882001,4.2860483740230855,1.0138579297316388,0.17231728477902183,-0.30512678943793786
0.4812499,3.931480997361227,-7.969820778032197,4.275915445687597,0.7940092948588298,0.09180267377856528,-0.17185961828934274
0.4912499,3.919367286787595,-7.948879819850647,4.2764574310953005,0.3873356178370796,-0.038376843703065516,-0.11063650588394582
0.5012499,3.943603870595963,-7.933120581199043,4.285303990555301,-0.17730367168060546,-0.0036814968102865,0.03039197237966528
0.5112499,3.9557758518310413,-7.959830448557957,4.299380511031551,-0.3836148318678691,-0.03549399701928678,0.13267837353488335
0.5212499,3.951767458927089,-7.990801062180112,4.302782636875405,-0.5108366279197002,-0.025049816058747145,0.04732945129079411
0.5312499,3.9773181372172486,-8.016550795031057,4.304781702369486,-0.6696788114808211,0.005064741802501135,0.30127963108271144
0.5412499000000001,3.9869825799136143,-8.052695857556635,4.322170811599423,-0.6198969437242123,-0.03974536221905142,0.4155906740630807
0.5512499000000001,3.9742717213296013,-8.065654318242558,4.309838560730282,-0.39274871785166404,-0.08996904326536781,0.2166447065844684
0.5612499000000001,3.9878862125466243,-8.021620695138724,4.2871298797696165,-0.18827562799351225,-0.15031871519827972,0.1738724483404788
0.5712499000000001,3.9889791874071934,-7.988664817918843,4.2954646188939005,-0.14206301332348506,0.05731427536404911,0.18267166086344472
0.5812499,3.970221393198319,-8.0228234608045,4.3021110161730745,-0.04027300109653768,0.1393451708209613,0.06034169856724764
0.5912499,3.965295627326647,-8.071198317366637,4.294081655155817,0.23632086853503628,-0.03253153067601266,0.021431563375731242
0.6012499,3.960364201802447,-8.049103500654319,4.277615558803542,0.2852865984422694,-0.04945644673726876,0.004375056644805231
0.6112499,3.966616214512993,-7.991190127872781,4.253910648641173,0.12490637797728579,0.0044642089618619684,-0.08789417402432555
0.6212499,3.974200437389561,-7.989484075414039,4.274933390463414,0.0640126865110178,-0.039225372020101824,-0.07404339418188649
0.6312499,3.969302592450382,-8.009306888106412,4.311757631480065,0.08118419041124111,0.03565184801694377,0.0034782610853599854
0.6412499,3.9648364753361003,-8.026726378047462,4.314524462329266,0.07106203100703636,0.07136901172941035,0.010115718310767158
0.6512499,3.9462028464104946,-8.030049991298268,4.303577943458049,0.10733772657600987,-0.022903409107350087,0.006242893382393008
0.6612499000000001,3.9522735321475118,-8.008916683758644,4.290313445961423,0.07007482586462238,-0.04442058659365937,0.029969438156562403
0.6712499000000001,3.972111547443782,-7.991604869759557,4.284011345699761,-0.13415286602522522,-0.024034687528879894,0.09211414387846811
0.6812499000000001,3.947423109575428,-7.998864088286962,4.289245638050985,-0.27221458793141007,0.031585819536171934,0.14546784964605897
0.6912499000000001,3.93822505809059,-8.030382556260369,4.302398633981724,-0.17621689290801726,-0.026169380389513688,0.048451720575738925
0.7012499000000001,3.971952375518633,-8.02798436636399,4.307771466737191,-0.08551853041626789,-0.04756788318262541,-0.00926136301733171
0.7112499,3.9707698091263546,-8.019621422563203,4.291026439190619,0.007847945176514918,-0.04178010101511095,0.028093436562241232
0.7212499,3.948809815408115,-8.032004324506026,4.282610542196168,-0.00665213578927837,-0.022774805701660863,0.03485782191655131
0.7312499,3.9558319659051233,-8.003463291449451,4.2796940378633,-0.06415841858238348,-0.006549662282030685,0.035851273450487005
0.7412499,3.9585083997130686,-7.988634812902691,4.276533211350884,-0.11239481417516692,0.07737676366828247,0.10631633923277925
0.7512499,3.9519212059434308,-8.029241675037555,4.305454594645451,-0.18162740748446193,0.09726500840390881,0.11991535658204697
0.7612499,3.952187180599496,-8.049859328412518,4.317929906873339,-0.030954507730094196,-0.09489777657647604,0.08513794444313189
0.7712499,3.9742347271265555,-8.021174227361836,4.2839956911460355,0.08487298644190953,-0.11198418888033719,0.09838415267157312
0.7812499,3.9759841967493603,-7.986781843660807,4.275966888269394,-0.1737418706570292,0.039805149875083864,0.058112089173652466
0.7912499000000001,3.952079770686858,-7.999963588440986,4.286627731006623,-0.36521988487816176,0.008431381740947517,0.034520424420221935
0.8012499000000001,3.9685726932734418,-8.045290013175412,4.289698651100081,-0.19821753309888782,-0.09518208347647371,0.07005531078380632
0.8112499000000001,3.968696002656551,-8.04963503358592,4.29420502275358,-0.09565674825999745,-0.07133436462840531,0.1056872979752414
0.8212499000000001,3.9456307321227095,-8.031101784413378,4.289704571117034,-0.14422346587583193,-0.0625027196264718,0.12862670909255033
0.8312499000000001,3.9469462640698696,-8.018776151918333,4.272607116405498,-0.02332736306450358,-0.0824972582799714,0.07537748143640419
0.8412499,3.973005065056695,-7.993509396272865,4.265343744062646,0.03987301176952962,-0.004185532483761831,0.0020249174419037707
0.8512499,3.981647181107177,-7.991022311483985,4.291898453775374,0.019634245772607053,0.11033534441092176,-0.06778154538309954
0.8612499,3.960752755781934,-8.047032626231717,4.318106070055726,0.0638044364667067,0.09265875716441926,-0.039278795608826786
0.8712499,3.968821382669464,-8.070515685391397,4.303251194464584,0.19359395570227086,-0.09712113869875379,0.010658468683579104
0.8812499,3.9707282367385752,-8.027631098498755,4.278580015093137,0.27842692410832,-0.06376062567859009,0.002660805681476717
0.8912499,3.9615855637704627,-7.982200373188969,4.292586078076335,0.12090199126747753,0.13179836379971438,-0.006693820267216454
0.9012499,3.963083272782551,-7.967962209457978,4.300838146702295,0.004129525347599652,0.03331840979294053,0.026874935240358284
0.9112499,3.95649641820043,-7.983557363158361,4.298675497957118,0.023718322280558275,-0.01760259675867438,-0.010446241316726685
0.9212499,3.9530890026396848,-8.003560167984023,4.285725593770947,-0.0005621833277647443,0.095157845801587,-0.022317771519764263
0.9312499,3.9668521353364543,-8.026954238613518,4.2800567256605175,-0.19290376363057232,0.027734579729999338,0.057278771309655786
0.9412499,3.980048684873746,-8.02887350012629,4.2657682499738785,-0.41166310400772554,-0.1012007275477375,0.16264937662135198
0.9512499,3.980215493815266,-8.016505156139065,4.255524075926699,-0.44626425400024433,0.0715593672119397,0.22896002526228384
0.9612499,3.9717441897171457,-8.024323699620153,4.291401477061112,-0.41185242711749326,0.04199240271268373,0.25887926385015014
0.9712499,3.9523788548092647,-8.034343891065602,4.316275506380172,-0.2775488869500364,-0.12290380787195315,0.17384818485506573
0.9812499,3.9606607562051366,-8.035027777471159,4.292420641792965,-0.13172938751188942,-0.018844452454040022,0.05535191453293859
0.9912499,3.968246881313681,-8.013136045295186,4.292173445903602,0.11960472733887001,0.14040862181391717,0.016776862337141454
1.0012499,3.955338739758884,-8.005815084769123,4.312045257414844,0.31850183114640057,-0.011308880592104687,-0.1124549820772192
1.0112499,3.944228922253527,-8.010569855324983,4.284188612797074,0.19689857917575923,-0.008724712068397278,-0.18254511237281568
1.0212499,3.9476936043374415,-8.003922213783108,4.269890492841368,0.09204169545650014,0.17800138485635705,-0.02700645193197702
1.0312499,3.9427101581051387,-8.013703715830506,4.303745318306747,0.09017254358485181,0.10783397337815187,0.03901785431731191
1.0412499,3.954442179111189,-8.019438577461319,4.315147835088301,0.01926936559290254,0.03297044117331376,-0.06425433438098772
1.0512499,3.9526955260087124,-8.005201663010096,4.294730615182192,-0.05961687965092214,0.0725012086153593,-0.001965904492592943
1.0612499,3.9358138743854205,-7.99534047463145,4.280634052627471,-0.08133846034427823,0.10460495470100384,0.12233503412441632
1.0712499,3.9370742013248523,-8.002481166238073,4.291334683810351,-0.229222551327112,-0.09177258897809565,0.19341430773611348
1.0812499,3.957825456594786,-8.018282888582396,4.290888946933066,-0.30055398502441605,-0.10069286527751059,0.22301726316553877
1.0912499,3.9898033118239797,-8.012074117466483,4.267355830434718,-0.17833335298234015,0.016876603023940572,0.10797288466007975
1.1012499,3.9938545200844278,-8.012093811139605,4.268488919669949,-0.1505636567546008,0.0725632481499146,0.06897812818947113
1.1112499,3.965018497726742,-8.031985122497856,4.2893174093746955,-0.20754331810268822,0.10529574384714407,0.15327372019743757
1.1212499,3.946521610324846,-8.045947550537027,4.304205549423778,-0.12844101834548072,-0.013346933002754302,0.11047425438355457
1.1312499,3.98042126890833,-8.042862238681288,4.295408594669091,0.16255354988061893,-0.048080354346131025,0.004490674568792533
1.1412499,3.995540548999963,-8.017364269627206,4.280202175951991,0.1938144069822691,0.008187382144105977,0.08383138273711332
1.1512499,3.963344415351531,-8.00825153786337,4.288914753242273,0.10413898848012612,0.03378458305803707,0.1465184381825711
1.1612498999999998,3.9418647563162144,-8.029983602289652,4.2914981128574805,0.19650276353345855,0.015566335657181081,0.10159388324404735
1.1712498999999998,3.9476030861751403,-8.024640905898558,4.270569222224887,0.1693864198064595,-0.01717630043263465,-0.03580524910226711
1.1812499,3.9564627029032673,-7.99516177047144,4.272819637538196,-0.008286334256513388,0.038781837586822215,-0.04189688173462201
1.1912499,3.9609392139931363,-8.000505508524833,4.298441578833992,0.037447013938154125,0.12838210585725426,0.059550772057715334
1.2012499,3.972157369894939,-8.039001241451977,4.310904045367059,0.15396871231092482,0.042892081888864314,-0.015307350699970376
1.2112499,3.977542259800368,-8.038630649477353,4.296608787211092,0.16908899383569687,-0.0130550524410112,-0.049450931108959796
1.2212499,3.9747803683664054,-8.012233400479657,4.291699964675649,0.10848190946527382,0.029045839631505685,-0.1288523078898001
1.2312499,3.967074936879723,-8.018919635426736,4.291423579385373,0.09712382275508225,0.04116359060156939,-0.04011204748103084
1.2412499,3.9549939939743357,-8.017854705970798,4.274506507115529,0.07598070779686862,-0.023395016237971727,0.19228219801472315
1.2512499,3.9534880624187356,-7.9832108018277435,4.2737883724585926,-0.0252075681586342,-0.07928945117203151,0.114512334909219
1.2612499,3.952650065700125,-7.976044643471848,4.288498183917195,-0.19106046483522734,-0.03295328782162466,0.13765157370181194
1.2712499,3.9397898539301224,-8.00962950920614,4.295050082597664,-0.1882546596432182,-0.1130740828682194,0.08372338637182741
1.2812499,3.9492684635560082,-8.003321263285438,4.278545296119872,-0.11580044856540453,-0.09807494135974405,0.04262626333501814
1.2912499,3.9774914420488905,-7.994081911041303,4.269555798354597,-0.2657619357804492,0.12162380575606782,-0.02169010678602436
1.3012499,3.9802292925974774,-8.039243429998907,4.285325480619309,-0.38354534322203665,0.12551885562238696,0.07661009209411514
1.3112499,3.9771694490763263,-8.091470858497434,4.302623870927962,-0.17435363353063937,-0.009495265171545558,0.12619877429842402
1.3212499,3.9860624893427903,-8.079565824340778,4.304768050628007,0.08676942771766191,-0.01222142163172652,-0.010261199546834628
1.3312499,3.965468016462927,-8.017635338743752,4.288759608008398,0.23855188620872536,-0.007554145320348351,-0.06882068928218005
1.3412499,3.9467187016681304,-7.974352510242255,4.286365690802731,0.3286602139608233,0.0013345248128736093,-0.15831229302607538
1.3512499,3.9474299888670483,-7.985497675984488,4.3076726627730775,0.25815993571078133,0.034144234348612676,-0.15129755732761727
1.3612499,3.950830102936846,-8.03408748017819,4.319112318710116,0.34444392929514933,0.09712805256859498,-0.08064234442310204
1.3712499,3.964781913589064,-8.027977462868268,4.293229584282802,0.3795639986005884,-0.010129701365583521,-0.1424346958790737
1.3812499,3.976115070928221,-7.9647659913169715,4.254743512066992,0.09107158863626555,-0.017700809932017388,-0.07878939525628477
1.3912499,3.97362933274135,-7.94446536288109,4.275306015403567,-0.23086205963595413,0.006612453976226255,0.08055604002108338
1.4012499,3.9674201510487257,-7.994883666147805,4.318236260990138,-0.30930452383931056,-0.0659262096636404,0.10103747722124103
1.4112498999999998,3.965759138358906,-8.054796579896962,4.325788679009372,-0.10631363662048451,-0.04522492298145325,0.0739071578738581
1.4212498999999998,3.968988006917431,-8.053050251675149,4.303697512793966,0.08585215727710496,-0.015875129306848947,0.10521534081610616
1.4312499,3.9798941904410823,-8.018066231897306,4.273523972558899,-0.004081463456917522,0.017631648479771576,0.027529264619057244
1.4412499,3.9635081271223678,-7.979052897760123,4.257212696773677,-0.21071424004978634,-0.018211732671818925,0.0687148344237844
1.4512499,3.950646592403858,-7.977628083042424,4.273644793530532,-0.3374389545657494,-0.11733027007874625,0.20735342363052914
1.4612499,3.961568530305954,-8.014999026050878,4.286128249341288,-0.3865518758533356,0.0025296785112692947,0.3043178557070428
1.4712499,3.964200752086811,-8.055343401564425,4.292563659176662,-0.42944265478501664,0.07063527297451476,0.23781019149804278
1.4812499,3.9615527470414245,-8.065736826134941,4.287187656923011,-0.3102485456630493,-0.05965025685712495,0.18925779935478543
1.4912499,3.955138976817067,-8.028936347663498,4.263234547953598,-0.2545720433550328,-0.07008028997777796,0.20594718338247062
1.5012499,3.9447344008273526,-8.015077941432809,4.261929967239149,-0.34649077856755606,0.03164738101373767,0.14801393434718965
1.5112499,3.9432486046601363,-8.033559474409062,4.290141904889973,-0.24358158410759415,-0.013093899173363012,0.1686375074640197
1.5212499,3.975207365688632,-8.059570059920198,4.3243524344272934,0.23119371669864724,-0.13743043911771222,0.012241910403202225
1.5312499,3.986840521251115,-8.065952340411277,4.349198075408837,0.703386037549557,0.046840707689023146,-0.31576195221290754
1.5412499,3.959523120494768,-8.037564260014518,4.323592134245414,0.9228860219299941,0.09121807626642536,-0.5117938167022237
1.5512499,3.9504668430579923,-7.9967322675993096,4.275970841086815,0.9933778608176023,0.024334106199029745,-0.42751184213939714
1.5612499,3.94735598255824,-7.954329312466512,4.267654545733774,0.6493741950059361,0.09007429935074412,-0.21775938759118602
1.5712499,3.937948702234025,-7.947564506626422,4.289146936064325,0.1853061396421619,0.06810752190073967,-0.03726104854624148
1.5812499,3.9591586643675925,-8.001051422240591,4.280811472306439,-0.20642811425523253,0.02808943753754421,0.10057109456935706
1.5912499,3.9746020113978413,-8.025960005212315,4.261239117452957,-0.5710724679676583,0.03416711228617674,0.3037517605857274
1.6012499,3.962330442287596,-8.002695598848208,4.250201465038335,-0.9355823473374775,-0.04650278355926423,0.4968758462582515
1.6112499,3.9478732638592726,-8.006165167435698,4.257155864482602,-1.243177455191371,-0.13832526267335118,0.6515772291429631
1.6212499,3.9419430193637437,-8.034947169105568,4.262165537474245,-1.3263435674949358,-0.19307810390965352,0.6880639591210558
1.6312499,3.9484524477101735,-8.073403771148376,4.325709280772885,-0.7922146722125024,0.07912024980735992,0.6936151873342099
1.6412499,3.9766341283331252,-8.12620991360065,4.490715019756114,0.6389081325981046,-0.048289980581538994,-0.09190415019461831
1.6512499,3.989488030562247,-8.045607440741074,4.3127554605880185,1.291878273176244,-0.43523649811307313,-0.8986446523651105
1.6612499,3.9690992099447784,-7.893328143305081,4.048934241569258,0.5577405780543178,0.3411747462244033,-0.30900827490362065
1.6712498999999998,3.918303814085307,-7.967691868218468,4.265310742770526,0.28834622326614084,0.47734629275967655,-0.06513530404806753
1.6812499,3.968582012025852,-8.122466118899387,4.439840681991914,0.7463469010571042,-0.16923427968933538,-0.6382538401585747
1.6912499,4.082986399856135,-8.076308620516286,4.314098790076741,0.9043371576424891,0.08180434468171557,-0.5649217698481199
1.7012499,3.9907400127651065,-7.974510081373225,4.241503110261746,0.5433313110697663,0.37662270750791327,-0.00012876306921689572
1.7112499,3.844626042668125,-7.96202442831717,4.319587954238593,0.026963938706863207,-0.24934303808603578,0.09583652813486715
1.7212499,3.9025832068486004,-7.907928530106037,4.238768727741838,-0.49044219470668377,-0.38911850558109146,0.10983779569257959
1.7312499,4.023446543648101,-7.891358250870513,4.153778511710739,-1.0825846475055192,0.1559491898240771,0.5191186229630848
1.7412499,4.004033203057356,-8.014140048121623,4.276826436878653,-1.461717015780021,0.07547631858202966,0.6359418932784376
1.7512499,3.9403993810856264,-8.160725597345161,4.372829458656501,-1.1567907140517804,0.028955125289991144,0.6088693035056787
1.7612499,3.9474938544520666,-8.201598116995712,4.499613312206665,0.21934027625656888,-0.03022063401359508,0.22258569630619643
1.7712499,3.9916402899746113,-8.036305945473497,4.400117870588702,1.2224393990019937,-0.6204740791713885,-0.7074585946370155
1.7812499,4.003429920010456,-7.802686627497132,4.0345758190088326,0.3342889175149121,0.09333129227153068,-0.31611645756259593
1.7912499,3.892520243788965,-7.926906049281371,4.200893272034118,-0.5642553916335823,0.7082375458907951,0.5501781428210868
1.8012499,3.884920220362236,-8.212021769027405,4.508563959853278,0.16483508045030484,-0.33243332028863215,-0.09681857086522763
1.8112499,4.057102180890469,-8.156613634006904,4.343729583731092,0.7989231678143224,-0.3393107229900335,-0.55580132217581
1.8212499,4.04680825560383,-7.972743737508422,4.172563653288808,0.5113421367043102,0.36424905936361157,-0.15394166719623753
1.8312499,3.876516457150593,-7.923463145233054,4.270302733024681,-0.02456111007158533,-0.06347430578552647,-0.051824536334801885
1.8412499,3.88620293370124,-7.925882696583205,4.286373876950605,-0.4284425179847323,-0.26618425870283263,0.06200171998030396
1.8512499,4.00320568645231,-7.971024901261973,4.251008855489563,-0.3807140137350161,0.18258513026781029,0.2868235032763179
1.8612499,4.023112524651708,-8.043166847513946,4.336347146282653,-0.209280552369428,0.16692928603826662,0.054870847587358905
1.8712499,3.9869433504796374,-8.056551203927638,4.362907469815383,-0.11126251718031901,0.08031165606724439,-0.07684687335792573
1.8812499,3.951090975019695,-8.049955199797546,4.326846614271715,0.16812578000610434,0.050830976147183626,0.1547335881552379
1.8912499,3.942389707119894,-8.048635150368675,4.301067696669532,0.2719702417402075,-0.243757725178251,0.02450130252550831
1.9012499,3.9868902523746863,-7.96505865019496,4.208037321359702,-0.09448280409161507,-0.18091466998855826,-0.028612179556215228
1.9112499,4.005109554116207,-7.9104395911113965,4.171847097939323,-0.6403385480685692,0.21684829956571655,0.3530765770777848
1.9212499,3.942883884255483,-8.03711888697907,4.319876233487316,-0.7845386789544866,0.2838760019865886,0.4258832889942823
1.9312499,3.9151633704614706,-8.16528662806139,4.4088221022592435,-0.24630185379111402,-0.1189748153840686,0.17625579390008142
1.9412499,3.960861316234614,-8.108052224066665,4.317034250533234,0.3207091632009698,-0.28859049629171596,0.06028934314372542
1.9512499,3.9770796665725787,-7.951962108260576,4.2204013466220065,0.19875498685251283,-0.01855128954333311,0.029337585305525108
1.9612499,3.951930804282247,-7.8928931903994375,4.2326420458442735,-0.2181747688372929,0.20163646966845927,0.004179753123313576
1.9712499,3.9380727714157335,-7.996033471788117,4.3169780406876175,-0.08875906862984337,0.20617825074940402,-0.06017284603759365
1.9812499,3.96254073980853,-8.110267238098912,4.35452777241182,0.44672483244400724,0.029066396895348366,-0.18752478762452351
1.9912499,4.002754046165141,-8.072101848116159,4.31263556891529,0.5772791359416214,-0.10501827905962491,-0.2461753492298195
2.0012499,3.9779061059318823,-7.9625928869974585,4.266379297787901,0.2975528589847561,-0.005611874019038957,-0.19600795648704508
2.0112499,3.9250265739897605,-7.947979655115043,4.276414377798925,0.0644938592989468,0.0519709828472395,-0.039254815592054036
2.0212499,3.9365532531168763,-7.9764017596109325,4.278956481952076,-0.08103175369952818,-0.015624515335353525,0.14510409350786105
2.0312499,3.965136276264472,-7.998693265291625,4.275924383820593,-0.27917160383008,0.05149897619935353,0.21211904182391078
2.0412499,3.963472649433188,-8.024087926335422,4.297533698505161,-0.3793767942782377,0.04912425567242844,0.2428384108335725
2.0512499,3.9606688572266298,-8.033753613806399,4.292410928383179,-0.4187809483988777,-0.13963815862480383,0.28321930667687395
2.0612499,3.9734570517250507,-8.035832718707455,4.278458843242129,-0.3869417299235566,-0.15979351662053612,0.15391734060313553
2.0712499,3.9618516110755957,-8.030623783178093,4.288547354037227,-0.25915225721476504,0.04341901281333319,0.07567531119861688
2.0812499,3.9387227667448315,-8.019363601233076,4.29646739900257,-0.10660106681682782,0.044356318883871336,0.1440161246827259
2.0912499,3.9681994697782383,-8.017245248795083,4.309350168291869,0.09930274507961584,-0.041417255126752664,0.06821665015570666
2.1012499,3.988796814016357,-8.039645760999358,4.311418319911241,0.2913715049572895,0.050061919118623885,-0.051865342237083896
2.1112499,3.9692465830210764,-8.062966783627635,4.30678914554756,0.42111847115790857,-0.08197005918647451,-0.15436620675288928
2.1212499,3.9619833176188246,-8.025492522811533,4.29332779465664,0.49365873905839486,-0.11718896010157588,-0.3101432444381694
2.1312499,3.965960664246981,-7.953445377265282,4.2533399180518145,0.2964331955427761,0.09366445042886432,-0.11637345113182868
2.1412499,3.9491243118677533,-7.957128268070345,4.267000251221938,-0.0030276379959858434,0.06980876037206359,0.04178804358929662
2.1512499,3.950584418590401,-8.015527296806429,4.317998697409839,-0.10767581375668149,-0.05165522963290792,-0.03754762620611492
2.1612499,3.9858956821692315,-8.033672319882378,4.297139134584038,-0.18995175896310088,0.07819959389303621,0.1378688450611479
2.1712499,3.967971517812548,-8.022378921057433,4.271115198812086,-0.2698003253493528,0.03339759322690092,0.33017352100026076
2.1812499,3.9222211900253257,-8.00710094908988,4.29555320867202,-0.4020402896164715,-0.2335753701119162,0.22177479080010484
2.1912499,3.9473310979039207,-7.986603752428809,4.272459850307108,-0.49869121145978557,-0.1190459988682918,0.21942435041931996
2.2012499,3.9550637014283496,-8.004343096948459,4.271351903903568,-0.421829347496572,0.04817056811492334,0.3534145708498979
2.2112499,3.948007574337426,-8.049881085344902,4.327700609351176,-0.1189594201189956,-0.06627453207876145,0.07814170729889032
2.2212499,3.989894158062251,-8.055372019610079,4.305688007113086,0.19304467644044418,0.03040958677171141,-0.07655758374536921
2.2312499,3.9818428284282756,-8.040727145012392,4.27289244556935,0.3442998001899505,0.06206456490134912,-0.16791945844315234
2.2412499,3.965801942155049,-8.018156185630223,4.288568657212731,0.4772751490915248,-0.09588994630150326,-0.4020380775477932
2.2512499,3.9882922158858003,-7.979334674123139,4.276940224298428,0.4748717735045793,0.14831832119376812,-0.24835233417364755
2.2612499,3.9563402092688893,-7.990747535418512,4.293741105282683,0.3970297668735023,0.2561069056511348,-0.08262770898215052
2.2712499,3.928789749867428,-8.039549797136926,4.322754261043748,0.44742794588705515,-0.1345427334858928,-0.19858567413262082
2.2812499,3.958961617305102,-8.001111031341365,4.285868564701428,0.3243385857709524,-0.14974383733207108,-0.13204208662239017
2.2912499,3.974983157046004,-7.934996416790125,4.2460127132860555,-0.06858367086143419,0.15171433700945358,0.09885334544577468
2.3012499,3.9473154128614465,-7.959757259502466,4.268916354287739,-0.4146162307513269,0.11224354875613052,0.08233653817981974
2.3112499,3.935476772238939,-8.020494833625419,4.2986908648577264,-0.46465875308036064,-0.061508405449384934,0.03832311697885267
2.3212499,3.968056485917446,-8.047292443862268,4.292832930291529,-0.3438528710871725,-0.06995360109427486,0.23394086220173282
2.3312499,3.982472588586262,-8.033172708594593,4.29704854786293,-0.2931898991008562,-0.03292733755885641,0.12155038172682339
2.3412499,3.9867747398027653,-8.019153428021726,4.295306365772158,-0.08321792824336681,0.017522188108777814,-0.05540160972717896
2.3512499,3.9930082113302667,-8.016931964267549,4.281516680235452,0.0018866837026297882,0.12242921375450377,0.006331211369452299
2.3612499,3.9682326190688975,-8.034590463805502,4.2868113694411845,0.08977290416519955,0.19408640593477253,0.01911283113680322
2.3712499,3.9496549589665517,-8.051594315095508,4.29352954031545,0.22255989288429806,-0.0036771964952373535,0.06787215346759258
2.3812499,3.9603444526051663,-8.022921205711587,4.284444266448404,0.2023648112009313,-0.1326605755625276,0.14746754215781732
2.3912499,3.9522088572855156,-7.994861232800756,4.265369988021346,-0.0037528610497833824,-0.014729126148635167,0.14215940587131845
2.4012499,3.9543719873621606,-7.993361021553763,4.266371320458085,-0.1415021889542771,-0.017230227561571887,0.03537823705690032
2.4112499,3.9678299246378907,-7.993608987015108,4.2929015881827555,-0.10646130916496106,-0.011991679004570668,-0.0006907702764293437
2.4212499,3.9518175947205396,-8.014458060349979,4.296142843174973,-0.12802086161968068,0.11899523645202034,-0.016538983502057288
2.4312499,3.955971856959982,-8.037180604620978,4.301156793469118,-0.05891227562005588,-0.00961022796654053,-0.20273838025338886
2.4412499,3.9980687514949023,-8.020577923572644,4.292198613894246,-0.024284631088536644,0.0019436666722711707,-0.21143708281221515
2.4512499,4.011914398161632,-8.004332065722627,4.284050910751121,-0.029269240268379584,0.10387334715141036,0.02047737946133406
2.4612499,3.968047870214858,-8.030453580800476,4.319403373270173,0.11334765899538554,-0.08536411707930204,0.010559343451537712
2.4712499,3.9567961576218105,-8.037445743014636,4.315784187212529,0.2322629663400024,-0.09999228376579608,-0.08755006191290572
2.4812499,3.975991648514327,-7.9989348517665935,4.283794675781651,0.16788784345038596,0.09372032183860293,0.11758544877324255
2.4912499,3.944260803027272,-7.972955220217225,4.2813868723346085,0.00948878013015556,-0.055594098672626796,0.20736188532713942
2.5012499,3.9312887991810848,-7.9786164443974075,4.283557805393892,-0.2934980230529633,-0.09040731791865607,0.08826392450351131
2.5112499,3.9599430849660924,-7.983404994132291,4.2727379138440025,-0.509342435954882,0.1258090853487155,0.18709109266057533
2.5212499,3.9648893824597904,-8.014749818089927,4.3021401573454,-0.5238573827007462,0.03204330244351738,0.30090313455402384
2.5312499,3.961179435734122,-8.06755435258722,4.331610954902473,-0.3299246967826202,-0.24951956766836528,0.14491448567116041
2.5412499,3.9871808582974952,-8.057668716790813,4.301444366887481,-0.06821023785611598,-0.12864475918451274,0.054311766531637606
2.5512499,3.9915172321894157,-8.016720777923565,4.277775136861989,-0.04336875791805256,0.12006023992099736,0.045788674007954104
2.5612499,3.964240254451448,-8.019852256446477,4.289710705981933,-0.05627308415157242,0.02826317379960046,-0.01905506083964163
2.5712499,3.9548172545976845,-8.039982579351854,4.291109542816112,0.013333832828157453,0.009143782854795082,-0.04942058087045751
2.5812499,3.968078205647549,-8.043013739844703,4.281486294999457,0.13158687460423207,0.05141047381591433,0.032429302252248854
2.5912499,3.961563985900797,-8.033860600968357,4.291352722572031,0.18158466642729082,-0.04435852224915003,0.02646264013510194
2.6012499,3.9419896877118905,-8.01947596115363,4.292006882120479,0.1784434721890247,-0.13363317170138253,-0.1123300111901346
2.6112499,3.9680837982320796,-7.98934313014864,4.277870994474779,0.1064739715369358,0.0014026528853056303,-0.18105495745025157
2.6212499,3.9710092018025103,-7.98471951249974,4.2865285233170365,0.04842928299705689,0.19705971103061912,-0.04244557131581923
2.6312499,3.936831596958736,-8.02681287317316,4.30995448907193,0.10546776593971519,-0.022393710282568577,-0.07413052819655648
2.6412499,3.964014592237873,-8.024723868666332,4.303205146041499,0.17921145620946388,-0.1537137552539511,-0.18015297448710638
2.6512499,3.989520533086035,-7.998306982813605,4.281312583129937,0.0510908918313466,0.1233915863914634,0.09977964415324737
2.6612499,3.9578061142110372,-8.008839301214506,4.299658152547569,-0.07274882313179042,-0.07353109724917228,0.18042464926858107
2.6712499,3.9494353947181637,-8.009386495828382,4.310007960071024,-0.19927019890542247,-0.32220845900263695,0.11043323967786746
2.6812499,3.991120360324267,-7.989500235765962,4.273322783431001,-0.2444456051656152,0.002339278426262852,0.2605698017671699
2.6912499,3.9658875312165547,-8.005750699379925,4.283628448535102,-0.2611781769636806,0.06601583452892276,0.20472050061119168
2.7012499,3.938283673867504,-8.032781793243162,4.310717724833607,-0.32312575042439706,-0.19279711190555324,-0.04068036694215178
2.7112499,3.9743961516366926,-8.02050825563522,4.282379770574953,-0.25725604264810686,-0.039676042141607,0.04986260079280954
2.7212499,3.966305107906777,-8.021508289672227,4.283488292279484,-0.15855858754816768,0.12070035294417339,0.10317865645804467
2.7312499,3.9547090111177106,-8.04632029052393,4.31136881243931,-0.05293359395494426,-0.1532053216151979,-0.1546323715366688
2.7412499,3.98585806090292,-8.042294211471878,4.300688589234669,0.20163948714956956,-0.08460015459907065,-0.16737202665143938
2.7512499,3.9909086690265867,-8.028822838282245,4.291323122066061,0.34423789702512936,0.1280128592018245,-0.03709040471369058
2.7612499,3.9759997417222466,-8.038968276190715,4.292894908774396,0.32214958438407953,0.10953031221584482,-0.1222270789773091
2.7712499,3.9611123667485626,-8.033405057900655,4.2725598738825665,0.27523066979230376,0.03528167043069261,-0.02197923909762196
2.7812499,3.945073497637511,-8.022882321046648,4.276781150628089,0.26326529675432336,-0.019889702370501618,0.10392806759588186
2.7912499,3.9546924482092427,-8.004948294159636,4.292861460756982,0.208080887702951,-0.09427503645947691,0.006306709444464276
2.8012499,3.9600668622586506,-7.97697858826303,4.280487906765338,0.012345000146266416,0.04767674820367654,-0.013176994456330438
2.8112499,3.9546371173078816,-8.007843669752832,4.289526404907388,-0.06605150187963717,0.0382383631519537,-0.02345126095441428
2.8212499,3.9652077466333266,-8.023098201597193,4.304517052710243,-0.08051529002953742,-0.10436025386594122,-0.039054155695476885
2.8312499,3.98163848737847,-7.988212775244698,4.290131861287383,-0.09633017655096936,0.09917043274579776,0.11991781173182561
2.8412499,3.9661898297944047,-8.016811017076044,4.307110436675763,-0.09579442173300406,0.06753318701946893,0.12952483638392578
2.8512499,3.9554573824488695,-8.042248167899544,4.324861385644443,-0.08756216764591193,-0.1277855071402237,-0.037465752925290335
2.8612499,3.9801031088861234,-8.018148686124551,4.299945930446511,0.03541807289934077,0.05176293742089683,-0.0050248575689118575
2.8712499,3.964030799908633,-8.027692228548855,4.28928795924011,0.05564482825663907,0.07958526358418028,0.20850147207606493
2.8812499,3.9408071814358303,-8.023007435590134,4.2995185560780165,-0.02057341190576045,-0.17462565898965698,0.11212400289886329
2.8912499,3.9720517333554533,-7.989157945484382,4.275670717171887,-0.05995397465769279,-0.036877843697912,0.10743790581057695
2.9012499,3.9754125098892943,-7.9868720017416015,4.264058810525636,-0.14080368815412633,0.11880547098107594,0.1808152143913225
2.9112499,3.938279874818126,-8.023858267693633,4.306362557310488,-0.25035795289833146,-0.08381467018405285,0.05603691054637751
2.9212499,3.9512604824394444,-8.042007625123068,4.3091460426564066,-0.1394006265485316,-0.16390121617578546,-0.0144018051196186
2.9312499,3.9837529071074966,-8.026576611429336,4.274303718993664,-0.058230290731413815,0.051527205914019894,-0.05692612196121626
2.9412499,3.9648223369502347,-8.025410048268048,4.289456309812016,0.010867725675902832,-0.014754895539827824,-0.06122143006860797
2.9512499,3.9546842543464784,-8.029640766776156,4.309728680166339,0.11593170557620743,-0.1469264935674789,-0.009543670252637517
2.9612499,3.9729878506021006,-8.023776750532129,4.297197126608982,0.12134257382109118,0.04437125367844171,0.011333173519434827
2.9712499,3.9760394303358417,-8.025168005362765,4.300209487165018,0.08181361000619501,0.050393228017420084,0.0351040858362514
2.9812499,3.9658013182954748,-8.016640445080167,4.305736762934447,0.08916151019717455,-0.11574538511247161,0.009267417636191048
2.9912499,3.9639158248647486,-7.989583082862066,4.268114952019715,-0.009506747710916374,0.0022547266619460833,0.12052837134554849
3.0012499,3.9496462740158296,-7.990091357988195,4.270063172574174,-0.11483291752666305,0.03328139785909103,0.25849055711217
3.0112499,3.9429904355378524,-8.007023680666519,4.302514477480473,-0.2509772604755132,-0.06971969937021613,0.16199228195901205
3.0212499,3.949948930179423,-8.015629244651443,4.303236908892843,-0.2859316199193465,0.004730811097762851,0.13114137130557305
3.0312499,3.96350841093474,-8.022118479823709,4.301094346866048,-0.25606474741702356,0.005903637325457494,0.09993042211315828
3.0412499,3.9890692499180713,-8.022174537794,4.300881703730974,-0.07979447225860677,0.015225732178635676,0.050636970676050934
3.0512499,3.983164773888583,-8.033053689458695,4.298210468423103,0.040072788401479195,0.03184431256646054,-0.027758008661819426
3.0612499,3.966287136341857,-8.035195831408602,4.305366986277019,0.15206093671688858,0.04435763124563436,-0.09943892229177585
3.0712499,3.963546355158463,-8.015156803589733,4.297320082139908,0.28837141081210826,0.022896576738337678,-0.15091654544219463
3.0812499,3.959343452682525,-8.010539523344143,4.270560059107948,0.12039669912188733,0.05177369452515916,-0.101514368099424
3.0912499,3.962801089981118,-8.012317891967262,4.276859718525823,-0.0668873519972586,0.06458460676117772,0.05205239354065791
3.1012499,3.970941467825593,-8.00504641987189,4.287969882490848,-0.037692997025638365,-0.08883582919309072,0.09299571530188612
3.1112499,3.9725528324736037,-8.004223237749759,4.29676265788832,-0.1252100431489629,-0.07112498101543255,0.10781917932817778
3.1212499,3.9621979913464727,-8.009466518989829,4.30028255982804,-0.2682486759602472,0.09221521068334745,0.15254491480221657
3.1312499,3.946998800797331,-8.010946915254161,4.279703952993673,-0.14621947471768207,0.04055884330660448,0.11314786675685497
3.1412499,3.9452900267008246,-8.010196687775847,4.2910042876845065,-0.09264045757785416,-0.04391779035589403,0.05589082473696063
3.1512499,3.977999789378918,-8.0228308035718,4.299072531063344,-0.15963191725427317,0.033796286447374736,0.004310391171076852
3.1612499,3.9820127427210448,-8.039253260450113,4.3035968634563675,-0.07540545363801718,0.1315684179759464,0.07249792352692401
3.1712499,3.955044662499577,-8.052470606826251,4.31326067501675,0.08405906494873827,-0.029713314925275847,-0.01377277267292147
3.1812499,3.9921697761944537,-8.021902520072,4.283286441523343,0.11139119117536862,-0.07036188539859142,-0.08938086702613808
3.1912499,3.9966180365277815,-7.977739892306089,4.27323207319205,-0.007801129998651466,0.12188622993550244,0.05267104831215731
3.2012499,3.927175425146136,-8.004885486910426,4.311554263933652,0.08188166588814004,0.013753976286171376,0.1148284015150133
3.2112499,3.9212052700837985,-8.0083635001245,4.303895826129834,0.16485470835801105,-0.2527680818546546,-0.011927132445986225
3.2212499,3.970831952672601,-7.977504505942466,4.2636174651128105,0.004719864193230999,-0.030212451884395218,0.012315130501135632
3.2312499,3.9797992833604305,-8.008264513977814,4.284688357335729,-0.27762099614948543,0.1657330777713019,-0.06814247298704122
3.2412499,3.967109847877956,-8.042906821540218,4.299566985471475,-0.22876505073846176,-0.0365406823988583,-0.09096613161315327
3.2512499,3.980793303868487,-8.01884866980123,4.287629949507112,-0.26334448915505304,0.016921365002805194,0.07770228969632038
3.2612499,3.9651220111072347,-8.014645357948408,4.282999896200375,-0.5446252209808677,0.02271211409311462,0.2760215033744233
3.2712499,3.942557158793625,-8.044646482016121,4.279546740376944,-0.5183934804665694,-0.05984617209010369,0.44333425195698334
3.2812499,3.9700415340743143,-8.053479025351963,4.3242367636384085,-0.1648449103470969,-0.05425522989074448,0.2677702913053107
3.2912499,3.995877317835819,-8.01696741580614,4.3107639347440685,0.006711047497622729,0.03125070891299251,0.0025146712976604874
3.3012499,3.9779458428719168,-7.991295116668035,4.241011580687373,-0.17022568876773725,0.16339621659428402,0.24615264841634166
3.3112499,3.949293436707024,-8.029285455979096,4.288031599849699,-0.12427619291050615,-0.020298377317527913,0.19874169595256747
3.3212499,3.960856735089218,-8.037179271219529,4.31566502064849,0.10886446458121575,-0.15035935085804672,-0.18727702278314234
3.3312499,3.9842110856507627,-7.9689669431183665,4.258526585035964,0.0009789124031137648,0.036876171637983735,-0.11168802714458276
3.3412499,3.942164656279864,-7.960045074271102,4.258816637024831,-0.26471894357558745,0.09957558188234883,0.14835455111471046
3.3512499,3.916277705377009,-8.013221934491424,4.308407502890627,-0.2830834194930925,-0.08389287868282366,0.08380564226226168
3.3612499,3.9573497152431427,-8.04600926634836,4.324221187980586,-0.1574777252425344,-0.02717996372073228,0.07489321795043316
3.3712499,3.9794306384472593,-8.051520235355646,4.304818447192381,-0.001955480180685137,-0.12834239154713412,0.06623049864710497
3.3812499,3.9795140942912326,-8.022256723784249,4.2864293539430935,-0.09614074028466903,-0.1534662750295425,-0.1609917472988126
3.3912499,3.962499139578126,-7.97487155332022,4.2543410643499175,-0.269888041199955,0.03632043512686085,-0.05274855929921097
3.4012499,3.9313502807366496,-7.997506036916947,4.258811268118354,-0.39381361187886677,-0.05660977860367029,0.16595919136295884
3.4112499,3.9480619759517537,-8.048351719954514,4.32807311208139,-0.24768443063820542,-0.29045258336843344,0.11288500291402132
3.4212499,3.990851019275021,-8.031333020373642,4.288403176666943,-0.08751741042683299,-0.14446917544972035,0.07566819694550929
3.4312499,3.977418683572585,-7.987356720220232,4.222575108204141,-0.2003447060705696,0.09420281413186402,0.14593030250200875
3.4412499,3.935798620417227,-8.001820845197221,4.276770276251882,-0.3148357891872929,0.048771671155331,0.16895181942147863
3.4512499,3.9672183744431733,-8.085574453434264,4.339022731572019,-0.03133353257916689,-0.004502934671945675,0.11394005579341288
3.4612499,4.010688405617292,-8.145321862979262,4.356124604807913,0.5189568284782025,0.017616662342180713,-0.07267815658797791
3.4712499,3.9758013787858726,-8.071874199806787,4.315282947560402,0.8009307683961263,-0.1239600882563855,-0.43904013437932504
3.4812499,3.9497038273249414,-7.917163547731486,4.222330937050953,0.616275034718038,-0.0939266627687572,-0.34405780652181667
3.4912499,3.925049878293055,-7.866408534902741,4.200883185600833,0.07690627326242946,0.14120785320236912,0.09326875260577834
3.5012499,3.929581154465901,-8.00445402428091,4.29476472603137,-0.25800832475487806,0.13347352611246868,0.05153232829329594
3.5112499,3.9799546334400557,-8.115766588239637,4.364702537440912,-0.020557324330328232,-0.009301458245043037,-0.03709330964319707
3.5212499,3.979557856739229,-8.073203138762755,4.341795419525912,0.25013392832115583,-0.08152611314847957,0.0703999473746858
3.5312499,3.955588147963317,-7.96140139545546,4.274485525536918,0.013627166015131488,-0.12322738924606542,-0.06805395336744857
3.5412499,3.9680615614189514,-7.904048873321536,4.233940149899057,-0.3970463927948508,0.03586795303967469,-0.030168283274778943
3.5512499,3.956404653032264,-7.978829325280728,4.274443319908566,-0.5704989163061348,0.13396280345017,0.21969695242289733
3.5612499,3.9455722310217256,-8.083914107741943,4.337945393647034,-0.19715903686943373,-0.05786337671045868,0.13809112531871723
3.5712499,3.940391909682806,-8.060334081531222,4.321347284435357,0.015915919421013117,-0.13654118024396567,0.09639325861024711
3.5812499,3.9319041622033515,-7.973342177954723,4.259882173695912,-0.11265207642114099,-0.11649379984564862,0.2018032992801821
3.5912499,3.937982275529208,-7.94045718025546,4.237136504627823,-0.15127922705788951,-0.07502523715864191,0.11789662996138173
3.6012499,3.9607794665961773,-7.981674461618494,4.260823226971943,-0.19695959070608443,0.07431482103350129,0.09156064276430986
3.6112499,3.9559409460971158,-8.078522179529227,4.321368183373704,-0.22228741496803736,0.1462089480964473,0.20355754139369295
3.6212499,3.9317031732395358,-8.145110589103744,4.338608055431497,0.1986266646038574,-0.17487052645757295,0.029676609958059322
3.6312499,3.9465739260805295,-8.061287017576339,4.277322419752651,0.5313013384670662,-0.3174875549128613,-0.2404641543116872
3.6412499,3.9659161148047115,-7.921745713523632,4.2318159239898305,0.2638267704337987,-0.10296923516870687,-0.14658225355000032
3.6512499,3.9651308397793903,-7.908584990805294,4.2398389435964265,-0.01788605081824051,0.14057036336415746,-0.14353890941689862
3.6612499,3.9806507276678054,-8.02599659025087,4.309072615450423,0.11034667257801485,0.2174859782152377,-0.20802834120791122
3.6712499,3.981127101924928,-8.123394478240133,4.355404397718539,0.3691066706055029,0.10933461130105765,-0.07198938137541773
3.6812499,3.9631845866046445,-8.111449418479998,4.3329286746255695,0.5337323617927804,-0.15208421168296207,-0.011979825901749166
3.6912499,3.9641919432919894,-8.001909150931418,4.254946201689192,0.4188820602913018,-0.18713635096872283,0.017467773181270966
3.7012499,3.958882896804269,-7.893622383140538,4.215967075000564,0.03422386567892034,-0.04209897956117386,0.06160653163530576
3.7112499,3.947381985554419,-7.89721083677227,4.25720614562382,-0.4267484889315513,0.04876573812415237,0.14486795821859508
3.7212499,3.9468497004008642,-8.008008462171485,4.314975581858262,-0.43548063905012835,0.10208719422047913,0.1974845994922074
3.7312499,3.9566168378297055,-8.111522610218566,4.351028049482904,-0.030950401813469194,-0.04889288505176847,0.051038458990222
3.7412499,3.9778521972559657,-8.100350707905699,4.314162090962852,0.22495669979924016,-0.22038766117419822,-0.1950388790160395
3.7512499,3.9874399104290537,-7.996075947287969,4.241362467028771,0.16457752332666567,-0.20601913888984566,-0.26651997506115177
3.7612499,3.983203015220808,-7.930509123072761,4.253764703438189,-0.038731952867358865,0.03237416961423984,-0.18404358216716785
3.7712499,3.966224080099221,-7.980756844852991,4.329820071316768,0.004979770369892209,0.1402547684355429,0.05616316890135619
3.7812499,3.9551537600959463,-8.075721282809928,4.354138849608348,0.22214990318299657,0.06523939327199708,0.05768021380345781
3.7912499,3.9707656201216674,-8.088026358495638,4.313815808444347,0.3224354372341543,-0.060743547168956996,-0.010078386619333544
3.8012499,3.9709720881613753,-8.013597951304599,4.26857586100031,0.2324652200237279,-0.14715708186665113,0.09850592773281423
3.8112499,3.9503242735431368,-7.942924155572936,4.23414179832251,-0.15025654191399512,-0.08105671997908917,0.025802169122092457
3.8212499,3.953371235332662,-7.934996597534227,4.248393201147509,-0.45086652734802296,0.018106017069938328,0.12039940753194943
3.8312499,3.9710306021863113,-8.016707204912334,4.314536544567865,-0.48324378297315324,0.12668484131383675,0.24472188456474078
3.8412499,3.9641850053433907,-8.101987556131764,4.368681230258006,-0.14346422405090006,0.07278808344949828,0.04496457341251423
3.8512499,3.973934180197151,-8.09212794836119,4.34301562748781,0.29246386998746937,-0.08997903976085514,-0.0634910748594979
3.8612499,3.995278686269752,-8.020365417159802,4.266789551078129,0.3576724598134303,-0.06041556963574855,-0.20269169701431722
3.8712499,3.972802864993556,-7.967080294112886,4.244341051897749,0.17013270227626096,0.06647926857968621,-0.20952280909027593
3.8812499,3.9535051432660966,-7.997280148531557,4.27582579946933,-0.013180682640344096,0.05038102486612659,0.03961464795488037
3.8912499,3.95269396036197,-8.070874078144662,4.308224441150545,0.346401001042164,0.07501314908983,-0.025160143469843015
3.9012499,3.949444103814715,-8.019006351419213,4.3216680830295,0.07827695325229155,-0.3391744221963862,-0.020086614924910165
3.9112499,3.99774977636943,-7.999896552119602,4.273689585638934,0.23097738990313244,-0.08252009112051031,-0.23352004351862923
3.9212499,4.030690800574848,-8.01865541846211,4.231802347544836,1.8340579606062637,1.507916405060075,-0.5168052256507267
3.9312499,3.234596350158591,-6.734482481502404,4.976972370447802,-14.676203188912485,-12.270390363750954,5.27937142421481
3.9412499,3.1896935404905133,-6.1690487745146525,4.925376317879263,-27.902958279155527,-23.52388536525475,6.0215811674928705
3.9512499,4.876134123102098,-8.336989849978643,2.515301516321004,-15.413273948591879,-3.8435119438481804,2.3004607003832134
3.9612499,4.54366252582992,-9.349791524049122,3.222116159092212,-13.757463769772281,3.7975239027869945,6.612489086701165
3.9712499,3.435579866899155,-8.779613995352923,5.846699757414882,-5.57289123139861,-5.95153005210396,2.931881098223156
3.9812499,3.7067598517527958,-8.046344752563476,4.528920968036604,-4.884526617658482,-8.239659518464178,-1.893448724464877
3.9912499,4.106882263239747,-7.859671171160006,3.3902210500375927,-6.508841646449876,-4.1369764709440195,-1.9828287013549535
4.0012499,4.10418266070076,-8.142535752441324,3.933566552287149,-3.396859616578158,-1.684611246364939,-0.34925631059131385
4.0112499,4.0443493454617885,-8.287603569525308,4.202653907666749,-2.405535148869474,-1.4543313195606091,-0.07538915115046962
4.021249900000001,3.8949605675164474,-8.031750020091547,4.263489959493854,-2.478362865086383,-2.720035542031675,-1.0680856106530439
4.031249900000001,3.872470397149877,-7.8002656600696865,4.147961772734449,-2.8572680034326963,-3.0650062592164775,-2.0270923424980514
4.0412499,3.9912679290843593,-8.006429793791849,3.913284771374908,-3.6101298567984266,-1.7094931914443896,-3.2153844318865294
4.0512499,4.060053062009555,-8.561560902119012,3.874536769716998,-0.5081814151759247,-0.28188032513172157,-3.812132213565791
4.061249900000001,4.148639303380918,-9.014680434656974,4.00378597634117,5.119311739538675,1.3792470389018165,-5.242979901675545
4.071249900000001,4.2090179894713105,-8.988377859876898,4.147200401099873,9.948917853114374,2.5275366418638034,-7.5136492939262975
4.0812499,4.2396181593842535,-8.76251024784753,4.1438792119084935,14.42006106537344,3.4852067097410746,-9.065217657622906
4.0912499,4.133464659495737,-8.466815952296132,4.049924623157605,17.372336009995994,5.017696668939577,-11.002824938122348
4.1012499,3.834763526384022,-8.228458087445343,3.9889854240796034,18.849583935079025,5.701074587879572,-15.649593299658047
4.111249900000001,3.6543705068164067,-8.278834512807245,3.91795876742979,22.34421881416397,4.60848337164316,-20.591220628626086
4.1212499000000005,3.9600660365433926,-8.277863575405691,3.942184401547549,26.083379310669283,5.044932738080434,-22.68961638909611
4.1312499,4.15726577910626,-8.211374379960066,4.212325334123236,27.98786673068651,6.4967533165234865,-23.887288485837235
4.1412499,3.6541458705849603,-8.032610375246364,4.597546427245004,27.268364619475356,4.09442962700086,-29.418626838792537
4.151249900000001,3.1442386712981687,-7.545359282799456,4.802243649521414,18.562385804726148,-3.420969578554681,-40.3303122704355
4.1612499000000005,3.242310971664234,-7.584845277317169,4.5049441389024745,13.474810286562974,-7.387571618841709,-52.693554467863635
4.1712499,3.401543776230076,-7.822389239215636,4.160810041015269,12.991589977135789,-8.627805563975066,-62.77725470154954
4.1812499,3.792237751241123,-7.510743929146441,4.321945989748054,6.206222030832394,-11.212768641440436,-67.11785356362573
4.191249900000001,4.5613572326809555,-7.167721795862486,4.807598357625087,2.497614648596649,-11.993899470944529,-66.50394095926517
4.2012499000000005,5.179181778387026,-6.569135713839348,4.797905736830767,2.2310045732669535,-13.258714117827893,-53.31552249159153
4.2112499,5.918121162632551,-5.987200901375102,4.174289848809586,3.0283184006523114,-8.800768939298774,-27.998145412908315
4.2212499,5.949864031017793,-6.53760896752332,3.883341975389862,3.6108838621721375,0.3612909239351809,-8.82257189696724
4.231249900000001,5.320697481629132,-7.727239335662491,4.7120797378703365,3.76272354243549,-0.9042038517886294,3.083151228341018
4.241249900000001,5.882926580664114,-8.232346065664032,5.239315130055756,2.8545141100823224,-4.732240745124205,20.800255562689074
4.2512499,6.447771325581666,-8.53231635155307,4.457377192099257,4.76162557886404,0.3864766048169228,39.44578872352757
4.2612499,5.846422502463191,-8.425856637295935,4.01722494815972,-0.10876047746944369,4.686341224775994,51.13428389926421
4.271249900000001,5.24269912263631,-8.190293634338328,4.00176685978291,-16.260745792308363,3.0253107695329557,63.14373553132073
4.281249900000001,5.851236366762458,-9.413604395243253,4.107063065485566,-24.66040013246085,5.729750560503139,79.3193567224351
4.2912499,6.862863947279429,-11.036250012237874,5.242555721063084,-8.732137762116727,15.531777499061564,90.14127072485958
4.3012499,6.80570300330423,-11.093204369677053,6.09510427947048,12.500269078807989,24.373969355279513,95.72223392356278
4.311249900000001,6.408820915836875,-10.421001835145974,6.207851191967906,21.03891450778228,31.681268724266506,97.76503126966067
4.321249900000001,5.943384400293092,-10.068593016571917,6.021283612416548,25.710924972429474,34.561978824149676,95.76722528341807
4.3312499,5.394150698691376,-10.511560227885097,5.021714302277032,36.87767410653354,41.70318806778704,94.16521956647827
4.3412499,4.120923004897124,-11.17636662972209,3.792778034783709,63.530663794035604,50.57194422834554,102.92193621070496
4.351249900000001,3.2836877102405655,-9.867699395334105,3.570305855858816,89.22853611772689,45.011567597696015,105.35502053365165
4.361249900000001,2.8831965117097673,-6.99505253882862,3.4952581837709116,81.79050519088207,41.744964012964616,101.21215802112566
4.3712499000000005,2.1783490919961292,-5.011118964443952,4.1730060784011345,57.515341678094906,49.41653861408056,81.75160128017592
4.3812499,1.589429338059268,-4.65596863708948,5.683100886315085,55.87186357940166,45.269099985920704,62.931632646505015
4.3912499,1.1771965753254652,-4.35873443900178,5.149918386983814,51.141945846883615,38.31129663108414,52.47053226311158
4.401249900000001,0.8250251322310528,-4.1556202642415485,4.192976511849585,40.33618260044272,36.93388388414001,33.56649116583396
4.4112499000000005,0.11481598416688224,-4.288209097118869,4.17374916679568,39.556909605052766,30.986962114732155,14.03444441534014
4.4212499,-0.32168693426071987,-3.45380542457305,4.013100879471969,29.997849140228652,21.61460384970072,-1.151325084131432
4.4312499,-0.47863348885777734,-2.7560520902796237,3.810089192960552,9.467369549340551,9.24186671484549,-14.108834761296144
4.441249900000001,-0.1690026777115858,-3.463389006769156,3.8546119537645858,-4.457052319619141,-3.4407113548967083,-23.80337081869924
4.4512499000000005,0.1274449902831647,-4.535317782732233,3.983169919289594,2.343865010746098,-10.027693006234271,-35.973990850059465
4.4612499,-0.22598203252723278,-4.430466754707704,3.856858310524401,-6.612260644601032,-21.766556342115823,-42.96938486093524
4.4712499,-0.23112726809926887,-4.541204805565581,3.9523463048883714,-31.069675322201636,-40.2595523514964,-44.2607756163967
4.481249900000001,0.5283478245848429,-5.544222729372139,4.293279017891509,-43.61350179907355,-52.10860408289438,-49.16293833107465
4.491249900000001,1.4516940897107011,-6.110398948191938,4.656838023693064,-56.93543901048478,-60.72591340095059,-55.058557060192946
4.5012499,2.2397183217657806,-6.443874573977776,5.114117043714888,-72.84318291506719,-69.77937837022311,-59.182234844834824
4.5112499,2.8935513155106896,-7.32343218885371,5.260322700236498,-79.81781554038687,-72.78200684314747,-68.03516396738586
4.521249900000001,3.6476728060518764,-8.356782229810701,5.0536521198565465,-80.36537234004065,-69.8257263679589,-80.5158367120182
4.531249900000001,4.7629161529918065,-8.980213769990876,4.790627340108539,-77.6052850673418,-63.2449196353087,-87.5719670617127
4.5412499,5.471959597053393,-9.669904815806477,4.63273890653172,-65.04431233565126,-55.10351821405546,-84.71532402051879
4.5512499,5.840058445451633,-9.985071913283628,4.379372936029457,-62.38117847594473,-47.789446661434205,-74.23749640117416
4.561249900000001,6.8239034527594455,-10.723309201222722,4.696703918795837,-70.85080425557355,-41.29990066390763,-62.13232929399718
4.571249900000001,8.302556779896468,-13.422157418722689,6.084753453429193,-34.10959151364886,-26.014235375309767,-54.24555546255935
4.5812499,8.062733369756312,-13.48214822516152,5.566292027819176,-5.794033401992772,-13.340461774797506,-41.414189671432915
4.5912499,6.45860890406953,-11.201687824623045,4.422420930402831,5.012945085410606,-5.225233269773687,-32.43183575942161
4.601249900000001,5.458356207726379,-9.59359761443475,4.5172634380116214,21.42892717861995,0.7389204219019487,-25.412944809331403
4.611249900000001,4.954485209150375,-8.201359149906528,4.119075490168271,19.746000825978694,2.5567771359352633,-21.115456507942625
4.6212499000000005,4.671674718141035,-7.456072094056275,3.8362933294388775,8.726959202785096,2.836478589827863,-18.956923543734412
4.6312499,4.668069332692761,-7.498303598694907,4.293805253371899,6.636030870240904,2.0562020595952935,-12.301102907685035
4.6412499,4.830626544615741,-7.577038281855933,4.401227368268788,5.76427070439634,1.4395173139823707,-4.65415703272886
4.651249900000001,5.052003102949618,-7.610338928327974,4.264472559255052,4.456852175202026,3.0680314905424946,4.492060149877394
4.6612499000000005,5.061781722131945,-7.572679401065914,4.271708181719818,2.4900666990130618,5.891371837895929,13.720619779099286
4.6712499,4.662633622196301,-7.485636134778741,4.245479494669733,-4.47334264099091,5.823800914132523,20.082403207730245
4.6812499,4.407125943138542,-7.525105597695374,4.277315634636649,-10.649819044116898,4.323113057522333,25.55105214379815
4.691249900000001,4.547073348718936,-7.944663923890271,4.29272090646215,-8.878753375222445,6.054180223123106,28.842353219703487
4.7012499000000005,4.446327318061773,-8.47475527954768,4.3596563505960795,-3.490970514335884,7.531799438098549,28.430949388840766
4.7112499,4.238910642084568,-8.383554405819611,4.602052992004363,2.906888947489724,6.657333478844119,27.42733833211503
4.7212499,4.160658028006935,-7.287067441090192,4.795087689719296,1.794264137510747,3.5610467914166626,28.35249926738407
4.731249900000001,4.020449677398882,-6.425487906023553,4.4806989501758,-5.591093421552541,2.550107811697885,26.531296445124806
4.741249900000001,3.870270942618879,-6.930327743611439,3.694009368498519,-6.677354296249761,6.129858893453293,25.32172435331251
4.7512499,3.6740544441902228,-7.589218515314999,3.593905595937904,-9.048970954055848,7.390170901538519,27.579613026840352
4.7612499,3.4952680001912197,-7.878116376916858,4.428263112363003,-11.25888408581356,4.708583760954863,24.631116306582005
4.771249900000001,3.3681250455305825,-7.873931308989612,4.795521212384569,-12.054521783088031,-1.741496825413541,23.251212804379396
4.781249900000001,3.724282954806125,-7.85220512680341,4.183882214386268,-15.485091302253396,-3.9919873657528755,24.716245160825533
4.7912499,4.060184837836373,-7.75007125147558,4.07482942678479,-16.06802909616184,-1.2450195452617363,22.80989914757978
4.8012499,3.6793823728370025,-7.51561399100328,4.288199835806247,-10.789870581080727,0.20561020009746378,17.130092088046617
4.811249900000001,3.147377771421415,-6.961454272635023,3.925379093861676,-12.45329292442616,-1.1378103702058262,11.296910404666129
4.821249900000001,3.0982533591871815,-6.669770496818822,3.453606647762253,-23.212229369674823,-2.9251210782504637,7.630923448988342
4.8312499,3.1284672857658125,-7.340705733308005,3.4659798712843184,-27.531838031865934,-3.91583702429717,0.41449444117222634
4.8412499,3.018016586471255,-8.033071570814839,3.758188930268808,-26.708055468612024,-7.414018783807821,-4.531713995127496
4.851249900000001,3.3987835975605942,-8.580792704484422,3.9470295131964317,-26.933016804994736,-11.084307945793386,-5.878421103109904
4.861249900000001,4.094462778969856,-9.248893430574526,4.035363886198188,-19.38418146837197,-11.724240491640954,-7.9522322640878205
4.8712499000000005,4.380384486827471,-9.106222248388187,3.9394309909954566,-13.179119597111287,-9.170605407774012,-9.652072240421864
4.8812499,4.316572910497588,-8.74107500490355,3.924060609069723,-14.387175991353999,-7.523043548716366,-9.736528785965296
4.8912499,4.383191726847085,-8.954839663462108,3.9571823632542844,-13.965281761059964,-6.108489438701624,-9.822886461800007
4.901249900000001,4.493708676677574,-9.0416102073032,3.882878989138768,-11.748045069705489,-3.4276337393782454,-9.418284196996625
4.9112499000000005,4.357266367536563,-8.874253642473672,3.8395059573589414,-8.291298943449048,-1.2622126088887315,-7.809156814273654
4.9212499,4.1854723777439835,-8.96732417429853,3.700528426825191,-3.7068797787906766,-0.17291634717015367,-5.370485625855274
4.9312499,4.198366853290908,-9.494461300987385,3.5526354914818596,2.814428870979329,1.1714389627672208,-3.20283909275318
4.941249900000001,4.277050417369483,-9.869232314050985,3.7769479288975276,12.253837646647401,2.006522034898732,-2.9665580293426963
4.9512499000000005,4.364918735616477,-9.407486844553826,4.066848018148623,18.855229264458217,1.9829169388679835,-2.6891688248496126
4.9612499,4.348685250119359,-8.76474979603198,3.9128479984677815,20.437783127676273,2.793343258481917,0.21360298328247104
4.9712499,4.334270812891089,-8.556946621679288,3.4321056757578363,18.619822145006403,5.38928386349042,3.637897796478337
4.981249900000001,4.246217259543482,-8.457496020559764,3.2555887928503235,14.479295880970497,8.13050539098983,6.1958736776266035
4.991249900000001,3.8131251698022295,-8.563427451400804,3.54530312282406,12.996211025116825,7.228742258214137,7.071572801857021
5.0012499,3.728506988281262,-9.045840430389369,3.8963892482336004,19.822746158074004,6.296461211480512,5.772146819925391
5.0112499,3.996502770161306,-9.34948354987947,4.110293433716506,28.470406134315358,6.401071358390831,4.153164881083647
5.021249900000001,4.129470424708902,-9.249093011864735,4.219861961356312,35.43114221339409,6.659590606617816,3.4576669035037195
5.031249900000001,4.270122059395316,-8.883766938063426,4.245639757251959,40.20342655670188,7.9885158031674,3.776655713471655
5.0412499,4.275005160428199,-8.501768085267194,4.181507886731141,41.575733528209916,9.703123184970902,4.938937812730217
5.0512499,3.9836921291184972,-8.506920621749394,4.014291874946689,42.13564109790141,10.504103922891765,7.23931838368176
5.061249900000001,3.713266054463171,-8.51740148334887,3.9968135642130598,41.15055116210329,8.995737610471698,10.074290207400766
5.071249900000001,3.734862379040763,-8.534152595994241,4.120140216714774,42.74708395484101,8.19287969730059,11.658117782671535
5.0812499,3.7291363143828162,-8.174907913124658,4.364503735666579,46.98130993766815,8.461344092531066,9.759413209102064
5.0912499,3.5127652528814397,-7.390031259034003,4.525055264397428,43.75804112846787,5.973931272273718,8.74913550810029
5.101249900000001,3.550714486358154,-7.226488887511011,4.512943380187085,41.908611007468565,4.832652699753132,6.590722241220481
5.111249900000001,3.5891211330614885,-7.152056004649972,4.517203556181712,45.17722476666127,7.205515297962499,0.14045746167847928
5.1212499000000005,3.1974046668797906,-6.5430310462382835,4.517900815200636,40.10032007951646,6.072921160647749,-4.9023163336586775
5.1312499,2.9485914418901906,-6.213461583805653,4.677500553481403,30.043299281548098,0.8411558353562645,-8.722359888014685
5.1412499,3.379278876828358,-6.284387786732885,4.819307210272642,23.412480857063624,-1.9828839669519795,-10.86758460375205
5.151249900000001,4.01193829580691,-6.400592707485265,4.806499316788187,18.146305675941672,-0.029565136488554206,-10.028440168268133
5.1612499000000005,4.138564071103045,-6.536347173138886,5.068683830488657,11.552396742434487,1.2710282089540201,-7.250639074378869
5.1712499,4.035990388747714,-6.806613933377795,5.452386394685183,7.382593475136606,0.06992919723417834,-5.546333301066833
5.1812499,3.9979814417463064,-6.908803851978244,5.3130809148170455,5.969174583692703,-0.42376519632904014,-4.449286106868828
5.191249900000001,3.8276315077482908,-6.558164427134587,4.816021851026684,1.4155994541604464,0.09131436794091813,-2.4468460203755766
5.2012499000000005,3.6101132217686405,-6.182813236209438,4.641260215473877,-7.578139041363355,0.20936443412761258,-0.2757658514268668
5.2112499,3.4798353860788698,-6.17975819796947,4.957616578237155,-16.614915842985102,-1.8335984789420037,0.2158601896184008
5.2212499,3.1889693486811033,-6.5447862275106345,5.144392075562821,-18.768774932526163,-5.542450183451405,-1.6785968576147847
5.231249900000001,2.8312842969943453,-6.76999787590779,4.714474409664144,-20.6704818812508,-10.747547200827881,-3.5144907134490606
5.241249900000001,2.9830003161458767,-6.427028415255703,4.299818600019281,-30.54805717867493,-15.99505231879343,-1.3922474473496886
5.2512499,3.5510737412643953,-6.130125005641234,4.569783184386323,-43.284407044562165,-19.2756070470559,3.2732905675127046
5.2612499,4.053766201745764,-6.525279834706932,5.048402730379014,-49.362017634808815,-20.190020340690246,5.879480276089945
5.271249900000001,4.358654250136679,-7.010067671652086,4.958096077247851,-50.40704570902651,-18.24202639323117,8.018345881937536
5.281249900000001,4.251926476395365,-7.293698544307116,4.605914623155343,-53.892342889316865,-16.02034086236669,10.427753748814098
5.2912499,3.902615455889637,-7.836844165757179,4.493433265510114,-57.2630421937492,-17.10973467512887,11.245587217753071
5.3012499,3.9806784324079776,-8.35369098890732,4.361938740895469,-56.688709669811175,-16.669518260103903,11.09482734189323
5.311249900000001,4.13786899383681,-8.486707734081284,4.261057680251777,-56.93484564183607,-15.07199927668982,13.001793854557384
5.321249900000001,3.8620012516060993,-8.73320209972338,4.420612675181354,-53.24781366541161,-17.75201462849094,11.481312465242253
5.3312499,3.8529122353497582,-8.87913838071963,3.835896724451424,-45.40468118855967,-17.64387665060744,9.746014233316016
5.3412499,4.377093050342043,-8.853614522332721,3.1841960621524983,-49.18291204959784,-13.1843811704568,13.978644443869147
5.351249900000001,4.5679217044094464,-9.617017316311747,3.7052371169435947,-44.652234030393345,-9.879639656348632,15.164443383846423
5.361249900000001,4.329718437296805,-9.998182811314793,4.069972861749582,-31.81198315125533,-7.922967050605558,12.72079379615436
5.3712499000000005,4.086669767400219,-9.607945552476814,3.739103228206796,-25.141076910779898,-6.501455163709483,10.422031332963911
5.3812499,4.089578234236016,-9.442407052488852,3.413979638906235,-19.52173051362264,-4.178037859810909,8.7012570787684
5.3912499,4.1216221628571565,-9.476477607504291,3.331704620382757,-12.927949219472842,-0.9838711195730515,6.66004158685597
5.401249900000001,3.8972374760834727,-9.445338550672268,3.5153410738084334,-7.29028548487947,0.1056225131309924,3.4798067201231393
5.4112499000000005,3.780077825428199,-9.353421282832208,3.6133981351179343,-2.1187954936208264,-0.25299471453543715,0.283544878480082
5.4212499,3.859216839458189,-9.306215338242797,3.3872217291144464,3.3259391555305204,0.4384730274353094,-2.0190264394918227
5.4312499,3.9387028265076767,-9.371900964315909,3.275853110685271,8.652299058089616,1.9724667521374604,-3.8451124914673582
5.441249900000001,3.9836170481079125,-9.462637047909185,3.5434661474343008,15.50890337317615,3.0359788483855015,-5.684941572101593
5.4512499000000005,4.016923596065757,-9.451100513078808,3.6741016043278183,22.89927812371737,4.0940171234060685,-7.759589453576375
5.4612499,3.9759731962510263,-9.31169198459892,3.5542367194004703,28.54385702799301,5.231927908269426,-9.76740352005944
5.4712499,3.876609404905724,-9.123881178914765,3.395337394372935,31.724055144551592,5.831714539616025,-11.81636705228534
5.481249900000001,3.8772145747578315,-9.12015057996282,3.1495814093834547,33.35749135753284,7.015584002959562,-12.841207220211134
5.491249900000001,3.965888314777165,-9.132071712135092,3.1922654918556828,32.13190716203852,8.555032183251319,-13.418068245827753
5.5012499,3.7471209498718663,-9.033667963325778,3.65890133617567,29.96252166497762,7.670738796810042,-15.840817891535657
5.5112499,3.807645570614425,-9.177989320184386,4.2010100005562725,35.14655451724405,6.121857963611331,-17.459859223542182
5.521249900000001,4.40827109927515,-9.415470840934805,4.384615099198286,46.47823985347988,8.19514495852401,-17.900238143017983
5.531249900000001,4.571209224833391,-9.029385368770011,4.298271689655124,57.22504244058559,12.911429072241782,-17.837400924883585
5.5412499,4.150186125966451,-8.13032766708264,4.233042793853874,60.9451978432528,15.381994409711078,-17.323663307054247
5.5512499,3.8427428068423746,-7.535327668516928,4.19803483428683,57.021214680323844,14.881725714332015,-16.578896384632827
5.561249900000001,3.7988739191344743,-7.321332014078951,4.322884438515378,52.47765993665047,14.276418412666535,-16.142815383579205
5.571249900000001,3.7368227350507275,-7.137302772423277,4.562451668264621,48.4547331506852,12.763451931597412,-16.56340884581083
5.5812499,3.690186117054222,-6.806039748084486,4.735971101104534,43.83801442989171,10.213119562319934,-17.207079198089012
5.5912499,3.716723818875568,-6.466993517157699,4.738321652884153,37.592460938428076,8.19219136135005,-17.141894442312918
5.601249900000001,3.769470610826479,-6.310078286779886,4.694325527196764,30.454478086871543,6.6762382786415575,-14.467245445664927
5.611249900000001,3.8514373379423965,-6.248447618294562,4.803516474506943,24.284095147991582,5.812488899832932,-11.339150196024203
5.6212499000000005,3.7825858167576785,-6.167728066517596,4.970391313344688,18.709156123650136,4.066725970092638,-9.160548097091175
5.6312499,3.676790132291151,-6.02028491984997,4.949973310522275,11.503637975318359,1.328554849196998,-6.585469726687091
5.6412499,3.7808198539248847,-5.8597015487463056,4.8038363442505565,2.4517362885063103,-0.2983913713835242,-3.2963164214002476
5.651249900000001,3.917850543206806,-5.900228442837484,4.768004758632138,-6.084477161955896,-0.8343792128364069,0.3010767718379522
5.6612499000000005,3.8972287457034276,-6.177081315997745,4.827542068562098,-14.089568192984958,-2.043109103403035,3.753609375687514
5.6712499,3.829403291993555,-6.459937743558846,4.96122272784017,-20.71020713525494,-4.30536853897901,6.788699277470915
5.6812499,3.8174930656748307,-6.609065946097133,5.087397717436372,-25.602337732097507,-7.216834103869591,8.927105499375658
5.691249900000001,3.870541319954783,-6.688599932274906,4.942554996501688,-30.415741761520916,-9.449580106163031,10.277465569493433
5.7012499000000005,3.810913503328255,-6.701523625421113,4.640930456020005,-36.209381701746445,-10.974135653269537,12.223840789199688
5.7112499,3.7112102611466278,-6.736701101992537,4.556100959023472,-43.15063375308977,-13.114314221743637,14.176624192454344
5.7212499,3.7991011628314437,-6.9985874448537135,4.610843960807365,-47.578438755089074,-14.870236246888602,14.659591538914539
5.731249900000001,3.9946023105206403,-7.277907405419284,4.517659286894104,-50.25726164045749,-15.268088031089123,14.605227739275517
5.741249900000001,4.089429988643839,-7.6457520582288625,4.349164835930695,-52.6486599612821,-14.786742345365608,15.87402715255147
5.7512499,4.015005938196588,-8.173210329193482,4.34550573596544,-52.445856636062146,-15.146434430478731,16.360694050284444
5.7612499,4.049592125361195,-8.315882512015074,4.309745193433288,-51.52565190626513,-15.718374420459307,15.691730318335779
5.771249900000001,4.162358283166564,-8.235872959943606,4.104092342165686,-50.22172498664788,-14.911626292687306,15.988031499472271
5.781249900000001,4.201054843113361,-8.486697996482123,3.933583823532627,-47.92077264258643,-13.210081063055386,17.12290345806404
5.7912499,4.198022151865378,-9.1337865749281,3.8278565101918915,-42.68685770490653,-11.592255018863835,15.904434439583419
5.8012499,4.130634040781097,-9.470454081222908,3.692026432122846,-35.250743983562636,-10.187667210848703,13.261920724650858
5.811249900000001,4.138096281075286,-9.43230455511547,3.5324743729281596,-30.18053585803388,-8.024175106905485,11.024520373617873
5.821249900000001,4.201133426689671,-9.5022489303525,3.5535857702136617,-25.57843973418706,-5.825699517146607,8.08102219563456
5.8312499,4.165736242353585,-9.605972227117341,3.611581929597274,-18.592299375846128,-4.068142135965972,4.931941428599324
5.8412499,4.106801486256692,-9.641679016824632,3.5276337642209685,-11.113860594087685,-2.3393298838817134,2.0425930926885254
5.851249900000001,4.083237603484801,-9.700544497517809,3.4414498809376326,-3.118654579581198,-0.46702731912954176,-0.9685196543439076
5.861249900000001,4.011373639398068,-9.61876197470219,3.4346610479249797,4.483276092477208,0.9487028477588463,-4.369005684236483
5.8712499000000005,3.9790018876264526,-9.34530582710918,3.519590134164535,9.941440905462477,1.5971300212540358,-7.499643489768587
5.8812499,4.052014389338639,-9.143936049267193,3.5769039112291177,14.798834887603114,2.3508422967776808,-9.838115968385596
5.8912499,4.09873611560191,-9.123276282724795,3.5649668847135922,20.26890622099992,4.028310416683529,-12.797736897146397
5.901249900000001,4.055638622247004,-9.13930378872113,3.6750108692077275,26.35058106242515,5.220516651709564,-16.76990547676129
5.9112499000000005,4.075099160351283,-9.27339776447383,3.6922823553129924,33.789769313838015,5.593066537974345,-18.489832205477978
5.9212499,4.153428180961322,-9.304319360233428,3.371162351192761,37.23242220513026,7.410524245846424,-17.644938419202603
5.9312499,4.212671894937986,-9.022405014693025,3.388236792856872,35.241560999135274,8.511244074098398,-16.410334211967797
5.941249900000001,4.113490952995513,-8.80633480300005,3.7111144682269916,34.715955141972074,8.340066616823938,-17.081095193343042
5.9512499000000005,3.981319083446957,-8.653588012351662,3.891388886730414,35.746351102958045,7.9607855504067775,-18.42424753301326
5.9612499,4.261597195703493,-8.824924717433898,4.231622661202855,42.52057882252945,9.617447252864931,-19.241825942237025
5.9712499,4.429923215973844,-8.919776079950086,4.493615574660195,52.58717042986447,11.815355882866731,-20.304208906607723
5.981249900000001,4.308192930229943,-8.321723885273716,4.46664739992594,55.20429721446171,12.434237567244248,-21.291489933059683
5.991249900000001,4.285359042247146,-7.671261916785758,4.40185996989506,52.430688517730346,12.228617968247306,-20.1442658424825
6.0012499,4.37839272086158,-7.340081569846709,4.455600790135918,50.274498552945715,13.028548608820651,-16.847246871336534
6.0112499,4.293286933446339,-7.178327867607001,4.586291270708513,47.76978310087455,13.437895033460821,-14.564137172014155
6.021249900000001,4.1197299282917985,-7.050027682703545,4.6839842532745015,44.47249133610535,12.503860077968652,-12.688720288417429
6.031249900000001,4.1191440004841,-6.9842599761587145,4.625776916103887,40.808073287837814,12.278164221070996,-10.482118669156323
6.0412499,4.061445711578138,-6.887701345120708,4.681815840573011,36.177318150723075,11.146846984543464,-7.839302582911364
6.0512499,4.01155934021074,-6.646343550961584,4.895539376453307,30.76518799052719,8.980093711647276,-5.314321231889413
6.061249900000001,4.070547163875834,-6.405945579481295,4.9533055222611715,25.21303891387191,7.596145337392534,-3.202395685169459
6.071249900000001,4.0166616483355835,-6.140557011619819,4.9449860350653765,18.90647062821554,5.985741617737176,-1.2281862497957128
6.0812499,3.9282808464809857,-5.881023097569019,4.9452511584825976,10.653757201536106,3.961623368489727,1.0425003742283965
6.0912499,3.805082882845185,-5.768324131996511,5.031134264112144,1.6012156068842298,1.1347672938186357,2.923474286800979
6.101249900000001,3.759044001077591,-5.689190980188854,5.123339987477709,-5.798484262497805,-1.611066385763289,4.830897334933988
6.111249900000001,3.806002546121782,-5.6260047230138,4.836749994662962,-14.44743771415378,-2.8528010542602575,7.6057761754830855
6.1212499000000005,3.773482765127308,-5.707513762009021,4.65159068918619,-24.178518314186597,-3.9534419921530346,10.72574599132978
6.1312499,3.7281858011722355,-5.959446202229408,4.818862745698743,-32.196055994739574,-5.918142515505754,12.979111811277255
6.141249900000001,3.6130167456938125,-6.391344911039961,4.918566096249169,-37.636718284161084,-9.240000065157654,14.268036565577017
6.151249900000001,3.617666176981816,-6.933554162655706,4.709066992363725,-41.10593064544037,-12.197264405871795,14.51249875491347
6.1612499000000005,3.8375636729933067,-7.309636742557917,4.470727569743337,-44.302244898936436,-13.267889689777832,14.916735096243
6.1712499,3.9595250868399607,-7.5674520752071315,4.4943503784199255,-45.172274822422814,-14.035178209215353,15.253669031193052
6.1812499,4.104715750276022,-7.8237731665977925,4.452247979824449,-44.732438255596854,-14.106471058174296,15.174167638184715
6.191249900000001,4.247680586050282,-8.079442995643396,4.3592815138025705,-44.11850238571035,-12.727759128020336,14.778047328861648
6.2012499000000005,4.167107584320648,-8.28467687639826,4.432989530386914,-41.92085306994051,-12.768236384077882,12.89327330074196
6.2112499,4.084101903932229,-8.161035486125412,4.449135893633593,-43.06635412431221,-14.818681243088777,12.213054990107985
6.2212499,4.129369604500232,-8.237929265354731,4.266705672718556,-43.03210030015921,-15.51582242137029,11.956400998303204
6.231249900000001,4.275605618294865,-8.482296021327457,4.000466538122381,-39.56682185155586,-13.639478610218573,10.845514352762034
6.241249900000001,4.477202134276684,-8.74501921810063,3.8176777747533577,-36.2929695467817,-9.731350576453695,12.432981484456668
6.2512499,4.591799759138317,-9.354705891515342,3.8989260740011016,-30.2675617297423,-5.72291346278185,13.008712629695061
6.2612499,4.424694552469544,-9.711112532352931,4.085211534617258,-20.1733806680357,-3.858521921834814,11.163378493270827
6.271249900000001,4.318072945738634,-9.503243971552324,3.999301991216823,-12.076598663002288,-2.3017241877192003,9.316036207266007
6.281249900000001,4.464016675487115,-9.171995054425935,3.834188184810541,-7.331659180310311,-0.15757937209060213,9.13372816843705
6.2912499,4.374460161435366,-9.007471825026863,3.804022938109471,-1.9781641450871283,1.9444725828641465,9.326404814564421
6.3012499,4.076239040008345,-8.953886957134404,3.7602903302073827,2.852514631956772,3.6014894300489697,6.956729601644227
6.311249900000001,3.8777814926686682,-8.828511165019147,3.791003546158542,4.970170022526906,3.6753641104930805,2.934240358141845
6.321249900000001,3.706841923019311,-8.553681962033062,3.997079332452048,4.262531655498062,0.29770645973710635,-0.20641644696609504
6.3312499,3.8682155609881392,-8.491231854387124,3.921998405986508,4.960631431334068,-1.2727384603239396,-2.467630947633442
6.3412499,4.184874173156923,-8.704575718374358,3.616235586032526,9.341180442610458,1.8417904517579224,-4.14474492511562
6.351249900000001,4.139392868354994,-8.82907244703142,3.7699738004437813,13.972121064694091,4.020050020380344,-5.908175649644855
6.361249900000001,4.0309524704441335,-8.691313125976547,4.038974004259866,16.910658573601207,3.9302609870481238,-7.195336326892374
6.3712499000000005,4.07901648461934,-8.305585291881037,3.934925214634429,15.957351725843553,4.0732680330753785,-7.006385652062811
6.3812499,4.04634811576067,-7.967769161621706,3.952053807041544,12.86188394943313,3.9952977404158445,-5.916622711869707
6.391249900000001,3.983621574979405,-7.800692700626252,4.169329234023826,11.22565030740624,3.4383417161887,-4.7611342664516085
6.401249900000001,4.021818521020553,-7.814200423835688,4.25198854427939,11.498162244266716,3.6469325831005217,-4.075718720700337
6.4112499000000005,4.065074019940976,-7.848266927507585,4.222206394079536,11.76827279169746,4.0661519419755745,-3.37425421403592
6.4212499,3.9372824301225693,-7.713035476370454,4.164969472648857,9.669579820348526,3.378432392020275,-2.2716223673115943
6.4312499,3.831185594632532,-7.604558227259262,4.171745948322563,6.859712799449663,2.2784180825691585,-1.3288306318905285
6.441249900000001,3.8826390149665544,-7.58141717082939,4.213402892511275,4.545052112683883,1.3734317968551943,-0.8212168673950104
6.4512499000000005,3.907602254810701,-7.538031389519035,4.2223092799244135,2.2431180386444325,0.7124744348273435,-0.3872602417531482
6.4612499,3.8623786688670827,-7.5504450602453685,4.185512937433236,-0.0727009798233433,0.18182646145454426,-0.004104847696336491
6.4712499,3.8857173188639744,-7.62132859836195,4.1349414704078455,-2.4336393944561485,-0.22977464932243138,0.6354240015025873
6.481249900000001,3.9556286402090723,-7.710350221950248,4.16495215015634,-4.375278260469996,-0.4126267847543172,0.9164106731988407
6.491249900000001,3.965280598827146,-7.855098667455311,4.2049526394104575,-4.883230485600155,-0.5094599032476407,0.67446967731651
6.5012499,3.9560766109372163,-7.981496332426053,4.138758889884413,-5.376290043676079,-0.6178495105629448,0.6931855120713364
6.5112499,4.036007050236733,-8.104768887862154,4.097049745749127,-5.773568530728877,-0.5242181702597631,0.8890339218419943
6.521249900000001,4.084381897656805,-8.265967231546993,4.111335537998038,-4.418482541915976,-0.10546884391245179,0.3369191832741781
6.531249900000001,4.07459728754821,-8.303742589946538,4.117629980921091,-3.0221585713622323,0.20977003517981224,-0.30324658176507574
6.5412499,4.0517333135747196,-8.350225167769613,4.139474221907335,-1.534667787032938,0.37576603971330297,-0.7464941685614541
6.5512499,4.078508082154741,-8.405755622471686,4.19409782926582,-0.031913968374362264,0.03570884756702104,-0.8231713188338178
6.561249900000001,4.16569032230426,-8.351540826455409,4.222280819753647,0.6287196593009331,-0.4655995653785429,-0.16656792178470847
6.571249900000001,4.185473414038463,-8.277578320400544,4.191422585180719,0.6661106029599198,-0.7131785294267414,0.8634029215304332
6.5812499,4.151690670609723,-8.202557555735112,4.210963605873885,2.4110615301873257,0.0025360647444182846,1.3740585861191512
6.5912499,4.013565067449507,-7.985830894901053,4.1594066938497285,3.2236649556556713,0.3747168139530217,1.5361994060343513
6.601249900000001,3.8973098093779717,-7.751128765601122,4.050903484574274,0.9254978070935083,0.030629210418366998,1.805832301236437
6.611249900000001,3.8731077552984576,-7.783208938812938,4.043365722347892,-0.4081821999001573,0.014362037851124622,1.2393494407178007
6.6212499000000005,3.8590227514558877,-7.890540949835746,4.072283107647335,-0.7220512031292106,-0.17294985801918722,0.2293625679062671
6.6312499,3.91673288676794,-7.900947392456657,4.077166049366114,-1.2861574013036494,-0.11440924156694697,-0.27702032952025274
6.641249900000001,3.978362087239584,-7.931946500501924,4.092557693851732,-2.0734700954971927,0.010093185801245302,-0.38949298168063323
6.651249900000001,3.9920805061047893,-8.039325215115584,4.128062456292118,-2.696784750126452,-0.3105787688174016,-0.2122152988730903
6.6612499000000005,4.063043873719967,-8.143905736178509,4.169378098287979,-2.440829549459015,-0.4036112808527392,0.14834073776143247
6.6712499,4.123294219767674,-8.195851092488226,4.19924412925173,-1.7627138089508185,-0.19376896233123247,0.5557053419651563
6.6812499,4.104474565419312,-8.234929361927641,4.192665518051674,-1.2141887494597665,0.010778932583413326,0.9564304658801372
6.691249900000001,4.063577482556496,-8.24729805437328,4.159763624395234,-0.4819229499573397,-0.013090834299522281,0.9650568989196926
6.7012499000000005,4.0201618353067525,-8.178342735570919,4.10934891476338,0.18401915236133312,-0.20288274393217737,0.883848054476537
6.7112499,3.988860923899786,-8.103834075807681,4.056036498664749,0.2125726308333445,-0.02992482764795308,0.754930861226991
6.7212499,3.966836605676634,-8.080506145959761,4.070093677875232,0.23228519314461357,0.10716838895315625,0.31066608000065865
6.731249900000001,3.9639285381331733,-8.086519226000991,4.102179723969157,0.46788385959978096,0.09034339400951096,-0.20803209000222914
6.741249900000001,3.9782828816060576,-8.083994876143619,4.1009799263645625,0.6611705898192213,0.042274275738447845,-0.5737094890983654
6.7512499,4.000139839639728,-8.083471685060294,4.109578508416489,0.8741377987976285,0.17923838074514778,-0.7665437196435642
6.7612499,4.02704550742686,-8.08105389518363,4.125739375784124,0.9798248321832278,0.19690363150771933,-0.7734655405267108
6.771249900000001,4.044462457394372,-8.083167286971863,4.131337872147158,0.8212506229168083,0.0677886643230599,-0.6359821436114789
6.781249900000001,4.036002196862738,-8.0943206848145,4.149020386072699,0.609981197072274,0.10931274535353956,-0.26242412648146896
6.7912499,4.0167309186690305,-8.082848493924795,4.168087703778865,0.5563390950036526,0.10099161355920944,0.14231570272019825
6.8012499,4.004483645943971,-8.03916366682922,4.145917449285873,0.5125501635113898,0.06462571308435074,0.1854009759987318
6.811249900000001,3.9937935144617778,-7.9856040735286475,4.111545637662528,0.1820080874228749,0.083244550622042,0.24254651986590944
6.821249900000001,3.985302721674234,-7.979442363575562,4.101640744122856,-0.39544532162181883,-0.047969064791906414,0.35037341615045015
6.8312499,3.9866107822856582,-8.012681592461735,4.107437567348405,-0.8367737985606905,-0.10185462023492946,0.2981007242845033
6.8412499,4.00037293491365,-8.052211093398105,4.108976583689112,-1.115907288516891,-0.09818842257443784,0.32153593855857854
6.851249900000001,3.996362930785836,-8.092437995499404,4.123299022538741,-1.2169826272207362,-0.11144916177224745,0.43399187071627393
6.861249900000001,4.0078238154308385,-8.118970354128587,4.134513619461057,-0.9266038155817917,-0.13893622455242638,0.32362683241145507
6.8712499000000005,4.036741936881523,-8.113154545969781,4.1216703153149075,-0.5711274932814709,-0.12337175014426023,0.15978887164956768
6.8812499,4.04548870571237,-8.10574215253834,4.128859619939862,-0.4368114627301238,0.014244728716404365,0.2004523202665049
6.891249900000001,4.031113340480431,-8.119173871311332,4.140665256529278,-0.32174416523852506,0.1515191033284985,0.24670264165997177
6.901249900000001,4.003612264818127,-8.134429409046067,4.144462598208199,-0.1275105414246359,0.048391975280141,0.2072878205974495
6.9112499000000005,3.998791995838962,-8.139038467249213,4.130473266389978,0.19015425415341855,-0.04299934082630184,0.16292519099144329
6.9212499,4.019031191447397,-8.109816294390853,4.0910581783924185,0.33197000196474236,0.04294966015854695,0.04338949168990422
6.9312499,4.0191012210890005,-8.055819323073077,4.079124810260436,0.24874396603288212,0.010286558444041478,0.013433465401947176
6.941249900000001,3.9864528438694324,-8.038902361620483,4.102616981380244,0.04248014655796465,0.032435962408401124,-0.006339275216219591
6.9512499000000005,3.9838478606813412,-8.068808316736083,4.142949879639999,0.04147594890280544,0.08346626764692268,-0.0759242588917504
6.9612499,4.0159317276713535,-8.087751976395142,4.1504995519535335,0.19786521387575928,0.09410505486986095,-0.14123597449700753
6.9712499,4.0316128770572135,-8.085754100603094,4.143067021394706,0.3283877424619746,0.04073547088481932,-0.09716466148239146
6.981249900000001,4.03724028735178,-8.081331678317689,4.15142789758431,0.2998651349313943,-0.036481901110626,-0.09475432339982132
6.991249900000001,4.02468215251389,-8.061249868478518,4.139917727253555,0.060022133821123085,0.021580492911179364,-0.004576794272894185
7.0012499,4.0053820274330505,-8.05258708267119,4.134068857552741,-0.18627234333354806,0.0696781825489087,0.21572558712673875
7.0112499,4.011291421197619,-8.06309767698871,4.1554815872294615,-0.2633510427767359,-0.0010362215338410074,0.2305946502928046
7.021249900000001,4.018686704345189,-8.064022904507166,4.140538938577102,-0.3219164431905015,-0.04843069111545136,0.2361244790410149
7.031249900000001,4.001784477579478,-8.059734711481386,4.101830122339487,-0.3993915529720471,-0.05616155051248866,0.39103065116314506
7.0412499,3.985513826179902,-8.053256537742648,4.100499488936063,-0.4539064720355103,-0.06325525692521222,0.3424533152807533
7.0512499,3.9795803276150594,-8.059543485531965,4.112947665757956,-0.7202152046470667,-0.07199939689309542,0.2605477683017208
7.061249900000001,3.9836302276744173,-8.083500990935917,4.120488457936179,-0.8394041314765641,0.00995115451158758,0.41736168125855433
7.071249900000001,3.981788966046605,-8.107557355835151,4.140433910229081,-0.37626170178332313,0.049973861248377396,0.19816104248858585
7.0812499,3.9513299681317333,-8.082908456687852,4.156047093548871,-0.785993099881865,-0.09878394193849892,0.28352979752318413
7.0912499,3.8634737479163372,-8.21553032150708,4.231474601576048,0.4086798482675036,0.06227042664519495,0.7015402136595492
7.101249900000001,3.9016582934757467,-8.098062989467017,4.131976333377078,5.416515604920335,-0.5158036875265718,-2.4941971184212632
7.111249900000001,4.341902209565316,-7.429098343681136,3.6688908821902526,-0.19100073372891363,0.10215651165218238,-1.8087716771913034
7.1212499000000005,4.321812762379494,-7.9802433171016585,3.9223327854928045,-8.425556525170705,2.0765907649618964,2.9664528351326043
7.1312499,3.8365698219186006,-9.130994814541479,4.766351616761021,-3.907548202522977,-0.688491457048647,1.9821469027347034
7.141249900000001,3.9066741750646465,-9.066262433932657,4.388920614978033,6.6484160625978515,-2.0287874318220043,-0.9654146050104679
7.151249900000001,4.158505875855643,-7.6175545745845765,3.7448445916415003,8.646290520829007,0.593353259842713,-1.7726327505970774
7.1612499000000005,4.0339367682733815,-6.746650212348226,3.8752527341803087,1.338011733381609,1.571973163166621,-0.36777319150081755
7.1712499,3.697351876411718,-7.3381805632364125,4.093886693053231,-6.601075291335281,0.013956732976657765,1.6242223840270869
7.1812499,3.6469317999158117,-8.39163920827804,4.212544842424137,-8.623078762148456,-1.9602684694802845,2.5556592617444385
7.191249900000001,4.122528591708523,-9.100081704420834,4.198664201733368,-1.5939727457492627,-0.9034275760835913,0.9823805458982893
7.2012499000000005,4.432058305955537,-8.611163746228645,4.151709758147601,4.879212640899042,0.8177189273341909,-1.179193658085096
7.2112499,4.1455734894724365,-7.617153352241662,4.205419971412043,4.054752632490709,0.6778862163886304,-2.277672168706496
7.2212499,3.7751305218019007,-7.44992338987117,4.128166348759134,0.006468114402556863,0.16458776635878047,-1.1489191960049556
7.231249900000001,3.642073286273272,-7.892657766342308,3.9071109482921664,-4.045288128265601,-0.05792276766529067,1.649421477811309
7.241249900000001,3.9244677232430725,-8.418733132715284,4.076078794768018,-3.6852664145283356,-0.8840355441339164,2.25530495324739
7.2512499,4.400989058313068,-8.545893097246939,4.277558297922945,0.5338625548756648,-0.4586497910696889,0.21295818598880775
7.2612499,4.4019013487628955,-8.154001184348658,4.164590114093567,2.0053243341562643,0.7789761968968266,-0.5328537992776395
7.271249900000001,3.8915939451588426,-7.984516134408159,4.166771103666773,1.1798577457705612,0.8684215281545024,-0.0388835539962462
7.281249900000001,3.5596701929703145,-8.091672976556834,4.278380051956727,1.524868707059073,-0.4687499935442988,-0.4210719265948916
7.2912499,3.8180010026581526,-7.95493060712618,3.9893762676092224,1.5184485469979367,-0.9888503342253451,-0.5391227853952182
7.3012499,4.1930607513897495,-7.729612767167092,3.6804073681762266,-1.5621865919428164,-0.05275513873858625,0.3019338847124536
7.311249900000001,4.278261249032844,-7.953858340272532,4.034206284966483,-3.123666362854254,0.9829346377987086,0.32193212269177296
7.321249900000001,4.0942881086660625,-8.40889766324144,4.510247521153108,-0.503230925445907,0.5049997386393155,-0.4096659517767559
7.3312499,3.8191026099044407,-8.498557058355741,4.368454051824875,1.7894791313083944,-0.4675240105039337,-0.37495085894031793
7.3412499,3.8851394073359944,-8.182264620608827,4.101863058380744,2.609588655007727,-0.5584548997547596,-0.1514176057478757
7.351249900000001,4.1597179292111495,-7.778500280648205,3.9677182392768016,2.2277483612368756,-0.1728209021393039,-0.42374370011560714
7.361249900000001,4.14154320971237,-7.6057147323226255,3.817592467949262,-1.0051752043827629,0.2875243591746498,0.1472096224841091
7.3712499,3.9165986974318923,-7.898646389748176,3.970861112428232,-3.9752557716837265,0.6722013008085813,1.2988044020786882
7.3812499,3.85482794531297,-8.43710536967807,4.40498740995268,-2.135087763418476,0.11993890355355152,0.9812177544658668
7.391249900000001,3.983621764250287,-8.537665725978307,4.461382202607544,1.7089981306115516,-0.7239033741827144,-0.43244078232376343
7.401249900000001,4.151685458273969,-8.107882564054721,4.077381056673238,3.3790007049351294,-0.3442750789349024,-1.1471100439089101
7.4112499,4.11445430660188,-7.713610662677272,3.8053481437474876,1.0206848804481914,0.4253525055391092,-0.6028762449513664
7.4212499,3.893385251213592,-7.789982618460636,3.9704973851235037,-2.6843297144177147,0.5175754772627051,0.7386879419994136
7.4312499,3.873908228722643,-8.214887400494101,4.316434787089731,-2.6778195340741844,0.0144836577675283,1.2193981987283395
7.441249900000001,4.033437180517343,-8.470939729328782,4.369129442599631,0.0945851123168048,-0.44964292694769403,0.3797861879649128
7.4512499,4.13935899605128,-8.274500386780236,4.147363928649865,2.2921626855025057,-0.1996260939480051,-0.47254958349127835
7.4612499,4.085433300845912,-7.905284632112293,3.9598403970288913,2.0515758802881363,0.34117650325000093,-0.6378200914230201
7.4712499,3.9159378344179294,-7.76637423537065,3.926929427611248,-0.7994271835284746,0.2917020276872452,-0.08758220810935528
7.481249900000001,3.890684406150591,-7.981268790482497,4.08846614671615,-2.393568736358092,0.15631311618393734,0.5635260814504837
7.491249900000001,4.027259273760653,-8.305418026056987,4.298636323713587,-0.9653115566552594,0.05230142593753933,0.44342162892798787
7.5012499,4.1194144969713165,-8.35669918322096,4.288152059261557,1.3331846802507776,-0.23519501781544785,-0.4783372431263077
7.5112499,4.095295470738028,-8.098920754343933,4.1020039381431905,2.436497662406383,0.017056287124165202,-0.8084166131449347
7.521249900000001,3.9585811294289126,-7.8625175733276,3.968955315630209,0.8352471021694401,0.26260325389386574,-0.09162629813173323
7.531249900000001,3.850044077916112,-7.867549090231614,4.034229713966968,-1.4424362249447782,0.017267901027906343,0.6027850088004301
7.5412499,3.9181446083363802,-8.056485339066406,4.1833739003544546,-1.6008179751122396,-0.24735548469863813,0.7188460941520174
7.5512499,4.037734015642289,-8.22086294703116,4.214887644574145,-0.3891799387809808,-0.19713261480939892,0.2149796085590626
7.561249900000001,4.089006558488759,-8.211617543496223,4.14894882239275,0.7079537728259544,0.11146207282467091,-0.3060490510345671
7.571249900000001,4.041326402449044,-8.07839891371127,4.094123011050666,0.7553502983182158,0.1949268143064101,-0.37759575683606433
7.5812499,3.9688994163837803,-8.009665645115259,4.088979469159408,-0.15165047213508043,0.03173940129326589,-0.21510035031285302
7.5912499,3.9876716784111816,-8.064041721297782,4.142466749181419,-0.4706024566537797,0.0007818713856775797,0.08469034835974999
7.601249900000001,4.013477467086393,-8.123125437858443,4.1426855290838445,-0.258615999024997,-0.03601080460590056,0.2998287631291053
7.611249900000001,4.005448092628867,-8.13203765343685,4.11442588483989,0.07563456168241765,-0.0834538035154672,0.23411364006575167
7.6212499,3.999861004893848,-8.081047566823612,4.093885785621131,0.08317831892993639,-0.03038752422369492,0.22240113260139371
7.6312499,3.949934191096182,-8.0489079739126,4.078973250435709,-0.2912729923578834,0.02525138917900597,0.2631809213089919
7.641249900000001,3.944900161814159,-8.081401323356447,4.119040959925995,-0.3514010993290046,-0.22680381459195362,0.19729702673000382
7.651249900000001,4.0123900152699985,-8.0947355227572,4.131330764059294,-0.0703397898424179,-0.1662407289795981,-0.036169156163921634
7.6612499,4.050357498319734,-8.091374865338144,4.099117257934796,0.08000121480137441,0.10383510016602919,-0.26918555442692294
7.6712499,4.049837794767395,-8.105977609444057,4.098594855494235,0.08883350788032644,0.07980554108658493,-0.30514441277868914
7.6812499,4.039318934505056,-8.114171908382676,4.133112221899213,0.1625810862683909,0.06679166113018264,-0.2267826064346544
7.691249900000001,4.018183335351318,-8.10602666631872,4.150570247482758,0.18687085403139497,0.06297842177184913,-0.0856556689824288
7.7012499,3.996033684333265,-8.082478659672903,4.143434049261199,0.20921290532142336,-0.0457758002099913,0.16205610227429992
7.7112499,3.9852030246273147,-8.068072675500813,4.119266799337946,0.18620993629071828,-0.10637842085829402,0.22615664340117367
7.7212499,3.98620710509226,-8.0646440159962,4.089475815568789,0.012313356606275383,-0.12166323208060062,0.20545832309912912
7.731249900000001,4.0011390757812055,-8.059473149128424,4.09129570541307,-0.16468031093887034,-0.039958101797395756,0.13345024753360676
7.741249900000001,4.00012030258455,-8.07175910081292,4.129677589095711,-0.19736697383776786,0.05819598444678799,-0.007728272808988123
7.7512499,3.990204750623016,-8.093705403874528,4.1691987359685605,-0.16846406955692925,-0.05043945158117546,-0.10704261006711249
7.7612499,4.011583962353717,-8.11080683099763,4.1582728575076215,0.13621954569595626,-0.13763416028781283,-0.2476173626599169
7.771249900000001,4.036465616623664,-8.09580996796239,4.113539410292909,0.3605825693106836,-0.0076509313923406996,-0.30949778461743077
7.781249900000001,4.031563071858046,-8.055642908238717,4.098259016543226,0.19417580066460666,0.09036343135702699,-0.1016945705402263
7.7912499,4.006031722047833,-8.057078850251806,4.109445607066605,-0.03885141698137113,0.03961925174112007,0.09905366512994153
7.8012499,3.9790119897899836,-8.09960081565854,4.145706501795302,-0.13383782223143106,-0.04170156982373125,0.27722982886010067
7.811249900000001,3.9811723803198653,-8.127605517049556,4.168347068611081,-0.01585632753248186,-0.1879579208493948,0.2592686498577036
7.821249900000001,4.009683032063161,-8.09477607662859,4.118634860002181,0.16287162281851128,-0.19528783982291648,0.06534186732357557
7.8312499,4.008178471538978,-8.033418989850523,4.0614133014583995,-0.040302443434014026,0.04255623657148302,-0.04721834999689344
7.8412499,3.987742549475707,-8.04484306882945,4.08767148018045,-0.45163552579614724,0.13444649549714127,-0.008120741218041207
7.851249900000001,3.9980773965296965,-8.112310978283146,4.1735380950598335,-0.2722640064974939,-0.010243577907423522,-0.08657120046837219
7.861249900000001,4.019067844325305,-8.147147826843732,4.183817567296561,0.18462888887976106,-0.050900702881468286,-0.19723060223376215
7.8712499,4.024670168988616,-8.1175442889443,4.116483353513288,0.38619842205148275,-0.0010041274295470265,-0.1273193624391915
7.8812499,4.009731050550183,-8.062477464052042,4.094876483394625,0.23404356979398308,0.03231750829998958,0.044018599529438686
7.891249900000001,3.9883944293690314,-8.059985921572803,4.116231508447162,0.05886264026803823,-0.12225973830824048,0.0602635545887129
7.901249900000001,3.9869921852079258,-8.09191697916817,4.117500325900507,-0.09650152686732028,-0.14794523568724577,0.021162028914487364
7.9112499,4.00338979458335,-8.091538473893998,4.100935131679801,-0.21507928952713487,0.08984292729257802,0.08568496445868266
7.9212499,4.014771847601816,-8.080685257866214,4.135737730141604,-0.04162296258048097,0.08749222532475602,0.05038265155754717
7.931249900000001,3.9995821593611276,-8.083577119808437,4.18159084844153,0.16615038095273715,-0.05230337498846222,-0.15775852175585006
7.941249900000001,3.995226649980486,-8.067686566758328,4.134632588025973,0.15796778805373238,-0.06543339887892066,-0.2145270816453952
7.9512499,4.016073739159897,-8.054098712044892,4.082352790126413,-0.025621660730136393,0.1145225821961322,0.019676928704023235
7.9612499,4.010767528844842,-8.073505570006365,4.139851423333723,-0.17336584390640614,0.18330612179330247,0.040617505282041805
7.9712499,4.014448330434204,-8.109269486741923,4.192206392177198,0.053893791563294005,-0.0929913377378688,-0.08378410809211108
7.981249900000001,4.0201657078646065,-8.11331199440054,4.151330189889415,0.21781087957967787,-0.29107080231918053,-0.04051600273642032
7.991249900000001,4.0003872063227925,-8.082702778116104,4.096450252775114,0.10256394524591457,-0.01664101574124838,0.10491147547545883
8.0012499,3.9731135113091898,-8.046987177111097,4.088845381732688,-0.20356909975842213,0.024626500623258357,0.20850041301531477
8.0112499,3.964239684535938,-8.032276794427732,4.0976146412313526,-0.49122263816000766,-0.06510524309898709,0.24968507178271368
8.021249899999999,3.99679700751055,-8.06793505269306,4.108723529646844,-0.5645070611385066,-0.08393652957709077,0.16534783837159603
8.031249899999999,4.020052624165019,-8.119864960779038,4.128988184636996,-0.30247689910064385,-0.027216443367574384,0.07994731107865029
8.0412499,4.007102094821458,-8.129937639315665,4.153516854926904,-0.0010391473411016326,0.07803825503052891,-0.008174958366248684
8.0512499,3.999431446350701,-8.098249133183892,4.159754138816054,0.26641913418450397,-0.032381675882664725,-0.19792397365624517
8.0612499,4.013049989124224,-8.062851189915941,4.1195267930727635,0.36207163332471365,-0.1999842756208858,-0.24396578200883762
8.0712499,4.0359469695995385,-8.059303246446945,4.080773166514153,0.2055316929936217,0.025912686776522025,-0.1130606597482444
8.0812499,4.026920733504917,-8.08512990308337,4.110253628581914,0.050888052781213604,0.12695622827139685,-0.02810720535531012
8.0912499,3.9872876416168253,-8.10648667696929,4.153298897570244,0.0312487705250973,0.016785578812135733,0.017841641509812402
8.1012499,3.9788000758455357,-8.094700115623365,4.137440418700606,0.08529780567074162,0.06432003131748722,0.05764876667026402
8.111249899999999,4.003457311279023,-8.059432217631569,4.103951470364369,0.009258472164154678,0.08869895953503625,0.08180341930322048
8.1212499,3.9960445845250017,-8.044046141026236,4.097318775180806,-0.14024508211548412,0.03197460444054216,0.23349229703149604
8.1312499,3.9747650105520016,-8.065420248854204,4.123953254359317,-0.2826644364236576,-0.028423195106500307,0.1589676663495304
8.1412499,3.994301771229394,-8.08214311329775,4.132412463762081,-0.18551682133198835,-0.05907024233342424,-0.10251163172948231
8.1512499,4.022404254583799,-8.092838822499063,4.133092143646575,-0.02080332151508892,-0.0376036228346858,-0.0061737717221921696
8.1612499,4.034937291317906,-8.095672426399357,4.125089865818319,0.013507257589046456,0.00560296658535863,0.03392113370037007
8.1712499,4.023493835295795,-8.081316914243317,4.108920245055664,-0.09244247655029235,0.00328079463392547,-0.19644840434913197
8.1812499,4.019823654331498,-8.088218609675724,4.114983715720118,-0.15568420486088108,0.11295976650765206,-0.02232970325454676
8.191249899999999,4.033773106407193,-8.112838892428488,4.109114106588602,-0.09561127202765989,0.42077757292845297,0.2351119951102302
8.201249899999999,3.9496021302436364,-8.11314609564076,4.143953044631262,-0.08049934094960057,-0.11748666658362367,0.32951151640652515
8.2112499,3.936921097820793,-8.07872258465542,4.143061121160801,-0.009073758409680744,-0.7894297436682667,0.19603240810342373
8.2212499,4.046363502395667,-8.032684760949074,4.058822691738351,-0.013585996232271094,-0.12032110418971506,-0.009451555601587454
8.2312499,4.015614304133995,-8.027689803588432,4.081676060001711,-0.24277715608616476,0.2997168397405144,0.010059627673379042
8.2412499,3.9629108392376664,-8.093650474141093,4.141086835617908,-0.3157168372603182,-0.10387964589826926,-0.08361115889594709
8.2512499,4.043704141257956,-8.140584780833825,4.119665612107694,-0.13527635779374333,0.09575606065727169,-0.20441690475249624
8.2612499,4.056417803072538,-8.113936506366084,4.130392350318151,0.10556056478350635,0.49162713564952876,-0.04184893570615268
8.271249899999999,4.0207273510287305,-8.117413287417916,4.167657718168857,0.21129261820495454,0.2998035297043567,0.02666262501542601
8.281249899999999,3.9999455728335875,-8.12279529385917,4.166997821264998,0.4546552541400406,-0.0965001704409128,-0.07430787397396404
8.2912499,4.006430873713033,-8.09936375976694,4.1392403734144745,0.762840886834905,0.06505056660883438,-0.033200206294565514
8.3012499,4.016130853340715,-8.086276418595775,4.111069367174342,0.87200108622033,0.41934905260733124,-0.004472378123590559
8.3112499,3.9880327531863373,-8.053888553320451,4.10369347148367,0.7666536428680016,0.17047637779232547,-0.1726843384235771
8.3212499,4.013408547383866,-8.025130764524244,4.081591278027323,0.3058556962586405,0.19933006911708753,-0.21709248242282772
8.3312499,4.021081194151994,-8.042402806275616,4.084222251765019,-0.06595456690070912,0.5474918226087402,-0.023218365120098897
8.3412499,3.9673457229123015,-8.087945441255576,4.152217898328462,-0.05922502143414488,0.1701797207812177,0.06334767783585518
8.3512499,3.9884621561560896,-8.116794071267538,4.157233359072316,0.1996881551848088,-0.04779505768998576,-0.04112351612201646
8.361249899999999,4.031293548911733,-8.09785196587199,4.1187481245833,0.38433060650802975,0.23681328112039815,-0.03821684334688605
8.3712499,4.004665395410127,-8.065881113572505,4.13674537439267,0.2215862644674989,0.09721771545651564,0.026687560599267066
8.3812499,3.9842740558107885,-8.056805759778815,4.141493873148098,0.055800767343443566,-0.04536156827529254,0.09390842585158671
8.3912499,4.004186355848488,-8.062405214122562,4.124509448305512,0.003878685757884484,0.11433313265929566,0.09928668614495939
8.4012499,4.007811594548287,-8.070177939550545,4.113469922598586,-0.04958211388991727,0.11857983270317544,-0.048703880654354915
8.4112499,4.005738168695878,-8.086735398002668,4.1253033430167605,0.0331437030769365,0.008741459939705484,-0.15240868975638402
8.4212499,4.030213342641946,-8.089862308511703,4.134941987632539,0.1076774580516905,0.034104206968870614,-0.17284143584750428
8.4312499,4.017880000223881,-8.07764790474199,4.132393094397157,0.10538379180476888,0.11866105054446476,-0.11913119958444522
8.441249899999999,3.9676219909923427,-8.06774810798944,4.121111000169758,0.05717114979962932,0.019295316008114464,-0.14397946552458418
8.451249899999999,3.976285083874181,-8.064591777948682,4.111366754665933,-0.15993667680271548,-0.13258327137284084,-0.08388978085897769
8.4612499,4.023908573082093,-8.061714212102498,4.120144680255327,-0.2850915533042895,-0.0065250654669905496,0.20420681468017465
8.4712499,4.0184904937440145,-8.080343882495914,4.141596211100878,-0.302353325926829,-0.009231502524424662,0.25477123455555123
8.4812499,3.9992857378353297,-8.105763410275035,4.1309242844933705,-0.12090416461112323,-0.11479082808554529,0.014257979115308907
8.4912499,4.028253643882621,-8.07668767430433,4.102097199752534,0.009934217216995868,0.06527996189120888,-0.03083208034356227
8.5012499,4.03237962292384,-8.041247983689209,4.1106094934609585,-0.19368575481594114,0.06817848029098313,0.09808431929015526
8.5112499,4.005973654769297,-8.067361320098525,4.151236951838546,-0.3734796101892536,-0.03365924081773824,0.10722523277394731
8.521249899999999,4.005392560406017,-8.106991087683303,4.148853806878433,-0.3172238772724561,-0.04618035183623787,0.12288109996875075
8.531249899999999,4.02018229628105,-8.119320698944222,4.116320708955739,-0.19199050965303194,-0.015021514891188971,0.18195664512125967
8.5412499,4.018040972006864,-8.102398736458783,4.131253468470561,-0.09942067260916249,0.0401282985289841,0.13610115346784868
8.5512499,3.995906279182148,-8.077667662349592,4.141024697983194,0.039696872578459046,-0.07422027587040043,0.0674333163838113
8.5612499,3.98891664149059,-8.05407378768791,4.121254894700086,-0.15619122814449415,-0.02812562785422705,0.05726434920428431
8.5712499,3.990671449361826,-8.048601941941964,4.1040062172497445,-0.5599640833326289,0.0379505626493987,0.1724151416964532
8.5812499,4.006821247271303,-8.07492091231443,4.12555527579734,-0.4694080622867404,-0.021625852452757013,0.23325482978721382
8.5912499,4.038385508079426,-8.092375402975145,4.144065758374042,-0.26922113819433474,0.1559129535367157,0.15024614549773635
8.6012499,3.9953365050586287,-8.08665516650353,4.119818654936051,-0.4484110421169013,0.05509776552029306,0.22211469584137278
8.611249899999999,3.9340416240271887,-8.074148546470429,4.125956963065145,-0.6444788395054575,-0.5792932696973772,0.3504555810746231
8.6212499,3.9482161410233285,-8.070371346498574,4.1425607594438265,-0.6392152988570926,-0.9987273701130879,0.24035383649339423
8.6312499,3.97512177153862,-8.064741800737924,4.138582121200796,-0.3198978140269651,-1.0296354651639357,-0.023872060895077478
8.6412499,4.0299567705587735,-8.044514239644009,4.105403325507087,0.12595002798712532,-0.5538566788828516,-0.1275176773642336
8.6512499,4.0190627086650546,-8.05107929205496,4.092364049087161,0.023203839020473408,-0.22285925371152035,-0.0711432966391837
8.6612499,3.935108292295691,-8.063704789619166,4.152667442158627,-0.6304420672451068,-1.0206294296532623,-0.34484279683686747
8.6712499,4.061314473528834,-8.076543387244554,4.092301944730032,-0.5120403693795347,-0.35706766089960573,-0.2095398297500919
8.6812499,4.058846945006958,-8.106679409080913,4.084966741797308,-0.4212743254730872,0.25463888823266717,0.2328764046992997
8.691249899999999,4.0253638691731615,-8.164829294116055,4.175557129364445,-0.14192786134977498,-0.006412444500969203,0.07458685846113547
8.7012499,4.08869163034891,-8.18228709970804,4.115271970511925,0.4469232851142603,0.3704283125523223,0.08729673169611345
8.7112499,3.9895085892578153,-8.145974956222688,4.104706885341657,0.4442941105272292,-0.07387154419934046,0.1182082475201003
8.7212499,4.0503352393474445,-8.130744281698197,4.109196255243989,1.0679031056583443,0.611358524396528,0.009350512019013301
8.7312499,4.066797602105441,-8.12150792221097,4.066230982308072,1.4076959599588883,1.4407739633267107,0.06318743976527498
8.7412499,3.911849424314907,-8.10430578445996,4.1477236976215766,0.9502034548673627,0.3442628493191512,-0.3797996245328493
8.7512499,3.9415937309442177,-8.070567101064055,4.178303177606716,0.9017817755753158,-0.2548580393549305,-0.6969977151098292
8.7612499,3.9855432917584115,-8.045869637559312,4.092961160384762,0.868047733780063,0.03593103442924781,-0.41554058773572033
8.771249899999999,3.9800638992824564,-8.084717505393016,4.1278429867935165,1.5085657757118647,0.13702137441319504,-0.5457282681372712
8.781249899999999,4.001343403673906,-8.058529839957082,4.206729862090484,1.9820885322538655,-0.1345831633898697,-0.9258303872352289
8.7912499,3.998610211516687,-7.9238612494973415,4.11850754259996,0.6355773789806073,-0.36181559362654053,-0.7215075372754145
8.8012499,3.9805112870819013,-7.879693774909136,4.044940623651436,-1.2024068811004152,-0.3854163801595071,-0.08701068617338759
8.8112499,4.012626287628263,-7.9971020254507375,4.1426895321396575,-1.4603816665727156,0.024247949591475536,0.2960112256982587
8.8212499,4.058357822954088,-8.105736352449723,4.201731502763943,-0.966750556992624,0.3904308615820403,0.417397222649568
8.8312499,4.040107273727967,-8.124187363398168,4.168444809846708,-0.8619138874589006,0.0632560462579354,0.4291653630749351
8.8412499,4.043316522830698,-8.124030595303,4.12754396469906,-0.8529815486086024,0.016718797119007416,0.5223346851869854
8.8512499,4.0361251339101365,-8.108965530707563,4.106361824854456,-0.9341795379143257,0.23658958652188394,0.7127148257734558
8.861249899999999,3.983404442176147,-8.105794496607682,4.1134575389493175,-0.7038720144649051,0.1309897703368379,0.7256964501742902
8.8712499,3.9757109032193596,-8.132482572766923,4.1119206287238494,-0.129497876434959,0.13173271227064848,0.4972976600003238
8.8812499,3.982279390078188,-8.119368708129818,4.133979281816692,0.3255005527914694,0.002025352990279617,-0.001515527483804484
8.8912499,4.002761538176755,-8.087135355310474,4.122077132694977,0.5234314460076116,0.012797599512783947,-0.31505240739424134
8.9012499,4.0118847515832545,-8.093324084206493,4.086420561559676,0.6263635990185805,0.16594899838526908,-0.4505712141600853
8.9112499,3.9957443553996335,-8.093118887431094,4.110794141402444,0.6730052807396745,0.08795311210649201,-0.5175554677531418
8.9212499,3.996858404599345,-8.062119612335145,4.129776714122808,0.5257483423898749,-0.03624979169742066,-0.5588330267589318
8.9312499,3.9982412200450272,-8.036688239773381,4.126409474865622,0.2162875965820398,-0.13878836393873203,-0.25674075807704605
8.941249899999999,4.0102671416302655,-8.06163573874025,4.152423966219342,0.12613413769157855,-0.05245116594733484,0.058778306934859144
8.9512499,4.002262437651493,-8.067268217710676,4.1584055617833116,0.18847800657362335,-0.007066666797107696,-0.06414262892274818
8.9612499,3.9919020316827,-8.025300285608486,4.129380977429042,-0.08498070311389012,-0.18724271528017172,0.049214554479801706
8.9712499,4.0143454668199,-8.00033356137224,4.110489912198409,-0.5286911371485623,-0.07148710938386613,0.2841264094658344
8.9812499,4.009090294931888,-8.03383080818878,4.108696982513211,-0.7511401391415063,0.011163499161185772,0.3349695759493599
8.9912499,4.003359631796762,-8.08325052430865,4.132778536662986,-0.7131624190179912,-0.013749039220474038,0.30912959058725736
9.0012499,4.027323681310391,-8.112963129662157,4.135364453824448,-0.5895985653811032,0.10226487074563755,0.4037550906185163
9.0112499,4.03404164552536,-8.112489106017698,4.131375274285525,-0.46624647020692706,0.03643389738968706,0.3067278223163022
9.0212499,4.024480369486986,-8.100381083959626,4.134418127625535,-0.26650497984488153,0.09478358295885798,0.22278702166248582
9.0312499,4.010211133879464,-8.112355332462375,4.119333013199867,0.038140038336319154,0.16230471076014477,0.20103138536302506
9.0412499,3.997764223326781,-8.125964915598702,4.128080885824874,0.2808460045151748,0.12340807619900761,0.04359704419921694
9.0512499,4.000218709456297,-8.111385737195743,4.129018755067511,0.31334796328686565,0.07547125331997162,-0.019400151112252385
9.0612499,4.0043741492169085,-8.090163934343735,4.103809772604642,0.38095078594288606,0.06976164201258996,-0.10897116308055459
9.0712499,4.004615671486898,-8.07498301656501,4.102361796134612,0.2776416651565875,0.08748738575639563,-0.1314827757201092
9.0812499,3.992619392195879,-8.055071750350153,4.118299930077382,0.047749543918981126,0.02383230428354883,-0.046958993298661184
9.0912499,3.983900903348959,-8.070839911282691,4.139526665365075,0.08964344788336283,-0.07849383263454797,-0.093761611430626
9.1012499,3.997851012016151,-8.078772181780733,4.14551914654786,0.1683667811772424,-0.04501700439046891,-0.1453989388163728
9.1112499,4.018279555444123,-8.036748682812647,4.114618595740415,-0.016100468726293202,-0.06029135779063698,-0.028158685506519482
9.1212499,4.023967727298141,-8.025044217259925,4.1058337848764435,-0.19476157666610872,-0.13777796738766687,0.02204035801341166
9.1312499,3.9891747249129463,-8.053055566672764,4.123103566033458,-0.43080804578067117,-0.1646316810749588,0.07303124957366382
9.1412499,3.9837264525020295,-8.08363400641964,4.1235969510645845,-0.4927455541707602,-0.22733652986526626,0.2523937390587297
9.1512499,4.018702912442268,-8.088251808793327,4.1193334952034615,-0.43399487896985506,-0.2107350726628905,0.17990020530227796
9.1612499,4.0151322440753,-8.082380752172226,4.1213473607928455,-0.5706594713801305,-0.03114275184426749,0.15061240853446617
9.1712499,4.007824223204362,-8.097545391898196,4.132275334314558,-0.5244595607386839,-0.025300050779774347,0.13195288915631814
9.1812499,4.027081805747124,-8.124661955643724,4.121935155750293,-0.2869205992258405,0.09005491713015068,0.14849688078037523
9.1912499,4.0189247409880355,-8.111718139895558,4.138921428055327,-0.053671837961811526,-0.11329225883899699,0.1295009659992621
9.2012499,4.0171090731503245,-8.098609355132451,4.15125936978705,0.11864911514552652,-0.11449146861668306,-0.01169230006828286
9.2112499,4.009549280642927,-8.09705760927339,4.125661187256961,0.276117329257421,-0.06322708120966025,-0.057611432469195034
9.2212499,4.009029824357592,-8.081517948615272,4.102545451912831,0.4040611023210507,0.01922832876475111,-0.0357797108420647
9.2312499,4.007820879641537,-8.088169510260975,4.102237893017553,0.2951674981960088,0.016569084143692635,-0.09843179490466944
9.2412499,3.9909768270007744,-8.083010235057158,4.120253956141787,0.20224158270072431,-0.08081952745642597,-0.11966225156747286
9.2512499,4.000111088946391,-8.05734757826398,4.126298365871926,0.08938865155854143,0.026138858909053684,-0.1489586274220935
9.2612499,4.0243896343233905,-8.066770818269863,4.116385023032811,-0.06939535458735653,0.12517396509746379,-0.06860923493524625
9.2712499,4.007715205793465,-8.075145691501884,4.126101683091085,-0.08916819532808892,0.054700916723703454,0.015209737494233601
9.2812499,4.000637185269416,-8.07349224427235,4.14038760938322,-0.0706633332626521,0.05334937054205321,0.08296433738395449
9.2912499,4.018160964876451,-8.090435359679574,4.144093413089464,-0.04244590252564456,0.08922481975543699,0.08279708725164964
9.3012499,4.019029143899093,-8.103219609034191,4.134723805339813,-0.11131221110296914,0.15355384720074733,0.08087004031832153
9.3112499,4.005518643802998,-8.096770465875727,4.120480963094773,-0.021072268655385768,0.05047449999036812,0.09587188075557616
9.3212499,3.9900111664940017,-8.088319452174968,4.1157591220213074,-0.05821256976506767,-0.08132370333282116,0.033087981453142054
9.3312499,3.9921354341677953,-8.075338518443957,4.119622153801748,-0.07735759994797879,-0.09889175211783724,0.086814481086184
9.3412499,3.9933544201913875,-8.071618400999183,4.13039006457291,-0.030745913237795144,-0.06269057778373759,0.13756553970353702
9.3512499,3.9961618713193623,-8.091139843646115,4.1417803413114305,-0.17427425729799476,-0.12296851585147792,0.09526529289761557
9.3612499,4.011129342039534,-8.086761085037503,4.124569196301214,-0.11858698146135678,-0.12053679919648858,-0.027176317899974746
9.3712499,4.00162029692321,-8.066502236794976,4.109829872870191,-0.06596176724661103,-0.0005274679853866652,-0.10235795095955615
9.3812499,3.999692700460761,-8.07737878689917,4.128346103968609,0.05101822584077552,-0.03697733050575755,-0.12543884597162444
9.3912499,4.021865007470858,-8.086300668689095,4.1486554904211115,0.1194448436981191,-0.05467430453934538,-0.2389116834884416
9.4012499,4.016561381931744,-8.073245276876076,4.1508840385788695,0.14739500704633846,-0.029203546472314858,-0.11161611811764915
9.4112499,4.026010803903146,-8.084169152987476,4.130638611943065,0.2348362125014865,0.024132733306936494,-0.03624898024787251
