# Time (seconds),Accel_X,Accel_Y,Accel_Z,Gyro_X,Gyro_Y,Gyro_Z
0.0012499,8.600103909852848,-5.0993500835182335,0.23453991708730998,15.932059504152916,-8.852922621611128,7.8751667566128285
0.0112499,8.730271530418987,-5.0196220715370545,0.26152109358529474,15.601778221488178,-8.291740366751846,7.150784840179547
0.0212499,8.856923583448053,-4.943183333241573,0.30748647419430536,14.57472271140913,-7.292085798724162,6.097190203938115
0.0312498999999999,8.936866683622203,-4.913184351501974,0.3299909563023543,13.20723487665308,-6.030750115136828,4.893015025126448
0.0412499,8.937361110142955,-4.9838379750312285,0.3417040482963569,12.186498016277204,-4.567955150338908,3.6758199186418015
0.0512499,8.92310485632919,-5.092433890642748,0.38444875477539975,11.967961956448972,-3.5994473988539606,2.6874589860003217
0.0612498999999999,8.924343560987737,-5.203284338155847,0.43110541967249066,12.41504792415445,-2.8009658603368135,1.9800584716073568
0.0712499,8.93839406380891,-5.308976085466929,0.5152789516940426,13.595205010491224,-2.3108086628282245,1.548209883421853
0.0812499,8.959082060643423,-5.366537282864621,0.645967339068987,15.18140752609556,-2.0895796226392602,1.155095267898459
0.0912499,8.904161020828374,-5.37938057126465,0.7184375700040628,16.894531940226848,-1.872055205704209,0.8570159588715317
0.1012499,8.827891773161369,-5.353348144380693,0.7207248150488463,18.39802451311566,-2.0644094316779484,0.5672286454066016
0.1112499,8.800243186310627,-5.302272613521295,0.7193513119578837,19.164775780211873,-2.6220025433452103,0.23365498255139017
0.1212499,8.783389074462152,-5.243368676332235,0.7509616664393367,19.249300758615274,-3.4199589987947525,-0.08582898106025186
0.1312499,8.740603983768676,-5.159695008489577,0.7640423949573174,18.436467797247392,-4.380552090114972,-0.5610027453424914
0.1412499,8.68192497715071,-5.090709555337213,0.7436176856275212,16.527404394801074,-5.309529487789669,-1.2132071768544992
0.1512499,8.62837437356213,-5.086743688536317,0.7529114699978022,14.227247556304574,-6.29976090406985,-1.8828274961162494
0.1612499,8.591327783512416,-5.076423254734029,0.7751953080561845,11.63182595084845,-7.07760511245576,-2.5762935522159256
0.1712499,8.53005677898651,-5.040437721339254,0.7921869743583255,9.060072820881723,-7.621855745473453,-3.205486609860466
0.1812499,8.481553964134571,-5.053259164926931,0.8271402310230768,7.2317202973178345,-8.175047060602264,-3.9993629995737394
0.1912499,8.480803544691705,-5.105996034132057,0.853875125171404,6.221753714026834,-8.318001423181569,-4.745017093761496
0.2012499,8.445304656757562,-5.113733232390433,0.8516425280464237,6.135926434286903,-8.126293082693921,-5.222013890042304
0.2112499,8.41204053790557,-5.064253941590298,0.8537461118544831,6.706273907326255,-7.7396414493367995,-5.51596231700378
0.2212499,8.402762809686896,-4.991560520792715,0.8356753430865705,7.7459712892055235,-7.158623978808841,-5.6481152851639225
0.2312499,8.36431058769173,-4.911504104540057,0.7742924248183887,8.918219752104779,-6.45114570190036,-5.64615567656903
0.2412499,8.343886413485055,-4.846370738151951,0.7322802258066683,10.090997418046465,-5.576133406217471,-5.224075889409868
0.2512499,8.37343905080442,-4.779224650088295,0.7310468833141075,10.989345916650583,-4.427817982396484,-4.607274990834862
0.2612499,8.375154256198524,-4.704346287448552,0.7495626986140338,11.256192041168905,-3.25031077786105,-3.8468240081417235
0.2712499,8.336186881464492,-4.654571120823631,0.759718220744614,11.295326293302285,-2.1937832381669753,-2.749177029042462
0.2812499,8.284065076812068,-4.625397091150341,0.7195703933839445,11.249674361896712,-1.2263621438543173,-1.4613365557860187
0.2912499,8.25330733208805,-4.600457548146359,0.6879151020560131,10.922172636577189,-0.4432288550312177,-0.21787480941437382
0.3012499,8.2512414412571,-4.609466976778278,0.7038386970548843,10.595065475330317,0.3844709941414855,1.0386851250809648
0.3112499,8.227783657881847,-4.613092313306233,0.7309433411669747,10.229888853101988,1.0328102820294938,2.2439583547468813
0.3212499,8.227557445438729,-4.621257168838192,0.7378551796992083,9.806270766609599,1.2596412092753522,3.485423990165289
0.3312499,8.238551097870436,-4.664589686213163,0.7267559738546568,9.29114695413427,1.700654803871242,4.874854012127279
0.3412499,8.23228966572084,-4.695347263143798,0.7365346595798733,8.524273073435639,2.104398719366936,6.323193445577103
0.3512499,8.268424734127322,-4.7573733413660015,0.7377110610752844,7.870456381994064,2.0990884506929826,7.653212899449513
0.3612499,8.295656127351467,-4.813789002555033,0.7285982126815497,7.048470516027357,2.198644784531625,8.694661267988824
0.3712499,8.253640609228992,-4.858839150444051,0.7628647802305091,6.071692583124141,2.4186749360389985,9.407992716034155
0.3812499,8.182177168340752,-4.934984183899051,0.7741195143014263,5.38362513987994,2.597552587087522,9.632654292153537
0.3912499,8.158165897624947,-4.996089163180103,0.7575386778125827,4.786760172409488,2.6331073865744825,9.642572859163423
0.4012499,8.193203703283267,-5.073592608080687,0.7806101387348469,4.481810506596313,2.7560167641269206,9.558915327829531
0.4112499,8.19466533464414,-5.162322187223187,0.8191472415939854,4.39863829416079,3.077344114986767,9.41896682084242
0.4212499,8.167122611998515,-5.2032651028909935,0.8742058836159581,4.215669014955774,3.543084967105163,9.32682500640534
0.4312499,8.194550045362273,-5.217320952720884,0.8942867892229707,4.404286183980013,4.217533815829807,9.159266026232965
0.4412499,8.233274068099908,-5.242637011412557,0.8835022103368442,4.921186331252901,4.669056796636406,9.01192227010097
0.4512499,8.245310428741481,-5.263695161366828,0.8844547350256597,5.538051052549845,5.057502695512218,9.107619506241326
0.4612499,8.260879730115757,-5.2613963400388455,0.9055091306887183,5.811153927190366,5.692684392698475,9.417126235836923
0.4712499,8.236139154882427,-5.235254382458721,0.9060830816864044,5.723564450857626,6.256134325622689,9.831497940013382
0.4812499,8.212831098293936,-5.205252945872359,0.8629518869469708,5.384977412857326,6.661835383278349,10.28930503431601
0.4912499,8.228084858978848,-5.199713116014229,0.8212570196470931,4.6660689291954744,6.992457182998726,10.834424347882612
0.5012499,8.244074115188305,-5.228122297621398,0.8351591673355736,3.6919369232079164,7.086481018788389,11.284236851055306
0.5112499,8.277896224986737,-5.249505300275301,0.8824696689509278,2.6472677707501444,7.185057109803433,11.778123553483812
0.5212499,8.289641659014942,-5.2684865510476175,0.9263868566119349,1.608990999873381,7.505612865640277,12.156082100187895
0.5312499,8.236407995411838,-5.306251541842163,0.9230614576639927,0.7733695381799081,7.527495287299221,12.60468037203151
0.5412499000000001,8.20702990763072,-5.351254919481764,0.8982203281131195,-0.019259920086915707,7.320485714744013,13.126014620814246
0.5512499000000001,8.180078338629423,-5.439933696084616,0.9155013105010473,-0.26490128435578475,7.198239864777141,13.392841247672733
0.5612499000000001,8.138630645170771,-5.505879846887407,0.9565000961353136,-0.3562870222805271,6.642495407264181,13.569770629431474
0.5712499000000001,8.170756188761779,-5.510517675699244,0.9886928750420877,-0.82145664331279,6.226476965246599,13.626401804120036
0.5812499,8.253183420918159,-5.504815557654482,1.0250261099929419,-1.2225334618354207,6.302659262128607,13.537747948752784
0.5912499,8.316610460749683,-5.535049306084041,1.0666960715611025,-1.652320496714167,6.316446116599264,13.55829274320983
0.6012499,8.352885669395894,-5.593077415701807,1.0837092693320272,-2.280907986794166,6.352355690200583,13.624697592814744
0.6112499,8.349225559024056,-5.634284597895096,1.115623215174536,-2.7817531921961516,6.636838330922881,13.636960960892539
0.6212499,8.293109028194243,-5.6386424841861995,1.1387824926689794,-3.5021014614043233,6.711658482783406,13.522988675071204
0.6312499,8.223813639562424,-5.627141645520748,1.0938005351852458,-4.638512018374304,6.331519371680111,13.253586235340016
0.6412499,8.140120538468251,-5.665013654677947,1.0357299029643476,-5.4588297885789,5.758093693400958,12.602274843448319
0.6512499,8.07980076168838,-5.724544146273083,1.0388811316485793,-5.551777191343996,5.0864607492174425,11.837625372489189
0.6612499000000001,8.018857861806573,-5.719849259656308,1.0651189766640325,-5.949839647385105,4.493757738286098,11.428320879959626
0.6712499000000001,7.915713920336055,-5.71955163410027,1.034026169859262,-6.091145913069674,3.8703336007237232,11.20164991042068
0.6812499000000001,7.845812653321057,-5.782081323363915,0.9999628263837432,-5.352995045223188,2.9119614487225833,10.978447915701405
0.6912499000000001,7.8965783151943665,-5.760769293289852,1.0044203849958502,-5.134396806123767,2.3971485795545133,11.09036671214797
0.7012499000000001,7.969179561466806,-5.736059443555925,1.0115155034984227,-5.325275976664719,2.472488560907453,11.546812322190402
0.7112499,7.927442558545183,-5.760154327330454,1.0120984610478057,-5.499261810724493,2.6865052354655212,11.985169579970306
0.7212499,7.889494073655164,-5.78246892809862,1.0200822308455042,-5.845005906273043,2.867593881653466,12.54074720060911
0.7312499,7.8663881460541765,-5.813787855529742,1.0393673681785092,-5.854820582949855,2.9867374721067472,13.050256753840529
0.7412499,7.825402786736227,-5.802642721509663,1.0447357989049317,-5.59218277687152,3.0950403561725213,13.128884089417491
0.7512499,7.744270656891035,-5.800652826546633,0.9946399680720684,-5.009744268855609,2.8124720919352466,13.04318249176641
0.7612499,7.653227855348988,-5.841617842449044,0.8826723156250095,-4.2666766885762915,2.2266785410927046,13.160087909373214
0.7712499,7.611693624444979,-5.872894658222906,0.8060273339684745,-3.659327465828359,1.8016603402280205,13.462418790244978
0.7812499,7.634111423918095,-5.861005826935056,0.8222527803061191,-3.4654148045627937,1.502711536850454,13.582624673454683
0.7912499000000001,7.681357294279759,-5.840820773824742,0.8138394802425207,-3.8548466944663025,1.377256100483243,13.773535256351911
0.8012499000000001,7.652918687803531,-5.8881427593254445,0.773768396414027,-4.5348105726040195,1.3437332224759742,14.052782833368639
0.8112499000000001,7.614277509217621,-5.9515016449975064,0.7148741652469153,-4.8201043554149265,1.1955555358941807,14.036849149713122
0.8212499000000001,7.66276747613966,-5.962710320975228,0.7128361826757966,-5.227890682023806,1.3188547478978914,13.800330119332195
0.8312499000000001,7.760047262731755,-6.024575913063561,0.7785106780967003,-5.145114424776227,1.5843058780857944,13.41590291747305
0.8412499,7.839661998431801,-6.124932110099619,0.7921727872812031,-4.618744120863539,1.9784190599424876,13.299070225398609
0.8512499,7.882750700019117,-6.1795853377330925,0.758911941398937,-4.29382271159487,2.7113254491603165,13.313787210542923
0.8612499,7.9227868604912235,-6.190783635731674,0.7505951237545075,-4.155970210393689,3.4931896275739653,13.065520789998414
0.8712499,7.952065256567415,-6.221969715894631,0.7459969099346818,-3.759362522547871,4.227323343629412,12.358143467941765
0.8812499,7.952688292577991,-6.294316816673546,0.7194664090289805,-3.3367070276423854,5.064551826072934,11.458324671248834
0.8912499,7.933790228473518,-6.367104531460259,0.7131853808947004,-3.1391951848913138,5.884199822794899,10.52234056384386
0.9012499,7.890189071012436,-6.416275061525244,0.7238247819659901,-2.6310043154276324,6.417617176333817,9.353091100264933
0.9112499,7.837824882372066,-6.466342255073162,0.7356089732397748,-1.9674872107771568,7.066243995449591,7.879394572775193
0.9212499,7.813406116876174,-6.570161215176375,0.7978652051955119,-1.0299737086396603,7.57971965379178,6.327642269925655
0.9312499,7.835343987851308,-6.644896812774123,0.845291365746357,-0.06846640341500211,7.983768204709185,4.885676225270113
0.9412499,7.804860556165936,-6.633814625117809,0.8004864872461163,0.3190001180246173,8.231548875900552,3.031228963325612
0.9512499,7.718148008954713,-6.637617051516782,0.8237379272624024,0.2721764402338743,8.140141956236661,0.7640130282880591
0.9612499,7.631687951566017,-6.714790905771169,0.9168083959022006,0.1850492967085821,7.962421185017165,-1.3882375405463037
0.9712499,7.505067106593245,-6.82565634753394,0.892662455604559,0.01674767591321786,7.533956432337084,-3.1384885244813985
0.9812499,7.323299665996201,-6.880849578904068,0.7833085832685873,-0.4773966749068918,6.602852252762624,-4.416185066306826
0.9912499,7.148300174777753,-6.8756936194956335,0.6967305228311864,-1.2107266098677911,5.3096411419430165,-5.438876252127369
1.0012499,7.051436663003466,-6.850708967040828,0.6487118369831505,-2.1403908327745005,3.816378014392572,-5.908464272683848
1.0112499,7.049647478369419,-6.7589184829469975,0.6274376985782021,-3.547930244112508,2.7358969315881807,-5.464785854394044
1.0212499,7.137836042956066,-6.597396999464271,0.6333697207779623,-5.085521627309918,2.2704046283654407,-4.435190634520116
1.0312499,7.306261217868222,-6.426433878164247,0.6141758622437147,-5.8851815365377345,1.7825199829018479,-2.7468714122578777
1.0412499,7.5169240043824335,-6.223311512525856,0.5630048954357594,-6.338573113002501,1.261802236617119,-0.4193291571800554
1.0512499,7.664421251260883,-5.987040866366212,0.5113336904061792,-7.115793167644594,0.8896178015675049,2.1623377410606044
1.0612499,7.774746352679879,-5.771347410259411,0.4052481787477882,-8.610891145965317,0.5938965685194953,4.6173867290266415
1.0712499,7.919076043314484,-5.584678825209263,0.27995766916186005,-10.710598034802235,0.4505888023489105,6.573095624050901
1.0812499,8.010808795634132,-5.472825652340119,0.21776742710935726,-13.739056018960955,0.35349398634905277,8.48373216224679
1.0912499,7.972053625513046,-5.488171682214847,0.20604255167085997,-17.15860677562624,0.09991836145608879,10.499871724238915
1.1012499,7.89691288589986,-5.570782992161489,0.2134051433241542,-19.599359844984765,0.21565761876089143,12.459543360764625
1.1112499,7.805585389993869,-5.592403948552032,0.22685042672672184,-21.143318183788985,0.4514235171563138,14.222261281426452
1.1212499,7.6620237427506375,-5.592264278963493,0.2921571013099507,-21.560106485136238,0.5900898356394741,15.334257002006865
1.1312499,7.5682450602001134,-5.630554006595818,0.3552931325097362,-20.333715469030803,0.8006089099990892,16.2184416357642
1.1412499,7.5560402647477805,-5.607667861880648,0.3106415485346502,-17.846176760723402,1.0338968818362628,17.16852430644534
1.1512499,7.6308863327669885,-5.525731821982832,0.29647288787132303,-15.14710172767948,1.8387942966238415,18.302877113053064
1.1612498999999998,7.826027737898487,-5.404177485866311,0.39572901375400993,-12.524693501422837,3.257360466471882,19.407776018526636
1.1712498999999998,8.053749593089247,-5.280283909037347,0.6295924203043635,-9.629719973777782,4.897717102250382,20.104498809081452
1.1812499,8.308827589354223,-5.268455305039194,0.9183892105635506,-7.012082546143638,7.317744569182845,20.526149464357648
1.1912499,8.438749135100075,-5.367417592265001,1.075345672339525,-3.937914729655674,10.22703357060438,20.78509908532203
1.2012499,8.369678417733223,-5.502031033903113,1.2007239743603102,0.20721543192361114,12.62190178823449,20.89211683069906
1.2112499,8.316946079772894,-5.620277365590935,1.4242273140363686,4.910478760508829,14.367472020289698,20.564626709280912
1.2212499,8.286050822253827,-5.757434870940741,1.6555885469430192,10.5791224861477,15.764489914688014,19.57652760379836
1.2312499,8.278773517311395,-5.988530991720057,1.8525803154618077,17.926515577949992,16.48393720920783,17.975274902599217
1.2412499,8.315135508093226,-6.283658194051136,2.1288592353815625,26.388903603719275,16.304134835203513,15.70920403331201
1.2512499,8.235320943846169,-6.513777889127747,2.417809639100862,34.75495551292877,15.559179957642607,12.839952406078993
1.2612499,8.036982718284207,-6.652692451310589,2.5515493179604296,42.036734760824345,14.410899424019695,9.19942925875201
1.2712499,7.87399870298206,-6.697213567898387,2.5240026528057062,47.2958411694449,12.548376076119899,5.2013256790855875
1.2812499,7.735437793866462,-6.654239202358218,2.4177947492877245,49.77489357909165,10.322460547094638,1.150216900059177
1.2912499,7.5576585945383705,-6.50645104209006,2.3096370895522393,49.312932441338575,7.230631847905349,-3.6606642898953266
1.3012499,7.4406509615725795,-6.288187506240122,2.2536033863072813,45.97448970154336,3.7500049852503627,-8.779279431886307
1.3112499,7.476931444218676,-6.074189220829835,2.210527797258167,40.043267280383795,1.5532946210102438,-13.014330896068135
1.3212499,7.5940427802286585,-5.87401677385908,2.1890240388151203,31.400842690727277,0.47368186473838275,-16.409451486295893
1.3312499,7.693081886116138,-5.787935993675473,2.1765662927534914,21.643467623187178,0.013593333689971326,-19.062498414011532
1.3412499,7.724843980097754,-5.849182757339048,2.139671742274106,12.349044964515931,0.18623613746325998,-20.665391958941722
1.3512499,7.7156338424497015,-5.978437967251405,2.109121110115318,4.321603356449168,1.1351768480605993,-21.26669283536625
1.3612499,7.703286962483027,-6.132522387119401,2.099651214702718,-1.5378952724573531,2.6608813927053645,-20.990821960446
1.3712499,7.571323317641673,-6.26745849499221,2.077156686017518,-4.825704338104163,3.9681527108434356,-20.168133338642637
1.3812499,7.344759598113817,-6.408758609000586,2.011983892245703,-5.30421700888964,5.152285668978014,-18.89139686515873
1.3912499,7.191971079823275,-6.532369963126261,1.9011808686641005,-3.939568278288359,6.20022103124987,-17.256992758745028
1.4012499,7.10160635282905,-6.60428262073057,1.832256765737963,-0.9527421206282847,6.0520760270687,-15.756471804251236
1.4112498999999998,7.069667793748393,-6.602891737508451,1.8379597722400438,3.4897196407844335,5.32403291773289,-14.438600874412503
1.4212498999999998,7.074293995806159,-6.464152001678039,1.7769722307902953,7.255878341173865,4.565237452949039,-13.259369025753095
1.4312499,7.1176194994071675,-6.221476788033352,1.6207459775989652,9.260097969544649,3.447099415905266,-12.601220112164421
1.4412499,7.229450342457733,-5.97860412921101,1.57403331951672,9.335693431554045,2.3638002571209324,-12.389921529784448
1.4512499,7.336081043920288,-5.702759502175864,1.603503968877218,6.889800932103491,1.8821851471293027,-12.17930497549632
1.4612499,7.383180473206628,-5.438319066371918,1.5779964281615677,1.973504196963588,1.957152362281974,-12.204761849324434
1.4712499,7.5497704102200895,-5.349070568983309,1.6209076566414118,-4.010648496527447,2.306488338252159,-12.498754016251825
1.4812499,7.759014985025249,-5.450189418890433,1.750318307109429,-9.236499385863233,2.887967756777784,-12.786077714858997
1.4912499,7.884805530703027,-5.621844652755117,1.9558449450483404,-13.000304998216919,4.0964532293555695,-12.514999039274157
1.5012499,8.026877221234315,-5.902223838724315,2.2433740422019204,-14.92214844492447,6.563098648060205,-10.729085375767808
1.5112499,8.06717225854153,-6.259727643494585,2.489342672652909,-14.233135873607536,9.712816509192567,-7.153614201593253
1.5212499,7.90732729520028,-6.527224127254621,2.511075547175431,-11.141761220373317,12.277998674787506,-2.207666023361065
1.5312499,7.694685479174475,-6.593440480415039,2.2392510861287462,-7.170146139193458,13.735332507989483,2.968026764677354
1.5412499,7.515044011268561,-6.415218340875693,1.8568647111175318,-2.8913307528638734,13.044267453769836,6.560488308029991
1.5512499,7.442998254472925,-6.145525158750919,1.5405168108907266,1.9111950486863716,9.986556610428485,8.000401135569913
1.5612499,7.560465030596302,-5.921395587345306,1.3002483925944304,6.474143289494408,5.711901136965161,7.899788280806166
1.5712499,7.752460751133412,-5.718553943829414,1.1402767920210797,9.360913976844117,1.1082500448381543,7.170231639361956
1.5812499,7.909799643640616,-5.506800972399479,1.064499816504287,9.610338244558603,-2.96328908571907,6.657294558555382
1.5912499,8.067312247367283,-5.313628888159469,1.0961930790293164,6.709326136996412,-5.890680318624119,6.507259418041124
1.6012499,8.181373583666145,-5.183714891465173,1.1522544420750367,1.5714298451686952,-7.744173892584788,6.471518238841853
1.6112499,8.23865718999508,-5.236627246945086,1.2254792578871117,-3.5386451214864243,-9.033356657519798,6.345736042068837
1.6212499,8.224192012697657,-5.429724899782361,1.3536754802035897,-7.36130499442884,-9.990493501664236,6.339785877097361
1.6312499,8.12674037635443,-5.679115616673424,1.4925875392356815,-9.139891261083545,-10.623718285244406,6.377368871149114
1.6412499,7.955560843905224,-5.902935825085337,1.6038888429639908,-9.024605192564087,-11.22657591114261,6.113377560052221
1.6512499,7.752428572406668,-6.117538989963762,1.6930441330897554,-7.179224367940518,-11.388415840960988,5.5566234240234
1.6612499,7.588158078309058,-6.278409398471034,1.8170357620649285,-4.464957999555742,-11.233106475843124,4.793175783763772
1.6712498999999998,7.534086952316936,-6.362245077633396,1.9814953411036746,-1.556992449757246,-10.623650388988832,3.632908792015831
1.6812499,7.525629299224826,-6.421309090992344,2.1062872177469587,1.9932068521244124,-9.377244556859855,2.2073952323640493
1.6912499,7.559748763593176,-6.476302105384461,2.1976605914857177,6.108704866896116,-7.780091478356214,0.9516342330381677
1.7012499,7.639284120480473,-6.491903167317795,2.256936881940912,9.945681110385866,-6.053788025678906,0.13433788723724843
1.7112499,7.651761201920584,-6.403820348430278,2.2600951001727396,13.507548230704039,-4.4544995993145795,-0.537839883433092
1.7212499,7.534889407809038,-6.279663262795199,2.2017840445156347,16.219033357403866,-3.2513706527572186,-1.339847302140985
1.7312499,7.363599892343463,-6.1890313565325865,2.0572226071308735,17.70061987721134,-2.8806632759108997,-1.9731930732128156
1.7412499,7.221064352228868,-6.076415732935194,1.8727851773731388,18.068674089020913,-3.394401680155553,-2.569648698775782
1.7512499,7.146631630646063,-5.99301624993653,1.7281968884870698,17.447973588171244,-4.307083633574975,-3.2065420226334718
1.7612499,7.133961034540541,-5.9559124831143775,1.6448919875340529,16.179079865145958,-5.32458445292378,-3.5053577673154064
1.7712499,7.160973469277948,-5.929336308261663,1.5691356987669558,14.352202101266258,-6.355662002381387,-3.4517027048062228
1.7812499,7.219103184708616,-5.92006946458702,1.474443716698393,12.416244063679878,-7.280641941539793,-2.9818391030185047
1.7912499,7.2887627675000735,-5.983703584651551,1.4445763901267714,10.964074697560095,-8.316087115822716,-2.0487135001260253
1.8012499,7.360375541473745,-6.118344473385082,1.4404838880862727,10.138015005546112,-8.86534422296462,-0.49561995788809715
1.8112499,7.36105785840176,-6.237087157379253,1.3960063021270006,9.895363283007228,-9.141561356121858,1.4062605819372986
1.8212499,7.3111510418502785,-6.305945673498674,1.3877777206777226,9.576110985594012,-9.498991453911467,3.2295903977117844
1.8312499,7.2900290804536265,-6.389202017948605,1.3673768999233462,9.539174667908608,-9.616563574396794,5.021321060684527
1.8412499,7.242922061428679,-6.4488662844013644,1.2780854312281926,9.456490274422892,-9.823693868806497,6.502437278427375
1.8512499,7.202424533747341,-6.465080299875548,1.2313184088951423,8.788834671830362,-10.022849093145947,7.389894019737552
1.8612499,7.2251909523491324,-6.5149073284510886,1.2370182627893493,8.357259606295042,-10.065103970557821,7.931743476078931
1.8712499,7.266979047894722,-6.550069921062096,1.2862927337603414,7.86452970726447,-10.02648892275248,8.070499516573292
1.8812499,7.311570910975578,-6.593410949920218,1.3878682790843497,7.310406941950635,-9.630772340697831,7.7753908153998275
1.8912499,7.361888076002386,-6.674636739773908,1.4389624988317726,7.185556468561665,-8.850322647460366,7.207393669488614
1.9012499,7.39074397388892,-6.71710290242588,1.40510482029086,7.350234111255561,-8.500291619335997,6.422929665999897
1.9112499,7.412111385872101,-6.729193862990087,1.3776161582819921,7.4526126702928295,-8.386246928527703,5.4956959396819745
1.9212499,7.462150556780971,-6.6894964198969395,1.3996943551475038,6.845085110640619,-7.753405350787248,4.091184896994143
1.9312499,7.47368214866528,-6.6476124138642225,1.432696002614656,5.88680418112361,-6.819099397642334,2.3098524979108412
1.9412499,7.48656350731318,-6.684929466879746,1.4113864907138984,5.261528742593928,-6.090588527737759,0.9783926679465231
1.9512499,7.548760679703031,-6.711156344559228,1.360519024302662,5.0856448354948744,-5.226330029351176,0.05359503411723528
1.9612499,7.558826180460848,-6.642620329412118,1.391822549033828,5.083450558463658,-4.565128791999624,-0.8028970636981498
1.9712499,7.559228582614695,-6.572738034485651,1.4199218789731198,5.269640261609363,-4.024975089019471,-1.6731707068446557
1.9812499,7.554420968025986,-6.528407156206544,1.3648332195308706,5.5598668295705735,-3.485142891231029,-2.6434696132636684
1.9912499,7.559104611997426,-6.452348251220693,1.3146540108089257,5.380516675796943,-3.1594945008112547,-3.562329617774325
2.0012499,7.608427230663044,-6.417801687665048,1.3142878629680204,5.227798896525826,-2.6494311606211602,-4.1814415042066955
2.0112499,7.614499696385403,-6.2965244331760495,1.3367160181767452,4.17276774265885,-2.150156841743205,-4.580245794748263
2.0212499,7.606044554996959,-6.140110020580128,1.3903699169462866,2.551415487201529,-1.399982860761264,-5.318746745804378
2.0312499,7.6143825354103,-6.149795690279485,1.4491691753617628,1.742491263665985,-0.47913406240224565,-5.823753965970404
2.0412499,7.552699513844451,-6.164519239586735,1.4267521083188714,0.7797541032818842,0.07323534107197652,-5.793770636347773
2.0512499,7.474882325768203,-6.158075607359352,1.3785798086026875,0.3615030041676825,0.5860771940455419,-5.693713230299443
2.0612499,7.430347057407785,-6.115916975141229,1.4238305551096115,0.3518076716707205,0.8892046305208211,-5.483161750754081
2.0712499,7.456331513664372,-6.074899939925315,1.5324785441477558,0.5609705555960912,1.262028558540959,-4.955250736750906
2.0812499,7.485761986924398,-6.070567948609157,1.5951578294541255,0.9447638648959338,1.764876532966649,-4.24003699937767
2.0912499,7.456776198086282,-6.0638795988110585,1.608176972859912,1.3828989778972323,2.145593922997347,-3.316478981988896
2.1012499,7.417543200761525,-6.026717795887141,1.6098070226965708,1.816804985749488,2.410195521449697,-2.4367734506192416
2.1112499,7.3804624118968025,-5.951377455481984,1.5959992648501085,2.1654128589537667,2.1410749322469584,-1.5843784234935732
2.1212499,7.3995293519912515,-5.893804419671553,1.571878596792185,2.366647163435175,1.7398853869592377,-0.6882708256338331
2.1312499,7.447974853819294,-5.848452657111297,1.5642929905911864,1.7914409347187212,1.473676334940521,0.28774069344135533
2.1412499,7.482434842195353,-5.808641397627609,1.5824582585699942,0.682991199953812,1.1169294422837348,1.1513584086794035
2.1512499,7.547001852717494,-5.816236731335679,1.639470956643678,-0.7259870743676787,1.0150668204792817,1.7482150269990637
2.1612499,7.588956448373406,-5.884621289931191,1.6834800529565543,-1.934303817465374,1.1022642831077152,2.4989477703696057
2.1712499,7.550384829877066,-5.9898852390068535,1.6910243583093971,-2.3485548835035286,1.0559793818966896,3.121927573059324
2.1812499,7.53517015325168,-6.038538074319602,1.6678179875558867,-2.3322651821905227,0.8836087965049146,3.353647570200185
2.1912499,7.5415113232732995,-6.066137868140273,1.650495449467764,-2.1387429591391083,0.5815347626476116,3.4394478825614465
2.2012499,7.549638177948388,-6.119694420575642,1.6743258285170017,-1.767210492458833,0.30678933670346087,3.5253170194798567
2.2112499,7.590801950520048,-6.171788374695049,1.687246339394189,-1.3739361713258875,0.24035079590433245,3.6667384751499097
2.2212499,7.624683150320991,-6.176951595463853,1.6935744188213895,-1.2225927057330246,0.28835931483831473,3.5841368081298572
2.2312499,7.633185980955196,-6.180411219252398,1.7171281132172374,-1.1266953220754907,0.4069679350230994,3.287667611480065
2.2412499,7.632441586277405,-6.2017348375667645,1.6980950936105472,-1.0281411517392671,0.3399135700503319,3.0218882333889017
2.2512499,7.635039250783829,-6.207918089892532,1.6287563366770446,-0.9910121202816053,0.33130337828678214,2.748487624213029
2.2612499,7.63358503488592,-6.2092202066393245,1.5796691746350104,-1.1134069943987184,0.09213856611775575,2.387472427745564
2.2712499,7.669542640688064,-6.202407239651475,1.6026465401738563,-1.3674725326034802,-0.17420735083711453,2.0237426495114295
2.2812499,7.747554141905754,-6.169147797696248,1.6158149743569692,-1.8449652565110204,-0.05472783449088493,1.680546980040903
2.2912499,7.764601292182596,-6.180600823726511,1.606259041626681,-2.1972171852484785,-0.11690171360928339,1.5563793685683356
2.3012499,7.733445278989449,-6.2271932700515045,1.5840187828505625,-2.192797295091646,-0.13259711856584563,1.3466781033738537
2.3112499,7.686908229878596,-6.1838214160349905,1.5237582734452289,-2.5814213606020893,-0.059389127568952475,0.8712816603601102
2.3212499,7.631856407737166,-6.131364725280067,1.4562069774983388,-3.2341801597296898,-0.2135300519404648,0.22766451252520364
2.3312499,7.612680800635887,-6.14062236095595,1.3945680279967962,-3.946928648658275,-0.3852184552115199,-0.5255875653588948
2.3412499,7.649101819183054,-6.183398315631109,1.402604696254048,-4.681737408486058,-0.6050476921867552,-1.1129735623980836
2.3512499,7.721037041202677,-6.221562967483711,1.4972049148897921,-4.893910203210535,-0.5497176018825359,-1.6836479399224473
2.3612499,7.729740124305568,-6.2151691171196575,1.5286688243594893,-4.783779691164826,-0.0177784671896993,-2.0547454551256905
2.3712499,7.725139652323332,-6.205835209171023,1.4789289235500758,-4.2726176617472404,0.44670810251620774,-2.0861594362180895
2.3812499,7.75015525631081,-6.192235952009408,1.4168960551837155,-3.3543096208431793,0.6262675273567717,-1.9881111195062566
2.3912499,7.739729815658184,-6.13293303555102,1.387034533449267,-2.6360170778613523,0.7509099520169006,-1.7571789607853046
2.4012499,7.733213472436364,-6.042920629024182,1.4251794814372558,-2.417076634512463,0.9888545956474135,-1.7347650063686246
2.4112499,7.779256435345074,-5.950737512969881,1.4666648448643804,-2.614187012224855,1.393997192596751,-2.043891030484422
2.4212499,7.784328152084032,-5.899529001319798,1.4626316294197022,-2.968881008907992,1.6853402851489507,-2.3275971852742012
2.4312499,7.74314124394836,-5.910578825721719,1.4386385421771921,-3.1538971918952834,1.695582399991147,-2.4079633854588027
2.4412499,7.7048471877828115,-5.938073747898797,1.4223002880415656,-3.250656278126343,1.4558373964678724,-2.20847235982114
2.4512499,7.647596135920938,-5.935868596641816,1.4283164234902188,-3.395003936774804,1.2166163631416527,-2.0757690919634264
2.4612499,7.626168509841031,-5.902103310134127,1.485077677944006,-3.4723554699642456,1.0399854063921288,-2.037659575437253
2.4712499,7.663515506228915,-5.8618413801371725,1.5262346855777253,-3.7813419765791134,0.9004598034065352,-1.8456807995549198
2.4812499,7.690711308202579,-5.858319280674902,1.5455201118216362,-4.1017209274949185,0.9689988670470266,-1.621066913763463
2.4912499,7.690740611726009,-5.896519732867977,1.5869575298414724,-4.037980127915839,1.1221020722948838,-1.4243524401321928
2.5012499,7.679207455821689,-5.953084047349954,1.602579255739967,-3.6117191443337915,1.253861650877445,-1.036139803577194
2.5112499,7.628544520075512,-5.97539058828866,1.5858500577905303,-2.767957479664475,1.1862419752315656,-0.5645065481716949
2.5212499,7.560836016197478,-5.939790004027392,1.5693017923963157,-1.821794749004475,1.0386635840650302,-0.1788693414904103
2.5312499,7.520891003558025,-5.9069423190758075,1.5613148256363,-0.9752981648367998,0.7049646093417979,0.12365301025335487
2.5412499,7.499576882391609,-5.910820936212037,1.5353202734678968,-0.4482475305587999,0.14983267102217795,0.16839022580846288
2.5512499,7.522979066905968,-5.903626971729056,1.5326110162335926,-0.4951237933785961,-0.12030659134544852,0.19122949111490634
2.5612499,7.569428557956369,-5.863407716730679,1.575603744263171,-1.053838172251678,-0.055610771969446984,0.41184741656219553
2.5712499,7.569070310638242,-5.901154632248478,1.6263889734300498,-1.5920255167184238,0.05099803334694891,0.8066011890906496
2.5812499,7.528362662610333,-5.977904749208761,1.65415361429402,-1.5972931637705752,0.45430733176153265,1.0892983664848908
2.5912499,7.492551631527885,-5.995440631698148,1.607244771198715,-1.2969760267910269,0.6576228521016657,1.4414448191078355
2.6012499,7.506619736169899,-5.9889072758154365,1.5139846810884103,-0.9794233526254554,0.7707034051813416,1.7026965744199878
2.6112499,7.575455219088817,-5.977442568468164,1.4601940205070845,-0.897368452072598,1.2524649150844043,1.7391506077589136
2.6212499,7.642108220822732,-5.927982200618654,1.468541979928241,-1.4221252550393766,2.1190181499400444,1.6495502704370582
2.6312499,7.683956884051734,-5.917068832170014,1.4874062297756871,-2.3282485776552653,3.1897748376071475,1.6203017382382814
2.6412499,7.697309360186903,-6.004511949612141,1.4502797896187205,-2.7759467107466675,3.9791005932816033,1.7335947438159462
2.6512499,7.7085489180347775,-6.091725330005476,1.3869263582083555,-2.7283246137715005,4.317761424869937,2.1564455660581343
2.6612499,7.688047032949132,-6.160579527677516,1.35937954948575,-2.0412067967469145,4.347199525736163,2.7561440082421145
2.6712499,7.645247220342998,-6.2101178612848615,1.3489925922513928,-1.0672989562150703,4.0299085909916785,3.423446088702572
2.6812499,7.623220316019157,-6.20719072480528,1.3597899336455648,-0.6630277827504565,3.748291722370312,4.035150296587814
2.6912499,7.602346484987709,-6.196539997844698,1.3493186225233151,-0.6791793503611232,3.4177368339946077,4.798383429033262
2.7012499,7.593800479768465,-6.1682785814484955,1.3082846619401858,-1.6268602445204865,3.0104383528775767,5.711940390032382
2.7112499,7.59116950559957,-6.135683450801494,1.2700673773063822,-3.8081281994066023,2.9098304730045417,6.340178136072536
2.7212499,7.54911806130981,-6.112131628527273,1.2586175536301103,-6.787052790301473,3.118685441242261,6.666604563613677
2.7312499,7.486400622205568,-6.142659850491119,1.2676495277192292,-10.178944671910742,3.6301408529107855,6.590165974720768
2.7412499,7.421383327484724,-6.227089801109652,1.229947883980313,-13.181434746784696,4.174774259664063,6.398588352111414
2.7512499,7.3487238842254845,-6.322395888666165,1.199328176554868,-15.674414680348752,4.658435493467944,6.123687352581911
2.7612499,7.260972089782884,-6.3826369979564745,1.1356668388297424,-18.33224110328686,5.760026267147684,5.794134630044648
2.7712499,7.1310736317682055,-6.40461140274617,0.9899830279390461,-20.83223947553509,7.105614524059043,5.63119930142991
2.7812499,6.978307764876722,-6.42574242694608,0.8849674361118618,-23.2027809295177,8.529695693778173,5.5808535041848595
2.7912499,6.831824856356628,-6.475406840293186,0.7776945321105844,-25.439930758566792,10.482025940650889,5.396590784359718
2.8012499,6.677774740958366,-6.5016585129269195,0.6153626587468302,-27.68625432901138,12.841718497872762,5.418854054948437
2.8112499,6.568733318973306,-6.469191724590239,0.4646609455031679,-30.312343518134202,15.778064703028782,5.799137258921313
2.8212499,6.446091684324858,-6.457610712346525,0.36936171521772926,-32.8462797171006,19.553468260176942,6.176354210225754
2.8312499,6.274644739225585,-6.4517835787103595,0.25421950093594714,-35.5190229679842,24.01076161699706,6.998638550095558
2.8412499,6.0463482746326385,-6.476480798491451,0.022026728021906042,-38.15463467951064,28.99545146381378,8.423698681752803
2.8512499,5.7003610277777605,-6.481870105669132,-0.17071854136048928,-40.61398046749468,34.18519060972175,10.479745677636028
2.8612499,5.251166493962587,-6.441373226049865,-0.22072754872071026,-42.67385137521449,39.59262039498259,13.181375624168618
2.8712499,4.694692584499514,-6.39104550948833,-0.33637246051146635,-44.16928136783869,45.374123837259035,17.125237231693575
2.8812499,4.073666132094882,-6.244325762872752,-0.5851940617808666,-45.45012461743382,51.32366092320471,22.12279073706474
2.8912499,3.491145316190064,-5.97080352195172,-0.7925683306194955,-45.768358206024274,57.90217870338381,27.845355622590198
2.9012499,2.8107905787708227,-5.582727768494422,-0.9345927098208157,-46.05800201485864,65.68830618390055,35.42098746314965
2.9112499,1.9593221458800891,-5.084528431256733,-1.2381491060743328,-47.33565934274343,74.57131657266625,45.41864533784482
2.9212499,1.0699684601556265,-4.537960023508446,-1.647211968642005,-48.60637444414064,83.65481079350509,57.342638920102644
2.9312499,0.2309985530394322,-3.9192763344747865,-2.058573370713528,-49.04357638152996,92.83509819285271,70.11373637379494
2.9412499,-0.5538101561782238,-3.281356939851786,-2.441544892751751,-48.60576192613218,102.19375342363794,83.10513912180132
2.9512499,-1.4090788579778426,-2.7360484015997772,-2.5583762131874055,-46.287907006491,112.47408537223681,96.54927493096811
2.9612499,-2.012092473600187,-2.26888354334835,-2.4144830076173727,-42.782647046793734,124.14359711374549,110.77945660496856
2.9712499,-2.2094146038631637,-1.8205297343088112,-2.0721899065973295,-38.348065828688526,139.43255103195347,128.29163102658595
2.9812499,-2.3979213060286972,-1.5412977596412676,-1.5064988610240062,-31.981883265179857,157.5539983118999,150.23807840941993
2.9912499,-2.6087929438777824,-1.5501044218884317,-0.9935529408029318,-25.74577000404324,173.7792884063256,172.27091318113114
3.0012499,-2.890861068412382,-1.6902575692893453,-0.6778993568570789,-19.2350882228954,189.71698521893697,196.5009722868973
3.0112499,-3.074018117775751,-1.8382513371544666,-0.354946419602634,-12.517510774540812,205.5984223906989,222.8296646074372
3.0212499,-3.073088570689129,-1.8703804266610358,0.10157822970752751,-7.113537436247938,220.1028952704166,248.2528615037108
3.0312499,-3.46556370556586,-1.837256359734497,0.6854955326947133,-3.8204562856371855,233.06906817602822,272.32550324533594
3.0412499,-4.213155320098368,-2.049247593259044,1.4592914383844022,-2.955123322524901,244.37196905121206,295.21860785725346
3.0512499,-4.7153872621343575,-2.2954980202596404,2.5673914686545447,-5.701878161855062,253.33940896576163,316.3527232051622
3.0612499,-4.884572661425764,-2.377508894726292,4.024164107308218,-13.759361447535213,260.0011042096008,335.2875617286064
3.0712499,-4.685164725096908,-2.909356372348014,5.874215185150575,-24.087527345721302,264.6293386204115,352.32053085168604
3.0812499,-3.9824746237477715,-4.248791866989446,8.256672872824705,-30.496211201824256,266.3127632610694,367.6141716942625
3.0912499,-2.827563491184334,-6.06186469070468,10.934197536552311,-26.843422556952145,263.9566613805689,381.84330435354923
3.1012499,-1.6305239762223624,-8.687333757507874,14.85237230209189,-9.665908257177163,255.9315219282485,395.07083124440385
3.1112499,-0.2702717245142193,-12.257353081642737,20.040804395925615,23.401400662175064,243.4117358100271,404.68325784500865
3.1212499,1.6501610636815254,-15.845961742967917,24.301153407200953,71.78571628631282,225.62758764573428,407.98360813586345
3.1312499,3.485392671347138,-18.507363951402287,26.63392439186816,125.05656000460445,197.6198794178444,403.7831177398607
3.1412499,4.796825697347519,-19.408268653788998,28.242888627336736,166.22799347789515,158.40989004070903,391.1063970822299
3.1512499,6.059594912289367,-19.61136744425295,30.702030884443207,189.05054363557994,107.39908737451583,367.5012531939431
3.1612499,7.825633476179764,-21.151974728312638,33.471112456025764,206.0596158912687,44.229726001850835,333.25055032293136
3.1712499,10.079689435225358,-23.268621402477397,35.661709084265354,223.97508520295307,-28.839220993269546,292.60993562528546
3.1812499,11.704839102895296,-23.020032999680897,37.508663614198326,220.84384493336486,-122.52931682856139,241.5787804640353
3.1912499,12.014367126723913,-19.601710521706963,39.363382256378536,169.45061988508874,-221.74877292612032,183.519422034463
3.2012499,11.621634653461168,-15.948094417908575,41.95451155926154,70.0150020312218,-302.86204360551045,122.00017917683023
3.2112499,10.316891089613755,-15.067521853330032,44.57188536260155,-48.357920833564854,-380.36356947251375,41.286974214669804
3.2212499,6.713297141342925,-19.581503606846777,46.70510058976072,-144.3647358140479,-457.7947132498016,-54.84676222666628
3.2312499,0.9097148327479987,-30.506125238006977,48.04078389938636,-177.61740477340075,-499.9503604862576,-156.09074189225663
3.2412499,-5.766843857621634,-44.083876520720565,49.175739803097386,-129.74415527493093,-500.6228026951783,-253.84343766192794
3.2512499,-14.67826849081061,-57.220808981011025,49.892012158939394,-1.0281671838592858,-499.37553474690725,-335.423927126532
3.2612499,-25.407518622179644,-66.11632513608684,46.22763234733833,174.87574022995406,-500.273299837278,-389.2488697585881
3.2712499,-34.58713039929765,-64.98897514256676,39.49041719137411,320.24148200385383,-499.98153384103034,-411.598783498945
3.2812499,-42.652392190153805,-56.2520243033575,32.41532064774559,387.4694469673214,-499.8980108376287,-405.70463828709717
3.2912499,-49.659732539502144,-43.91306358819309,22.050802246660282,364.8999065459761,-500.09828075523876,-378.344709702283
3.3012499,-51.19968062796306,-27.763955277906454,9.970663320905853,257.4428504383923,-500.26222567804433,-350.1507386027001
3.3112499,-48.27013483327278,-9.353732866406137,2.913150781847936,78.67905526375358,-498.6016672184559,-341.16652569714034
3.3212499,-47.004188264357,0.8859233061021351,-1.3290631868121818,-99.8186522147348,-503.4743387864022,-339.65617177786424
3.3312499,-45.3612296626915,-2.298149473315285,-7.956316190224015,-176.65626666973924,-488.8212489128243,-314.16280452285315
3.3412499,-39.67650399563033,-5.91511680484176,-14.196388206902784,-152.54680520051494,-413.47398014814235,-255.6349328778923
3.3512499,-33.34082087919096,-3.077928749657774,-15.428664885214797,-84.3616752560356,-331.88148793716095,-185.44050592114294
3.3612499,-27.901255583099356,2.5098924160406106,-12.102627700098532,-21.267496750705394,-254.59870349164032,-125.81642758997566
3.3712499,-23.23223791805393,7.921806035641564,-9.486518381964192,3.937097355743238,-172.2853826538392,-79.36400206780085
3.3812499,-19.7091580570062,10.533912340249456,-9.140623210243394,-9.480427238187493,-108.40755618165093,-39.30546473259139
3.3912499,-15.999603147521455,11.29979970157543,-7.700232643915778,-56.960956705113354,-64.60624360133939,-6.378948670521768
3.4012499,-11.994278809663838,9.96995953370445,-4.62008490930467,-106.08504518387954,-37.41908647667562,11.482415633753668
3.4112499,-8.291682082343545,5.949457255272695,-2.106448117267018,-129.26783133088577,-21.38040464883902,20.173908624240738
3.4212499,-4.198948115633586,1.7482358121003718,-0.29991044604881706,-136.09881833188223,-7.682495036290486,30.068469045871733
3.4312499,0.32357346223666195,-1.1122209265907261,1.0865290781094898,-128.98791962240776,3.8981331961012398,38.8533654725171
3.4412499,4.624908180847015,-3.3179712816533478,1.9938246317512125,-109.46350614886514,14.13414624623087,44.72271605754792
3.4512499,8.170188163891101,-5.284393303979267,2.5141579451198237,-83.75749272402008,23.46462849343064,48.504537765858174
3.4612499,10.90109276840483,-6.26266903603444,3.0294694215821103,-56.821070705918885,32.31235778963372,49.38369725882208
3.4712499,12.564134511018116,-6.528222933752209,3.7386802754111175,-28.97919966565326,40.32765916843451,45.62766668192737
3.4812499,12.917107100713498,-6.490144760579305,4.164732093762751,-3.3358006925727577,46.117090726423456,37.803823843293166
3.4912499,12.525566741185925,-6.294114194357351,3.871440783715435,16.28688374478888,49.504613591403704,29.58157264413842
3.5012499,12.223892271285875,-6.092886413556449,3.3129270127761727,28.789925673509025,50.96554325311919,24.154904612478813
3.5112499,12.106873861958572,-5.852013319610566,2.9104245442641528,34.21464340920993,49.737407557396416,21.68210966453311
3.5212499,12.008958566960267,-5.578521781641291,2.714372997418105,33.32049789091753,45.59452592114718,20.587707528770295
3.5312499,12.090383116220519,-5.1864752672144405,2.7837024470712834,25.759949661737256,40.94638342297306,19.4371341450217
3.5412499,12.163227315960722,-4.747630450507907,3.019128817909943,12.261382979652945,36.34275895637573,17.49214389332302
3.5512499,12.043073003291164,-4.574570263449667,3.1741323429677877,-4.157223475686875,31.73074130891311,14.905136452023951
3.5612499,11.745568179356896,-4.675356990247848,3.3606957192364537,-21.25045489145067,27.72124239854819,12.084795961963184
3.5712499,11.126101930582864,-4.966562108602705,3.6383613448167673,-35.97013166879318,24.105931416103413,9.256297282317478
3.5812499,10.330975769728438,-5.429595262871586,3.7497263010428212,-45.69615134299433,20.27326317560458,6.920047221718117
3.5912499,9.801269349744247,-5.815141564408824,3.712733521884678,-50.54282903942034,16.946519718084797,4.956328054689923
3.6012499,9.569875370496277,-5.9503875047463195,3.780933633985972,-50.60598198483602,15.37967997550622,1.7734926484826126
3.6112499,9.307879564465166,-5.883853635827591,4.003579169446645,-45.05861489038897,14.788901790110398,-2.7685358954611807
3.6212499,8.991073657294749,-5.715980466364845,4.157335669303273,-34.62501675284357,13.821759897915177,-6.794588104976999
3.6312499,8.576321483255434,-5.6056610141559124,4.21445180678065,-20.843559206581396,11.179452879507707,-9.565416530070198
3.6412499,8.145853331929063,-5.437424562258182,4.179493611538257,-6.204937527223945,7.135428915016275,-10.837321982578661
3.6512499,7.838899646861598,-4.804039950261839,3.823679827674063,4.57010246647274,3.5015011460217544,-10.223892284968773
3.6612499,7.4103838745382795,-3.8309676948712976,3.3868303255165384,9.365978323262993,-0.3530346084138771,-8.408659142656878
3.6712499,7.187669773732965,-3.113288727983496,2.909571624237938,9.235632100464338,-3.301257545147656,-6.270696812422223
3.6812499,7.228417270314908,-2.455901340719656,2.341412663742109,3.072632878717925,-5.256598103427802,-4.520217205885224
3.6912499,7.52708609166935,-1.7733748346172913,2.1459691512774053,-8.679143569639756,-5.510481229017131,-4.1222244824132765
3.7012499,8.000211947378077,-1.2846078994693746,2.279832414831848,-23.37458253505906,-3.347101976543513,-5.703761419095323
3.7112499,8.253883713316979,-1.2708151964978223,2.321221753165944,-37.74040478351952,-0.40348247779984536,-8.512216927393311
3.7212499,8.246167914583031,-1.7478565959688857,2.3103953946613895,-49.54703382732653,2.724393308496935,-11.162678586418425
3.7312499,8.173708140113908,-2.3492896162044348,2.2581490683113277,-57.78646099564965,5.799997524307948,-12.837990253796677
3.7412499,8.006608213564876,-2.8653661959122037,2.1606881348367004,-61.66337873696733,7.821709490222505,-13.657132937338664
3.7512499,7.67271720255684,-3.355084680146173,2.127571858089663,-61.21674906262798,8.3233423083623,-13.95423810690496
3.7612499,7.306372832812277,-3.938122999603144,2.109588596703369,-57.07851837085963,7.521971478734977,-13.470178034751541
3.7712499,7.215455763049568,-4.493870261593618,2.1211439210926417,-50.35172257132966,6.673732937404227,-12.454913888218776
3.7812499,7.384972151665566,-4.783057899791495,2.1443514234186836,-42.11549307976743,6.480873413218081,-11.032805891157516
3.7912499,7.566729492921456,-4.869421101958648,2.174937347840988,-33.176142134936086,6.327493398395541,-9.210738289767828
3.8012499,7.656101745656865,-4.935889419260645,2.270018794365912,-24.251190949199014,5.6814977218176566,-7.197269962492611
3.8112499,7.785456221235335,-4.903489380186355,2.3652101979332865,-14.770887641207171,4.735976217547797,-4.356629958186997
3.8212499,7.962138738166767,-4.703775745879006,2.3185907110879387,-6.260935154829553,3.541380258522733,-0.4222729321906651
3.8312499,8.12037660081599,-4.402091870128491,2.180220772889353,-1.1730059481576602,2.1343374472702856,3.6310472979962896
3.8412499,8.233903895767588,-4.169526976613043,2.050362514315386,1.4477023987590303,0.5076810876181357,7.690407915532441
3.8512499,8.285628535794226,-3.992099393946611,1.927168642384718,1.0438419727832495,-0.8269528856606441,11.476615394367727
3.8612499,8.36155692885124,-3.7702381232520485,1.8876898297284634,-2.8638258846966096,-1.781402553738436,13.924641776762128
3.8712499,8.531398600754557,-3.637272871604704,1.896741045800166,-9.14825621991748,-2.293935397113716,14.81749566216085
3.8812499,8.760580823575463,-3.6709656695736625,1.9361655702355265,-16.278353432207034,-2.2416144387277823,14.692187119743286
3.8912499,8.913412033238183,-3.842874951532474,2.065065059979544,-22.627655147368767,-1.9156179124138122,13.7208494284829
3.9012499,8.916422854577004,-4.057346061525192,2.2744636964959097,-26.652076148992673,-1.961407305050168,12.111903594924934
3.9112499,8.7674671650926,-4.323876623657585,2.445954090574062,-27.965884570794422,-2.370749401926222,10.551841066895628
3.9212499,8.464281466013684,-4.676801833670074,2.4781777672493073,-26.485038097643688,-3.0609121604120273,9.652275993341478
3.9312499,8.146624988472096,-4.923698065575761,2.3571899681645525,-22.821622463097622,-3.9337939303547724,9.688836677840284
3.9412499,7.99685864717234,-4.917535472951156,2.244251483024101,-18.728501329943146,-4.801224083915255,9.818675849904437
3.9512499,8.044670630752197,-4.73146691727688,2.3318412771031234,-15.421973102867037,-5.181365543644404,9.271452891724039
3.9612499,8.119131500470065,-4.544711821428773,2.481167088766072,-12.957503323497933,-4.92491637911438,8.028615534069921
3.9712499,8.128707959615124,-4.380720150650835,2.501865556141206,-11.482070109340082,-3.987826538177132,6.288196761376508
3.9812499,8.202995849168579,-4.261794465338922,2.4479032481526826,-10.858510758348904,-2.4100494692069194,4.430975210548119
3.9912499,8.258334111816229,-4.135196189511909,2.394592722737738,-11.081406131896573,-0.8899744565920628,2.5264441451780937
4.0012499,8.349135724938217,-4.121148841802056,2.423773699143401,-10.88526423960186,0.5538485005412133,0.8259912045737627
4.0112499,8.363209811886357,-4.181856251175331,2.470797345945848,-10.649534492844854,1.72194984816565,-0.6217224187534972
4.021249900000001,8.27743519292293,-4.387795198130366,2.34689719200664,-9.018999567648976,3.1372442829227665,-1.0730127907085543
4.031249900000001,8.273031465263124,-4.654334910935187,2.1146586293427365,-6.434358915739065,4.449447442208537,-0.4456219430566538
4.0412499,8.109553994386408,-4.463891496629938,1.962443286049524,-7.564623620202174,3.8762878644350947,-0.07476549110234024
4.0512499,8.234931795629157,-4.316788715388389,1.91733479899855,-8.694187548077371,4.386261951229006,-0.4266275663742782
4.061249900000001,8.668258937943751,-4.327082760906185,1.9693559541710377,-9.441189621005933,6.024285160981392,-0.8412145207342974
4.071249900000001,8.826597179405733,-4.363352986867901,2.073834635790706,-10.926307763738142,6.614275780736991,-0.9830604722860427
4.0812499,8.810941668416055,-4.549606793365464,2.1888715311413405,-10.860753496420122,7.06969156330677,-1.0996823014151706
4.0912499,8.72361465643288,-4.789271769658511,2.2432337869008494,-9.126443881063302,7.626541814492775,-0.864690824560386
4.1012499,8.511046075181595,-5.030366105956297,2.2119158083486616,-6.632806445091467,7.334275525538575,-0.11513641554446474
4.111249900000001,8.356496744099735,-5.201831819661733,2.195757517298067,-3.9121538048696913,6.378583203986879,0.877786885871318
4.1212499000000005,8.27604310256502,-5.277242677521662,2.188144920439112,-1.3009087699767636,5.2795313178485035,1.3688441627968222
4.1312499,8.09676201052628,-5.278788794470169,2.1637397249383654,0.6099317759327406,3.642707258659257,1.4077055582664755
4.1412499,8.059839657735223,-5.175337737848359,2.1809097296280147,1.1867676483008947,2.3481622268442925,1.2034550740079684
4.151249900000001,8.244511904392374,-4.959779051228901,2.3032885023527387,0.27450528441070965,1.4099378448083626,0.4739600875726216
4.1612499000000005,8.314974471967574,-4.81604192690597,2.5223556008573214,-1.8876597222937803,0.5599240648354369,-0.5348501089635185
4.1712499,8.241289683089152,-4.851961397737199,2.5851379612744263,-4.566215913978561,0.6277672699209842,-1.5638993289497198
4.1812499,8.172568096169725,-4.821744011538252,2.3804657935547007,-7.614352479566713,1.062767927955757,-2.581806667208586
4.191249900000001,8.170893740708797,-4.7393595529833235,2.245972306452053,-11.083097680691658,1.065319753117599,-3.6178055437009573
4.2012499000000005,8.235732267875887,-4.770524367032941,2.3472355772455287,-13.831117643714286,1.2134472445399787,-4.765695980753814
4.2112499,8.240815815279529,-4.843565401921423,2.4578378924981648,-15.613090257004906,1.743791634774201,-6.239094994783941
4.2212499,8.263595036381039,-4.942091045427593,2.504804722712405,-16.37315959674876,3.225726425789433,-7.527240876162904
4.231249900000001,8.34708073377957,-5.127068356301778,2.5401714632462262,-14.847123200680487,4.934315686463643,-8.35355828864007
4.241249900000001,8.299946820150158,-5.152008939977023,2.56143884442076,-12.536287817823034,5.330059930482362,-8.734290521102634
4.2512499,8.266698350381052,-5.160522200933631,2.621979633491976,-9.665932659221538,5.394202692161283,-8.789208346006737
4.2612499,8.2208220067276,-5.226024204808632,2.6352294233672393,-6.409814209655236,5.486529502839523,-8.650572143264574
4.271249900000001,8.162240240174901,-5.183804474578761,2.511089223418796,-3.6970203043418546,5.253806347616795,-8.376474338548675
4.281249900000001,8.128849024251645,-5.014084925439339,2.412216948676049,-2.2592356283922737,4.204695363960189,-8.417813975014653
4.2912499,8.211133354994825,-4.850371072591865,2.448550559828143,-1.9429600657379091,3.6095312902608767,-8.646040127125094
4.3012499,8.330767541537789,-4.6969073358557685,2.4891843283824673,-2.800158338329559,3.710487539364518,-8.790969919287464
4.311249900000001,8.391780944404287,-4.634147891236013,2.487598481804222,-4.115050938883703,3.8522536959899547,-8.65492460090239
4.321249900000001,8.403871026926183,-4.68542320412426,2.481304476143837,-5.10241609043545,3.9986544002230686,-8.196846033236767
4.3312499,8.398926284026297,-4.665844325429696,2.474037515341099,-5.802536666568149,4.234531607580563,-7.675072362733996
4.3412499,8.381325108245008,-4.563357612309584,2.4609721860222598,-6.480588084859878,4.198096762923807,-6.988901814473484
4.351249900000001,8.325875812776754,-4.554650483514194,2.4644661622820307,-7.1266445044386,3.7699092682565487,-6.186358909590185
4.361249900000001,8.254646839328077,-4.581554998905574,2.456984217206124,-7.865037675613363,3.5358986686596356,-5.068761481658194
4.3712499000000005,8.228577651622334,-4.574607157058583,2.452261946428883,-8.373803373556525,3.2682170056014423,-4.0566588978161215
4.3812499,8.26721696247982,-4.582266421875705,2.50262601116186,-8.725122340679325,2.9766297868142972,-3.2657949152450136
4.3912499,8.348798531807478,-4.596895141408599,2.5750703980830085,-9.020957900548092,2.9133803488452803,-2.5696354981760283
4.401249900000001,8.378150932872401,-4.59169668393706,2.6341541088796876,-9.345778597078759,3.069795732835386,-1.9590727964734589
4.4112499000000005,8.331708372097086,-4.629229385985832,2.647395876273855,-9.940897008823292,3.5802771220369545,-1.2797342961596958
4.4212499,8.22384908359144,-4.739573647606784,2.6661522950315097,-10.336610515813728,3.86901399589965,-0.5816788199773186
4.4312499,8.13231138085553,-4.854464589821558,2.7027891258239602,-10.305166214717485,3.7452384655342725,0.14563877325411703
4.441249900000001,8.151345530031623,-4.987404263242649,2.7080705525619986,-8.964549410526464,3.599461499290424,0.7390262502729371
4.4512499000000005,8.154015043450604,-5.084489010547385,2.749965480789372,-6.707047096590114,3.1010894701601104,1.2356102066119563
4.4612499,8.137363156530721,-5.121573960483873,2.825823229572654,-4.733832662834835,2.7479825387731216,1.7662184520739588
4.4712499,8.140697529748406,-5.121449473199054,2.8673607675643327,-3.0353382886358,2.7711251069728515,2.280182633442122
4.481249900000001,8.083003855714635,-5.074308682404471,2.8292996110600144,-1.857855805087552,2.3290319032931306,2.7678806102734765
4.491249900000001,8.02660880793963,-5.018819801550268,2.742088785029674,-1.4237402968075565,1.6309452065560055,3.245777387295156
4.5012499,8.033538040232662,-4.918574566189524,2.6696690927181863,-1.7695532001761485,1.035468172403066,3.5451997415962437
4.5112499,8.018028015549689,-4.8292843992769905,2.6571680921422836,-2.678923934149622,0.08131107316399266,3.4636149401131946
4.521249900000001,8.016542722732092,-4.85935055242294,2.676487396253936,-3.789530444307775,-0.6742805199125389,3.546966880078331
4.531249900000001,8.11543551142878,-4.913715800599933,2.662985991872048,-4.805181648877424,-0.7092553981181681,3.9747684742908223
4.5412499,8.194168153016694,-4.914900321000492,2.6276899537885954,-5.908607098279893,-0.6298637483210414,4.112873443845938
4.5512499,8.182284831895164,-4.912088066865681,2.604642247956194,-7.208482455282489,-0.725668784654684,4.22256774309501
4.561249900000001,8.16023549040862,-4.925414967505086,2.5276509618743583,-8.71828399951552,-0.5090976233911685,4.3023058683806745
4.571249900000001,8.13749072827121,-4.9292331251799295,2.444818907915367,-10.476937024740101,-0.1960550993188205,4.116829111207297
4.5812499,8.10282000091319,-5.022048151252272,2.4758107016444812,-11.76357703314716,-0.17781030074724452,4.0339319245364775
4.5912499,8.058622304511585,-5.139445066509912,2.492331326008217,-12.463470953463057,0.1791078539904291,4.150245934152698
4.601249900000001,8.067091570820189,-5.150307617587483,2.4514974361149866,-13.141915028575166,0.8033414022974387,4.034413454071144
4.611249900000001,8.10230009708661,-5.147197023817759,2.4223202480650183,-13.600715620230535,1.1153299323640182,3.8583921219127366
4.6212499000000005,8.054053249679612,-5.1851521533981035,2.4084347505556005,-13.95115284634998,1.2636316616608625,3.675234467610093
4.6312499,7.998047240168418,-5.24195084969961,2.3750920392185164,-14.242641973691311,1.6972541801403533,3.6520864134460913
4.6412499,8.013592296710614,-5.27536081055373,2.3226526175050135,-14.377188784501254,2.2891578344964976,4.012616248429669
4.651249900000001,8.027755037117755,-5.3395075965991365,2.3654081590117673,-14.391988912373721,2.8010597346306394,4.543212970950595
4.6612499000000005,8.009275208871113,-5.414771457850283,2.3882038909746575,-14.250850938950093,3.7324262823504313,5.20508867465094
4.6712499,7.976943085736724,-5.407589506964923,2.3158479601560167,-14.474744786407799,4.645000272409924,5.854940239480669
4.6812499,7.948078606345123,-5.345103888562783,2.2393812391268964,-15.305480048065453,5.306367110837025,6.320744679750306
4.691249900000001,7.863065594231957,-5.2939471211986255,2.1620083977804425,-16.671253746230985,5.79303628468412,6.550847718851263
4.7012499000000005,7.753410246319796,-5.315327375234863,2.104657777565216,-18.607073608773497,6.497376580529392,6.897501279572987
4.7112499,7.669433686848322,-5.373481460332706,2.0053865874035615,-21.2484517404321,7.3957430671288105,7.559368902640624
4.7212499,7.552818772030534,-5.429726526865814,1.880540237632797,-24.283924981251754,8.073383975430977,8.31565592201286
4.731249900000001,7.406639750581068,-5.491079781995112,1.7938807598203839,-27.608313844190533,8.897604846911072,9.161485643945669
4.741249900000001,7.230272867027362,-5.534162530392193,1.726612255422473,-31.35803791199696,9.91709261561665,9.975176940840866
4.7512499,7.072597850348572,-5.59544852517994,1.625593799201795,-35.15179478456535,11.309980058222136,10.641307782447223
4.7612499,6.913337827735509,-5.67705653059469,1.4550697096211465,-39.03484327790743,12.976032036172747,11.281351176189716
4.771249900000001,6.79028033990859,-5.723965348245499,1.3209317791542154,-43.29255344066845,14.868560202891482,11.890885658320933
4.781249900000001,6.743978780584363,-5.764066799243165,1.274106381691278,-47.59170397872075,17.5347430077585,12.379628807074303
4.7912499,6.674100124493731,-5.827538674206188,1.2452717966820763,-51.323061335317625,20.972241052685774,12.962501540067947
4.8012499,6.574844126703567,-5.87379397688239,1.1839816249899564,-54.78527788762286,25.118686643316238,14.029954464781074
4.811249900000001,6.493254593196251,-5.886633535149236,1.1260685823377423,-57.977016830744695,30.18160298989129,15.251298438791041
4.821249900000001,6.390735046267876,-5.8939068360955735,1.0428736156104004,-60.10009946379789,35.66193435244541,16.413678941618866
4.8312499,6.205486665381287,-5.927320655817256,0.9409641047975059,-60.94671975368818,41.20470012033148,17.73992980278344
4.8412499,5.987223149156937,-6.010062893088944,0.9054372020915799,-60.80749847058395,47.08531647685179,19.261952167131692
4.851249900000001,5.81453489956273,-6.080368325596635,0.8547090734219562,-59.982084401964386,53.53129843590462,21.143992406985596
4.861249900000001,5.570620272961103,-6.007860376332877,0.7611842250302547,-58.39026745176051,61.29155901325642,23.771997735313008
4.8712499000000005,5.2837869586458375,-5.879956101613031,0.734049617232624,-55.98170705132642,69.28577881498282,26.99403089331604
4.8812499,5.074281024123128,-5.81098367460652,0.7732532853567148,-52.810584587142934,76.54952341875702,30.639047989587638
4.8912499,4.744857995456491,-5.5579028439273435,0.6928787024461108,-50.13561413630178,83.79820973743404,35.18143819733775
4.901249900000001,4.329018317619489,-5.208310451150808,0.5051978210904787,-47.759802085952536,91.53714809089921,40.7349196620357
4.9112499000000005,3.9613438760183666,-4.980248337026078,0.3539735897077436,-44.575894048548314,99.75196849067548,47.63841633575478
4.9212499,3.498469729811623,-4.559628131948845,0.16230407003542469,-43.107549697453976,107.20294065692104,55.753767891198954
4.9312499,3.001413464658237,-4.07951697357193,0.042429916166666755,-43.01755889097742,114.44000037246327,64.37316462559392
4.941249900000001,2.5278708331261717,-3.8224410431457736,0.10139970701644554,-42.426203688979875,121.56728262525421,73.2973775816788
4.9512499000000005,2.0790032253129587,-3.559888186483588,0.04531530975177228,-42.61694689371089,128.06210675633253,82.57734121164661
4.9612499,1.7303437497831735,-3.394023629141279,-0.05608011787358737,-42.71872960017422,133.9538771644333,92.19752267127848
4.9712499,1.3804670969988082,-3.278946494104172,0.02601881925333147,-42.47544028263004,139.6696235661152,102.24974085419724
4.981249900000001,0.9768817699026152,-3.1253190188174345,0.20600620122163535,-41.734381499396676,145.58228171471237,112.46434634310079
4.991249900000001,0.5501564154060872,-2.9818938455727446,0.37134618804450165,-40.77255604087708,152.08092639473966,123.01137783916789
5.0012499,0.2539857054529246,-2.9115932427865348,0.5717672779289695,-40.035643944883134,159.26967705724746,134.1822542961763
5.0112499,0.1532487533898056,-2.892231864990062,0.7912709269374076,-39.052425977580995,166.97533073868422,146.21072641291983
5.021249900000001,-0.008731808526163523,-2.9435962585891486,1.1812597000392704,-37.41504750168445,175.01069875863163,159.09929915902032
5.031249900000001,-0.1732109768716305,-3.130669679281494,1.733577381139082,-35.325045685697816,183.81055293173645,172.21658170655724
5.0412499,-0.2547028644578478,-3.3383009028683084,2.1284257677187695,-32.896383552132555,193.1713698804126,185.51213611384878
5.0512499,-0.42500014183851903,-3.6096761405644795,2.529819548550914,-30.29024886399944,202.00677443479458,198.71064783009768
5.061249900000001,-0.5527680475813438,-3.8973675015212335,2.976663319761581,-26.97382813924416,210.56434619791338,211.64745714877176
5.071249900000001,-0.6059521378066491,-3.85647446900569,3.2839645030805236,-23.980457134776888,220.06446490772643,226.1292124420265
5.0812499,-0.8072516797731648,-3.9238522697720986,3.809096180192282,-21.673011682119096,228.49988826920548,239.85776626428154
5.0912499,-1.0751968550866327,-4.420414479862227,4.72839300048332,-19.663483159472865,235.56567455201628,252.68090417172144
5.101249900000001,-1.320082483572264,-4.96344624909645,5.611247137232953,-17.973852871109504,242.84830259560172,266.305817882959
5.111249900000001,-1.672110567511962,-5.670864833590897,6.475982227894702,-15.51576271825635,248.57031729462534,278.9192886589793
5.1212499000000005,-2.136981822123307,-6.640369882991139,7.457241770767536,-10.89373212395653,251.08725548402484,289.3901246534083
5.1312499,-2.62557756098675,-7.680274683911219,8.573744541381837,-3.7158267540279906,249.61022706925453,297.2722509005267
5.1412499,-3.049205079466298,-9.167302280719674,10.56775778619076,6.855521567955579,244.18443832431257,302.65642785499574
5.151249900000001,-3.10767056431047,-11.33480194489162,13.556386164500326,23.93818995914371,236.83642870035786,305.5750028998144
5.1612499000000005,-2.49590975632327,-13.655702704654558,16.584972514606704,47.71571988985512,227.7425354989526,305.4684783627629
5.1712499,-1.2790511913829707,-16.057720343082842,19.324040491571527,78.86930043684961,215.21569488661578,301.1790279395541
5.1812499,0.4301772074603504,-18.13695567399304,21.828663898288085,115.50925843155126,198.56680133763172,291.74998792780525
5.191249900000001,2.8627758883960968,-19.117766080353714,24.29400896908743,149.45089189378444,175.002854656118,275.56395724886573
5.2012499000000005,5.973097870811514,-19.347662812729546,27.391405321585285,173.97213201160912,141.3919385896368,251.23420395469338
5.2112499,9.719662638078965,-18.85107694438569,30.215077761233317,189.14793857253107,98.98632383924306,217.6466505934999
5.2212499,13.78656270132458,-17.787022243130753,32.963038332765,193.30102852714126,43.70311243845907,174.9214314501813
5.231249900000001,16.45099937007896,-17.18770919360526,36.954019660283336,187.07403867529587,-28.202183137676283,128.0075451763731
5.241249900000001,15.715634664463355,-17.067159396501467,41.03341433982652,177.54930890261232,-113.66348642215584,80.21082108471913
5.2512499,12.69505314280827,-16.885553532729716,44.91119355279364,163.21234867025564,-207.7447741712494,34.323969074801305
5.2612499,9.770717892260809,-17.08001261895494,49.19737627100485,144.1629654711189,-303.9947720275657,-7.418163919684776
5.271249900000001,4.867842545356993,-18.09677409883712,53.819865464670464,127.02891014731156,-407.0916837839925,-51.791965234274386
5.281249900000001,-5.369699979185407,-20.986558055219067,56.95311285780534,128.8978752162313,-488.33546832320656,-113.58625109640586
5.2912499,-15.78874063060267,-25.83182866562109,56.01863191249875,156.09907395807605,-503.28340568030166,-174.1606881190959
5.3012499,-22.22705617126424,-31.35618229910563,52.38760951220319,197.85760129037718,-498.6675184291636,-209.88961346212864
5.311249900000001,-27.16599479962713,-34.095384938943475,47.14604536666742,229.32673068159298,-500.26163482000675,-225.22496998204818
5.321249900000001,-31.90714676231725,-34.22545079656207,39.81344380079689,231.7524739249255,-500.1023875181854,-221.79026364215528
5.3312499,-37.55352662282077,-33.27535555512387,29.88685364616425,199.37759095435072,-499.8174854603824,-205.06569311684106
5.3412499,-41.391712201179345,-28.320705519589634,18.7200540359978,125.69173742878633,-500.22290586411583,-196.45947401341692
5.351249900000001,-40.84141784260019,-20.907003222635566,10.677402235220294,34.11596870384237,-499.9466206727218,-213.95961127666257
5.361249900000001,-41.80695646321789,-15.685729304271813,5.182195959622279,-47.226648197655905,-499.0979097374203,-230.96399454759512
5.3712499000000005,-45.98529626419059,-16.549324611664836,-2.59646289649784,-84.59637649214696,-503.43493785637116,-206.36698207759426
5.3812499,-45.60730172306594,-16.584553578964044,-10.626691189262457,-67.60035916665016,-479.6646079210058,-151.33585300306842
5.3912499,-37.973458730662216,-8.501767459028345,-15.30618606836904,-47.853094607578946,-403.5705866126485,-101.80439909248798
5.401249900000001,-29.404268246756462,-0.12838289313817813,-16.663144935479725,-49.75024899440005,-318.56053769338234,-69.96378018188283
5.4112499000000005,-24.07487196732761,4.1728807493691935,-15.309166163823297,-65.47058326998119,-236.97496302193437,-47.21427491778074
5.4212499,-19.78979035876715,5.355184766671254,-13.369370115746877,-93.92137560367007,-162.77629658404058,-20.288255498979034
5.4312499,-15.844011210898334,5.200634274265181,-11.702139648173418,-130.25506737517568,-104.99331344374177,7.146999808700906
5.441249900000001,-13.096702431479079,4.845344604419121,-9.524762398822958,-160.55492365444684,-67.59302193737328,22.804129113398474
5.4512499000000005,-9.924625114540468,3.0468984170851274,-6.957728920895604,-176.29132249052296,-44.89515777820689,28.355831002504903
5.4612499,-5.449342829509519,0.15157947488263396,-4.8371642508422,-181.60387947378396,-27.99432973556216,31.47170580943765
5.4712499,-0.7409833951927766,-2.7704312098152677,-3.1801263266863504,-177.5568957790685,-14.975511494699585,35.05639886258821
5.481249900000001,3.5836843469270026,-4.848836345619693,-1.4911503503905514,-163.2297419558225,-4.008260121886757,37.089132942051684
5.491249900000001,7.938644383527771,-5.799512819821995,0.17487477711382413,-142.80895433390103,8.983142903423106,35.01062249249704
5.5012499,11.086773588035342,-6.25406388427409,1.6032539591835757,-123.14919158413737,21.792827341931424,29.674686014204415
5.5112499,12.708397260669924,-6.639372535746275,3.2472363810710934,-103.5795573485741,34.00964007696553,22.80268103203727
5.521249900000001,13.41113345064224,-6.699465480279698,4.823259255464013,-82.77953045912818,45.577007045179826,14.217530798995933
5.531249900000001,13.315974349698488,-6.260498468219288,5.672918227006494,-64.97904814329252,53.1942943791165,4.666905507928348
5.5412499,12.57595093163684,-5.93504369250744,5.922502236423826,-50.46519016991577,55.51725010970701,-3.6312978534458322
5.5512499,11.536057495206508,-6.131983737297369,5.780085462693885,-35.53590047554682,53.41756075041775,-8.027817642813389
5.561249900000001,10.663841772702858,-6.172689117474119,5.291857776127971,-22.92806192313715,47.6720028252142,-7.65392743249692
5.571249900000001,10.404792678187256,-6.033295094398427,4.83783921663044,-14.176740011156397,39.7019425452795,-4.365591210619479
5.5812499,10.685237828403784,-5.832590397199395,4.311483318882222,-7.366729902116637,31.204301537083637,-0.8499814725583159
5.5912499,11.032486762912626,-5.274998658896937,3.5367082988611704,-4.190040129358279,22.373164808166308,1.0481450290238965
5.601249900000001,11.41269578461523,-4.432733403596491,3.2100368647696045,-8.740051130237381,13.815118485558338,0.9814013838769275
5.611249900000001,11.565009044938385,-3.871156447967474,3.563961950535828,-19.101010378319845,6.189664327122787,-1.1789522509335653
5.6212499000000005,11.1896228464494,-3.7035832264355926,3.9625905893431197,-31.630545825633433,-0.3520920220074533,-4.929092555758355
5.6312499,10.546175690069347,-3.738688159281809,3.8737957306141584,-44.566047892570005,-4.704980078482348,-9.282032819008828
5.6412499,9.877501607477623,-4.018773825438933,3.333475628718165,-56.060833582183015,-7.683337744263697,-12.837403587840168
5.651249900000001,9.567075169212897,-4.238001254070216,2.763566736254297,-65.55175889849627,-9.54187892787939,-14.465177203027705
5.6612499000000005,9.605029926150504,-4.053050927930522,2.382935320554437,-73.07665409753764,-9.862319651952118,-15.029654211262852
5.6712499,9.388035961976184,-3.785151075349689,2.275724241921569,-78.0359021744644,-9.982876167048497,-15.259411537911095
5.6812499,9.240885304241779,-4.155311009137485,2.58982414712098,-74.67677701426626,-7.885375179553855,-14.209366052114595
5.691249900000001,8.75954435862286,-4.143172106869585,2.5288657753781676,-67.3522379437194,-9.12292944997271,-11.971550386451309
5.7012499000000005,8.332939408685304,-3.935251711773944,2.007671170772858,-56.6884334537528,-11.875807137366328,-8.413878245813688
5.7112499,8.531488009941482,-4.5570962186015,1.9505229175982977,-38.378813899768396,-11.947458298539475,-4.237820257247462
5.7212499,7.838077022228976,-3.8807553443407437,1.8062366055446692,-28.300110077879648,-16.0678099944098,0.07628490789643463
5.731249900000001,7.817547385975519,-3.4568590314537184,1.4496779920802974,-19.07488370978428,-16.515923396701588,4.113787743176326
5.741249900000001,8.465384001711053,-3.6541424482814944,1.3837817839781907,-9.082291073977535,-12.775660891302433,7.0699833796061515
5.7512499,8.563898969335485,-2.9960234055763317,1.5681547469880948,-7.682913639655964,-10.408084538502624,8.349464994756673
5.7612499,8.63090507950791,-2.54597659589625,1.8428412582058373,-10.753586290293123,-8.665330715256973,7.586837773292119
5.771249900000001,8.674292154116163,-2.826889960425848,2.067460760030596,-12.755577944399798,-5.935591860634601,5.829636529975431
5.781249900000001,8.414497903341015,-3.2420322347965316,2.17530648603394,-14.679962284977695,-3.6031005920894073,3.917068482150825
5.7912499,7.905990412393998,-3.4781504244286405,2.1513151000898882,-17.899804269585537,-2.9185406465455044,1.6073049625002862
5.8012499,7.453981434300389,-3.7423550056806585,2.021047200216761,-20.18377408508995,-3.251880728013599,-1.3300459996976084
5.811249900000001,7.233613192367438,-4.083202751161876,1.9317410099726562,-21.090426799444337,-3.6897737998985027,-4.62108253074239
5.821249900000001,7.179540669497548,-4.510498984327471,1.8713556844150983,-19.673895696722912,-3.5785367598357842,-7.282404078671168
5.8312499,6.978704393957822,-4.6911580834391815,1.7265109140391792,-17.181562872897477,-4.100822687680661,-8.879960555879816
5.8412499,6.735379121940623,-4.63034053667181,1.6181459492093946,-14.120944162250932,-5.890648066078237,-9.534389333128887
5.851249900000001,6.7578555318559,-4.602617555183226,1.5575387931356512,-10.005398136970202,-7.565744016396901,-8.942844369836482
5.861249900000001,6.944061007045642,-4.381125799988679,1.3970610931716023,-6.892541365251664,-8.373011638075655,-7.2389227121138
5.8712499000000005,7.162343977508709,-3.9904232480261594,1.2252132968206484,-6.496378539585502,-8.593607459056116,-5.480475030575574
5.8812499,7.397489449821614,-3.7900031572582114,1.2513436463725136,-7.723094746131203,-7.836051793323072,-4.0016107967702546
5.8912499,7.638052369219346,-3.8811338639075323,1.3244622012840395,-9.37405913462741,-6.332347820285667,-2.214660726637388
5.901249900000001,7.8575669930971035,-4.002668165909751,1.238035885542791,-10.753965938588763,-4.078304144334317,-0.09551133872459136
5.9112499000000005,7.925829292884167,-4.039186517478968,1.1419933705971834,-10.8990351972842,-1.9444039949483969,1.9573545138219755
5.9212499,7.8880438844178675,-4.13654868255445,1.180456137477388,-9.589817444781186,-0.9496264811313575,3.48171657355828
5.9312499,7.921932925794995,-4.299978266265296,1.2573690157747293,-7.525160360695707,-0.33720061818406966,4.825015708184257
5.941249900000001,7.929217157466951,-4.433435658007682,1.196054723410086,-5.3668594972876855,-0.13220244869438838,6.12995654617753
5.9512499000000005,7.887872316598106,-4.431507279347871,1.0276324911575496,-4.572576237509621,-0.3338608789975064,6.863909071200485
5.9612499,7.954378256128463,-4.366414422772012,1.0338332406486381,-5.644972017704253,-0.4955884703542218,6.726474067461559
5.9712499,8.156348210796985,-4.3983900291993026,1.103359380675333,-7.671331567732114,-0.12048751358491365,5.950242213105652
5.981249900000001,8.304016887458554,-4.452263226502247,1.111727415869889,-10.72845806305638,0.2089384041535898,4.890609160042634
5.991249900000001,8.412918702648192,-4.52387880543427,1.2832817662610156,-13.85261910464913,0.5763035531597523,3.64459059937081
6.0012499,8.55594399220044,-4.6976430737538895,1.559049513633157,-15.438489947179002,1.219692677688944,2.2323279121648683
6.0112499,8.566956602749272,-4.937240188041518,1.7636820360004088,-14.94936286991604,1.6737795845215513,1.1825861567304117
6.021249900000001,8.453630851459407,-5.234760010034354,1.8750156504325097,-11.777365657989742,1.6905231877765396,0.9245059314650358
6.031249900000001,8.307758159130564,-5.373109148339183,1.8523918499324104,-6.837280037516058,1.0924223693846173,0.9531266742172823
6.0412499,8.129900594625742,-5.177115495263639,1.6394139062240578,-2.8129532932237127,-0.905867738569818,0.520434602170671
6.0512499,8.283098474463637,-5.151834659978525,1.4607112022200468,2.453632416413316,-2.5643560200787054,-0.029958302021020636
6.061249900000001,8.467074855041623,-5.066733755162894,1.4935975706768614,6.183812607615697,-3.3578313847561203,-0.6853613789248242
6.071249900000001,8.557696888957347,-4.752139634098143,1.5127793153482902,6.515759383546709,-3.310128506001044,-1.8432501313065925
6.0812499,8.656384998529377,-4.5862312627735475,1.597949771599118,6.15136253601249,-3.548945988772865,-3.5250442080494078
6.0912499,8.721496640316929,-4.425212029383315,1.6903240715459724,4.626903062243837,-3.462377150013765,-5.487763653931388
6.101249900000001,8.992812959828449,-4.65001446219838,1.5369148556805663,5.736964015550075,-0.7806546431912494,-6.7917503800681684
6.111249900000001,8.883651029125764,-4.669160981292734,1.2703968411229372,4.466497851525553,0.7553401901038733,-7.257663372884262
6.1212499000000005,8.691991702660816,-4.590630773459347,1.219636091850342,2.28912786295985,1.0366154567192931,-7.587072720335451
6.1312499,8.698899751571297,-4.607551054773967,1.1891664583572565,1.588103225860503,1.8971758996474248,-8.380458300257093
6.141249900000001,8.626330086896644,-4.594500905671788,1.03150733132109,0.7069601499282954,2.5974683878497755,-9.095460374329695
6.151249900000001,8.59561711171003,-4.713083090263691,0.970157346237318,0.8062039280065257,3.3758281987110945,-9.019909574889539
6.1612499000000005,8.614996330059753,-4.763433070202831,1.0351650179779082,1.209415786966698,4.222219176029072,-8.485732689558656
6.1712499,8.657438560299761,-4.7899707132394855,1.0874726115512852,2.0855067996601955,5.082063708388101,-8.28644759433783
6.1812499,8.65453013630922,-4.848579751041103,1.1299643020258514,2.9258826787045513,5.793778735010087,-7.928335165277091
6.191249900000001,8.629141778066687,-4.988664196577618,1.1486213234365663,4.0766904709077085,6.402792803073006,-7.026210031648633
6.2012499000000005,8.576247967671284,-5.1928118332763855,1.11753201815499,6.3972934812883375,6.838339143753952,-5.820336620317425
6.2112499,8.593617182183412,-5.170142452552275,1.1789255247334034,8.322115991209907,7.362913621862876,-4.497011037911402
6.2212499,8.694496863798733,-4.974956231009066,1.3222629405655093,8.67614237835102,7.9251978701165005,-3.5769476694221183
6.231249900000001,8.810245410254657,-4.787130393205095,1.4586981953395417,7.9687588629435355,8.785559966983012,-3.296458722224919
6.241249900000001,8.83882476532754,-4.5932550388624875,1.5573468428811899,6.5284383651316364,9.354068471875935,-3.539271271141159
6.2512499,8.799418740031097,-4.526673878453019,1.6441944668812694,4.960190121370477,9.455747384849312,-3.9779273540247115
6.2612499,8.757179226681995,-4.57749890956934,1.7498869812569462,3.7304306516759733,9.622566525306091,-4.1138766030937735
6.271249900000001,8.568476635357436,-4.612571754726103,1.8118870326810423,2.4193138152518796,9.142500501835437,-3.7294110906409736
6.281249900000001,8.423229374270953,-4.70231241383796,1.8301662190115613,1.5449689128916946,8.544995337137708,-2.8963760851160463
6.2912499,8.407495754148178,-4.612729411543526,1.8023426346170945,-0.16353697807262477,7.932609917334817,-1.8334680257981972
6.3012499,8.40323095713797,-4.379890727413604,1.8392910842687868,-3.285716213612293,6.897765109927513,-1.236258479370632
6.311249900000001,8.628647850951515,-4.5484366574443005,1.9783251672655486,-4.002760633586048,7.248541278665804,-1.0864911094888772
6.321249900000001,8.666388104007703,-4.6375270172636744,2.0712797439334496,-5.033166010649514,7.377908151258647,-1.018647158519145
6.3312499,8.624468210622046,-4.783712860533362,2.16042321586236,-4.908275976908245,7.392621819787498,-1.0582976685193246
6.3412499,8.580055513281112,-4.96758634824365,2.201513421104497,-3.432165044759606,7.512534999459107,-1.0545769408818029
6.351249900000001,8.502181122263352,-4.894987736146912,2.1589255327295542,-2.483800637860154,7.898636960188141,-1.228768015743479
6.361249900000001,8.469975400932313,-4.8097043036988945,2.1050457128745013,-1.7104948619200566,8.037272944688615,-1.6715740874425271
6.3712499000000005,8.380398972104699,-4.72648238082794,2.052165308950964,-2.1241266862608863,7.655589509673245,-1.918914209126468
6.3812499,8.361932222414762,-4.675346803338773,2.045306296036611,-3.0726915184419648,8.018240111994706,-2.0314615694421394
6.391249900000001,8.411219713148533,-4.633843138901327,2.091979958004567,-4.168654283115814,8.766249976835482,-1.6479273250075
6.401249900000001,8.440370924295323,-4.6678280955073435,2.132793731147861,-5.222928200198611,9.495260841693586,-0.8887577968072345
6.4112499000000005,8.408849007352753,-4.720325108706878,2.1061229998470345,-6.0918584225246155,10.250938783142018,-0.2143459109749745
6.4212499,8.414947713743999,-4.743890201054425,2.125587239957208,-6.3834637443987425,10.984714051613178,0.47777888609029506
6.4312499,8.471250342542033,-4.816287469892773,2.158561620469302,-6.012984406873054,11.325036843010563,1.4123423996782378
6.441249900000001,8.453720342802225,-4.850917480825809,2.110889385676046,-5.5190446765764145,11.122683037518602,2.5777533249988878
6.4512499000000005,8.442106089553704,-4.788258248807732,2.070048205712429,-5.684524337154601,10.689773099572413,3.5559950640816713
6.4612499,8.51800525085222,-4.732676307975612,2.033510236466287,-6.706111377991823,10.518034256504018,4.168495021072308
6.4712499,8.554921227715806,-4.656198120780349,2.0111425127874227,-8.63468321655675,10.188417929482814,4.572526486419847
6.481249900000001,8.584773926640667,-4.601801015312966,2.0655765888459827,-10.737434017083567,9.65579489060633,4.583236703868933
6.491249900000001,8.618382118699065,-4.641359158285531,2.091420714406174,-12.86548368205788,9.353582124580738,4.313721496962824
6.5012499,8.524004475408162,-4.785791001239662,2.118503193854834,-14.529485100427424,8.947746448548493,4.2128123610439445
6.5112499,8.362182294136412,-4.9861743107340875,2.1870364705765395,-15.32595222506363,8.584241698326393,4.369288209386989
6.521249900000001,8.262309393614478,-5.128823902517701,2.1632001329219888,-15.823333758901192,8.055133111223446,4.750204645862741
6.531249900000001,8.131691962994495,-5.216015539796743,2.1839126484283207,-16.153420967622083,7.234659532693405,5.097163035791331
6.5412499,7.974259776610535,-5.288552144744888,2.222641530329607,-16.222520506337844,6.374380584032602,5.187566363023927
6.5512499,7.923566938973578,-5.304145770834257,2.1642469911364217,-16.32116771606047,5.859027582316448,5.0463429450635395
6.561249900000001,7.965385667978015,-5.291595005467844,2.1510102533979123,-16.683341752175515,5.714523058077044,4.799384184350853
6.571249900000001,7.952916822100835,-5.297103096608544,2.135335384230195,-17.036013076616623,5.60996833064838,4.332053330304796
6.5812499,7.910570345852791,-5.298315404971533,2.030953218441483,-17.359952915100305,5.8851515061934565,4.12580674470977
6.5912499,7.865865568607269,-5.2656586810514625,1.8897761120279073,-17.93800242450646,6.347817949813074,4.386162817380146
6.601249900000001,7.783843002604139,-5.242529783938483,1.7419446549666406,-18.53651703209919,6.705040694605458,4.8225465966037255
6.611249900000001,7.718865053937259,-5.257312813665352,1.6217904374936194,-19.18505348658052,7.4480756563126755,5.63947504658245
6.6212499000000005,7.6977873952860465,-5.209308012166244,1.5366037625187938,-19.818415945252074,8.499803689949243,6.707645350885351
6.6312499,7.618453861776356,-5.159668923912243,1.4336587547498505,-20.660160890969586,9.527019041975343,7.66435822288961
6.641249900000001,7.516695888657531,-5.184607323401483,1.3196717086881267,-22.024369634853183,10.749702348707746,8.8644246367982
6.651249900000001,7.430563913465001,-5.20820453226074,1.2027713452807427,-24.005740789027936,12.791735582741024,10.10468233643645
6.6612499000000005,7.239570482698823,-5.197593322305313,1.0832630782238803,-26.713776601596695,15.315806537322594,11.233950687449376
6.6712499,7.016980298144326,-5.2167613731964035,1.0002402259929632,-29.533688234662737,17.821790881372713,12.292520372128541
6.6812499,6.84317646326353,-5.264636824138381,0.9550177386349056,-31.887236132195778,20.495576593706865,13.164528070470112
6.691249900000001,6.636531540490166,-5.2852394460712615,0.8947916043897617,-33.82212873903905,23.48579226068436,14.06832390018318
6.7012499000000005,6.329974841044019,-5.253282462878433,0.875501641319766,-34.62981365202251,26.40892332045944,15.320837400100437
6.7112499,5.843538314142839,-5.245947079633178,0.8540841464330188,-33.86750416976591,29.15484812953558,16.973378286148257
6.7212499,5.2291609775976235,-5.222724029449961,0.6886223414120785,-32.15805555708706,31.39717933041282,19.262811579588526
6.731249900000001,4.670159707332118,-5.158014335139857,0.44576160650666485,-30.13179021831066,34.27639178906086,23.16289379864578
6.741249900000001,4.160377888962583,-5.059888532452709,0.2810679208752639,-29.740355253978496,39.481950186219606,30.305485767175057
6.7512499,3.8424539056377984,-4.922397626055466,0.27890706224042966,-32.47859256640219,46.632903563184826,39.28641036892736
6.7612499,3.686845881177713,-4.780164892179063,0.2744944582866189,-37.527968725864454,55.57561171757686,48.20486428247699
6.771249900000001,3.430999975069564,-4.671586724915509,0.1881670812664482,-43.99042767906233,65.63669712485459,57.29140674830289
6.781249900000001,3.112155828659759,-4.694607355925428,0.18251415519750397,-50.04068086895881,75.8083727581998,66.17864568640576
6.7912499,2.7994400427183574,-4.766546930117076,0.13087409989363646,-54.306725073703625,86.44593948886565,74.70669371727351
6.8012499,2.493413648599911,-4.840491740176643,0.004148149375360354,-56.69982650865816,97.20123668980753,83.09069316179261
6.811249900000001,2.2135384454776315,-4.926714001035031,0.08983514607160142,-57.943393028314425,108.2624146569188,91.19107132776116
6.821249900000001,1.96226294796782,-5.0007665714338625,0.19901798783902672,-57.90547960040288,120.35430476337353,99.05097166617452
6.8312499,1.6673068248463934,-5.097509224965136,0.26100953417082956,-55.90377815875204,132.63771042462506,107.27756607175176
6.8412499,1.424431411319469,-5.196713179828597,0.45055498236736397,-52.04298398689183,145.12817292521697,116.09173897604666
6.851249900000001,1.245220027416989,-5.276503517000015,0.5943148533290222,-45.93717408390123,157.6463081513056,125.76048556232287
6.861249900000001,1.032018994222013,-5.227549476619932,0.6404947171247465,-38.259606518546974,169.58724656041304,136.39237611470546
6.8712499000000005,0.8685661202212985,-4.914659031101468,0.6603573057134103,-30.19339517002396,181.02446419759437,147.4259078711387
6.8812499,0.7330804768858469,-4.382766722946891,0.6645076268989274,-23.28012772611826,192.14777606540272,158.55970050635702
6.891249900000001,0.612342139348706,-3.8492023727495734,0.7551365260980187,-18.543563802893072,203.32041238471393,169.6945333035383
6.901249900000001,0.6340747889463081,-3.321444328856461,0.8444508805770897,-16.137392937764577,214.6270232583449,180.8317251431983
6.9112499000000005,0.6247437892946336,-2.780751938626711,0.8843729932622413,-16.16941276475865,225.34482513341192,192.04299872182577
6.9212499,0.40593635344746,-2.6375737910447685,1.2613816560054778,-17.449967095155117,235.11586381951673,203.42336297052304
6.9312499,0.15905492327163584,-2.808384014926546,1.7837642310424235,-19.506006088238273,244.77272881345044,215.27894854409266
6.941249900000001,-0.11656304336037357,-2.853454928077167,2.1182958258358084,-22.078230468155382,253.73082237880362,227.4735257609752
6.9512499000000005,-0.4632702948213518,-3.0254335352897526,2.8128409467965505,-24.040179576062986,262.1735682041811,240.44381493115853
6.9612499,-0.7922036592268223,-3.3634554752923704,3.365304245459202,-25.235812818411897,269.0014277616294,252.37532667442724
6.9712499,-1.2823348256928346,-3.9071680191635614,3.8874600648930553,-26.349825996445105,273.16343813857344,263.5027406523246
6.981249900000001,-1.8289226104694458,-4.914559162223968,5.171157433886871,-26.734439843817366,275.29769660283637,275.1005243744224
6.991249900000001,-2.237803695686982,-5.648039451645642,6.254254556836111,-27.790408624685675,275.641896084714,285.35473863257977
7.0012499,-2.452187902324393,-5.993725387799973,7.080962250585967,-30.481536826953924,274.4212310667929,293.33480459771266
7.0112499,-2.412595934275147,-6.714396918796879,8.6622913122257,-32.805855274573354,271.5022498229416,299.74790219956924
7.021249900000001,-2.455117610746486,-8.037925564314387,10.809500891102916,-32.31804750042594,265.72439872301203,305.27507622998144
7.031249900000001,-2.838334355945936,-9.827505425820666,13.107617608029932,-27.566730701606577,256.33486433686096,309.8826462639704
7.0412499,-3.3329066547744572,-11.86974298727728,15.77036189310539,-18.407911987426733,242.91111781511808,312.11894111462743
7.0512499,-3.5638749614008085,-14.056637326828582,18.77105343583472,-6.206597162166513,223.41407899063805,309.38655822795204
7.061249900000001,-3.4366063521160406,-16.821170781073416,21.70490982664271,11.154767548124576,194.1879136343016,300.46435795662677
7.071249900000001,-2.546131806301323,-19.789827125623138,24.230837610057048,36.291814616629985,154.72354781744576,284.25309647900656
7.0812499,-0.6836023242325437,-22.084820968541724,27.059394851959638,62.56070922450664,105.61030123678577,259.11648383855146
7.0912499,1.6828434801102723,-23.9504660769851,30.40300198268722,84.96653272468899,49.13616294882873,224.31384716816558
7.101249900000001,3.9162885690276803,-25.362754185103,32.960693913894474,109.43649589881872,-14.995180755193852,178.13441221129932
7.111249900000001,5.9942301362103025,-25.630013294553983,35.921874909105874,127.59852786597573,-91.81368106410868,123.44324289071484
7.1212499000000005,8.271467236346641,-25.456639854904523,39.90751839972038,130.5139185158991,-176.66869267451338,68.8320348835629
7.1312499,9.596521275983857,-25.46799063832414,42.88016022641081,116.87657718652936,-260.5412917047371,17.334318482844452
7.141249900000001,9.01278768456158,-25.771858588049845,46.35225182043407,87.47675470938914,-344.6096599868214,-33.298604315052614
7.151249900000001,5.373909936291082,-27.477989174260472,50.58170530318523,59.550909916593035,-436.0270957467326,-94.6601860016707
7.1612499000000005,-2.787225560400232,-31.883961618700383,53.13265655950356,50.38776308782966,-497.31944587401796,-181.99590160899172
7.1712499,-11.29376165012929,-37.428932082883364,53.56800327598103,65.91475369243942,-501.6906184746597,-271.9895366782803
7.1812499,-18.15813521473721,-42.17065515792295,51.49328925890679,97.21539897924227,-498.926916942026,-343.81073674689094
7.191249900000001,-24.30850971674648,-44.74389475795787,46.12218196657357,122.62563487869815,-500.37046488800416,-397.13309431840855
7.2012499000000005,-28.92524281204791,-44.57722291575465,39.62395310068636,124.90142608769008,-500.006248141325,-431.65841572825497
7.2112499,-34.126106760910844,-42.62684647638008,33.39337593303065,100.29481190479993,-499.8270537668844,-453.37584411628217
7.2212499,-41.996726355221774,-39.2747978603833,24.121619531847386,52.77071309424947,-500.24755511503605,-464.20863823339545
7.231249900000001,-49.01016197530885,-32.361143418731686,9.995643976988006,-9.927755787930975,-500.05009001452663,-466.2039216322388
7.241249900000001,-49.89239838248827,-19.510291116872235,-1.2482678847900055,-95.23662393926891,-498.5378390668819,-462.39171215115994
7.2512499,-50.79672034436703,-10.283390824822527,-4.364276488923375,-151.3940332517673,-504.88297675428976,-432.29588263550954
7.2612499,-54.465344040425904,-7.9581709170550665,-11.575824004233041,-125.86939111000676,-476.7538046919413,-346.7415390357405
7.271249900000001,-47.444071765553026,-3.770908913612064,-22.032101326426673,-71.13056720040852,-378.731196380451,-220.17339984388727
7.281249900000001,-31.88493080223128,3.723564295578085,-23.563302804719445,-27.117964733856972,-273.7842369643787,-107.73938099957839
7.2912499,-22.664653392859613,12.556781939465212,-17.875296389855386,-11.105171900359961,-174.7353286589611,-39.31733167847134
7.3012499,-20.805843652249404,16.54699498234212,-11.101177911995325,-27.045931605487954,-96.3623697521948,9.511218549042084
7.311249900000001,-20.734882006132903,14.506577050244012,-6.848983245417998,-64.03143642388393,-45.11224746490041,57.03677806515393
7.321249900000001,-19.987297198334762,10.634608976201424,-4.646065331638113,-95.9684198326489,-15.488465369729752,86.58337081509363
7.3312499,-16.520688079403502,6.614558489865985,-1.4169411669361183,-116.2718529753479,-3.095300447121756,96.35842159966013
7.3412499,-10.826114184923743,1.6726941809466567,2.0226352363331666,-125.89445122423082,6.110716685551114,99.13854330830638
7.351249900000001,-4.916207096706945,-3.529057354132863,3.4145767634938786,-108.99141849023832,16.63105842934139,97.0610834341405
7.361249900000001,1.5724265978539738,-7.012333784944876,3.9968299263487017,-69.1868505299665,30.039602359915516,90.3251010412056
7.3712499,8.089912588721505,-8.954330366105587,4.401115065771404,-12.373325053271078,46.9638291703514,79.63075624849454
7.3812499,11.395777602071522,-9.060129528221927,3.520942517769854,33.780849680995644,60.1916518243664,68.30550995367311
7.391249900000001,11.592714468580786,-7.777918678685335,2.1780903979080817,55.52400957857562,66.13776587291605,57.6403683033831
7.401249900000001,10.839012249944282,-6.4931221364200935,1.3202097658706102,62.75884185129581,67.18003844418378,45.996611318008895
7.4112499,10.091685170709376,-5.523563651901553,1.0989412474250777,53.66271956348733,64.5738656893421,34.910395418323716
7.4212499,10.13750458596176,-5.050095009557349,1.8806662656646747,32.0690421492399,61.04668150302267,25.313753253267784
7.4312499,10.601338621585668,-5.354930055239019,3.015638365263025,8.622034456009343,56.906192578574924,16.419650518830245
7.441249900000001,11.135391566376033,-5.990594973209833,3.7861904456407993,-12.657788691794217,53.158615054883434,7.316744646719756
7.4512499,11.70898545214071,-6.770032536676077,4.386639531021403,-29.529927582497393,50.89976532943956,-1.8842802509165992
7.4612499,11.989670570841922,-7.862493243850261,4.7107739902056585,-39.41178112492323,48.294015409449806,-8.8030724289089
7.4712499,11.96525948198609,-8.74885896534486,4.481773184089585,-43.45201876425919,45.16470134923361,-12.83923813533868
7.481249900000001,11.746770182833083,-9.050191243560281,4.297134769435312,-44.090238999928104,41.66155533992508,-15.750370421182822
7.491249900000001,11.379188919801086,-9.092321274700318,4.555504428492601,-40.886586717674476,37.928551068208385,-18.820300699248467
7.5012499,10.721036771674772,-9.093160408022289,4.579416881139568,-33.30289749153358,34.303127934096295,-22.426420414267824
7.5112499,9.84887245939867,-8.860854877605094,4.1054105673324885,-23.54410360409207,29.823082919772876,-25.780197975587843
7.521249900000001,9.199874027748493,-8.349903614765912,3.6541185586187783,-14.282078739488904,24.974107335258033,-28.623095268125383
7.531249900000001,8.832798114430375,-7.630023940842613,3.4781900435474093,-7.491238400778093,20.51840019278463,-31.401103981173428
7.5412499,8.420518756925826,-6.6442862030330465,3.301867734709311,-4.672743200870258,16.431989852002655,-34.1982789974866
7.5512499,8.084617555219971,-5.931885339877708,3.2023144360840887,-2.3217230929312107,14.55410467453463,-35.91827531916375
7.561249900000001,7.716187363552885,-5.385051099562228,3.077922753630204,-1.5774856937667434,10.414704601560437,-35.91211203657578
7.571249900000001,7.35186353972828,-4.162342607692073,2.5076746247686903,-9.667547503312152,2.5038121106983415,-34.760985456704724
7.5812499,8.066822390147019,-3.604954074521506,2.27337894218079,-15.166364429908143,0.3860625080921207,-32.59802113385492
7.5912499,8.493788043543708,-3.243459591230695,2.279080575452404,-20.59470288634161,-1.324127864223735,-30.082082186127675
7.601249900000001,8.474465711953442,-2.59604813515829,2.088769571186556,-29.424588302794355,-4.709494838473056,-28.11363030641512
7.611249900000001,8.747121686156586,-2.246574682729,1.9311615625265994,-37.35611326377363,-6.613321072389803,-27.015489125546342
7.6212499,8.94638908363023,-2.0420028635988667,1.84798426767435,-44.259781189716136,-7.211018855164495,-26.589313280990197
7.6312499,8.96160229710425,-1.8146673055822125,1.6834789317778027,-51.595923354499874,-7.217021180482095,-26.693968181438
7.641249900000001,8.904705948210552,-1.6314138997233687,1.51289488820268,-58.94368756626865,-6.54665702173374,-27.22965448621879
7.651249900000001,8.845877872464454,-1.7535622615897508,1.4630181091512022,-63.536399728370704,-5.284082268650912,-27.52525915639582
7.6612499,8.851566878448846,-2.103166059345855,1.3443689328735007,-64.44057509216272,-3.9456691477829033,-26.84102210667768
7.6712499,8.832095443749784,-2.467925691905229,1.279130771328134,-62.35479420799278,-2.7759189927873984,-24.842047922851496
7.6812499,8.558575744819416,-2.8321662998979362,1.4365993723454256,-58.06809685893374,-2.200316520067974,-21.841996251649952
7.691249900000001,8.215293774052851,-3.0885625192430712,1.3826113696503242,-52.7900460244809,-1.7740810624276642,-18.337144720431457
7.7012499,8.10203090227305,-3.2728348870487336,1.1295427168292471,-45.77878911489422,-0.5615717002437933,-14.586188535739844
7.7112499,7.858286307634455,-3.310684623551796,1.0637581100711127,-39.65999467641171,-0.6610479173075088,-11.13997671751566
7.7212499,7.537342690277586,-3.434182383551262,1.0289623835511168,-35.20016343890571,-1.5919289318678802,-7.809651843995779
7.731249900000001,7.427609539098274,-3.7851386239796687,1.0271513058707251,-30.231082889186176,-1.6649065537031904,-3.9801784145775256
7.741249900000001,7.410442567150434,-4.038386847070904,1.091814841645963,-26.100809618104687,-1.4608712902118464,0.40804992964685827
7.7512499,7.424966488702367,-3.982031717140114,1.0909887431691965,-24.30446003102212,-1.5219254793625394,4.063964109136444
7.7612499,7.67068051963935,-4.072855519964208,1.1395232701844031,-21.99962643877705,-0.7068432834706407,6.994362086476155
7.771249900000001,7.878697527202021,-4.114913168357162,1.1738410868723026,-21.31209502573541,0.008458593148075925,9.479982478060563
7.781249900000001,7.971058459911843,-4.182388399933827,1.2103222168019696,-21.40892608902613,0.7893010302154946,11.440564106932174
7.7912499,7.895195611271867,-4.414384481638532,1.2738264725187165,-21.899056264625013,1.245955556448188,13.04939189452795
7.8012499,7.886044968716849,-4.652106887658873,1.2365421170969584,-22.49661262182851,2.126765164361026,14.107521913812022
7.811249900000001,8.163103108552608,-4.841463928969816,1.2200294431075658,-21.68497312380434,3.4178329621448684,13.910061507452031
7.821249900000001,8.403123579080518,-4.895546661368784,1.437552303559386,-20.425439431400665,4.413852821462377,12.462503363591676
7.8312499,8.49480731263471,-5.026365548815352,1.840318957712863,-17.989159209916462,5.440757303295218,10.061705679495999
7.8412499,8.549843147453423,-5.2514610501591825,2.101640230142424,-13.726654845793613,6.508138083778418,7.553565137690259
7.851249900000001,8.489367403487522,-5.440518387617497,2.0385318526616953,-8.069012158934173,6.531353686252866,5.5429160733859355
7.861249900000001,8.311167855380376,-5.550296451419946,1.8745585561603233,-1.3900174976199968,5.403229049526048,4.2882198923462225
7.8712499,8.193435705069744,-5.567420950330801,1.7697838816610563,5.780082598828206,3.9574927415260728,3.4600362882073705
7.8812499,8.054138526883179,-5.231162158036479,1.6433420825039484,9.868108040977654,1.5540487033850603,2.131588736917677
7.891249900000001,8.049511834397801,-4.891940523294962,1.628442762230433,11.600111679412423,-0.730472747308183,0.11587227037977813
7.901249900000001,8.216504202021056,-5.035211421992089,1.7956316916794852,13.900844682700747,-1.8339884559736768,-1.6528887885753478
7.9112499,8.32815116529087,-5.192210170806419,1.8430166300895914,14.415291634284253,-2.3037828047818696,-2.0917591186542874
7.9212499,8.307154386551806,-5.2055077407528225,1.7474184556960917,13.848849436699185,-3.2322151937463532,-1.4881916740981695
7.931249900000001,8.167021128485993,-5.287643783489272,1.7294085879052894,13.863063339927079,-4.850048467035004,-0.15416387784787072
7.941249900000001,8.085790507055018,-5.378092950824348,1.6389184253354745,13.698387268883355,-6.1959397227128985,1.5977607728672132
7.9512499,8.004944494116172,-5.330274665700136,1.3415407389867364,12.535249941262364,-8.62025724618228,3.074385520513069
7.9612499,8.019951942462376,-5.195713545102711,1.158461973204948,10.742710177940427,-11.625476385278336,3.805240108162667
7.9712499,8.272421884564848,-5.104406423483725,1.199953033966587,8.661751517267874,-13.563176796741494,3.6622712689874164
7.981249900000001,8.519700740314962,-4.948403404850017,1.344151135758208,5.681099908348075,-14.751085266192533,2.8331406243698454
7.991249900000001,8.76877615291326,-4.846425644637874,1.5580337108707645,2.608350964938083,-15.039519389915316,1.6160686110164522
8.0012499,8.931408511730167,-4.945788032171095,1.6456764273305686,0.17229561170287058,-14.608724617829933,0.4809486721391598
8.0112499,8.859540943096018,-5.083578203475239,1.5408978776363387,-1.6901050102367725,-14.39468728261409,-0.2144546729357827
8.021249899999999,8.79055719327677,-5.078867267405905,1.4182917692146373,-2.6993005637800076,-13.861536538094162,-0.7763780038732744
8.031249899999999,8.786513697524011,-5.043407038580717,1.3267401052890901,-2.480016042475882,-12.875143381553498,-1.9360372361491556
8.0412499,8.681545883796801,-4.920834842527844,1.32874832820243,-3.047870138110851,-12.719479788772386,-3.798666577928931
8.0512499,8.661890893232169,-4.869866183235106,1.409217647432613,-3.063579097284986,-12.112169330313643,-5.767701782085454
8.0612499,8.777623346221855,-5.088105743850512,1.4274997302283001,-0.31476706317386477,-10.28240232045573,-7.173766623413182
8.0712499,8.670368687634838,-5.0054186723181,1.3477522391218868,0.8532611195535643,-9.437669296245032,-8.106143728070602
8.0812499,8.52408888469354,-4.942464397984501,1.377992427043354,2.9466400571298155,-8.690547919761176,-8.967725172660082
8.0912499,8.411110684052828,-5.001608385983938,1.5150754732102782,6.3666124704226785,-7.449822493711522,-9.660834576197095
8.1012499,8.201899732722659,-4.921655392996063,1.4851929777786301,8.463515568741075,-6.449661742099203,-9.839045501871558
8.111249899999999,8.0741922694263,-4.8284001779679295,1.3642127972408322,9.774681374200243,-5.699381890334693,-9.777722560471027
8.1212499,8.1416133867962,-4.761749988350716,1.441387137201121,10.281906582380579,-4.676214661614663,-9.70573081558507
8.1312499,8.256987934903243,-4.694943940989732,1.5917619206118099,9.80448234315202,-3.1084021535436896,-9.568196246723193
8.1412499,8.308946944273211,-4.628098865603272,1.629803718552047,8.391120805665565,-1.5114852541389339,-9.247558555881142
8.1512499,8.312124184988459,-4.628233102275727,1.633275932075688,6.846078573074812,-0.3821406457588477,-8.714465153358844
8.1612499,8.238413453561382,-4.6726720176647305,1.6179963662697978,5.59114634796987,0.513232154847707,-8.027357396104692
8.1712499,8.143853459583745,-4.760108848099255,1.568261079224432,4.607663149523238,1.1128264087235262,-6.941688060562533
8.1812499,8.06014750100476,-4.876212192170409,1.506735900598656,4.046602636729509,1.321229996233173,-5.487530070535284
8.191249899999999,8.051712627119262,-4.947787948567506,1.5398383076483038,3.5644347395357805,1.3290861757393546,-3.8732280023206482
8.201249899999999,8.175578319511102,-4.934842874823675,1.5880662356400101,3.1157004638572827,1.5430373491940457,-2.4869584937923293
8.2112499,8.3475413837119,-4.876853265057872,1.6263467117872814,2.806999076470883,2.017267550884869,-0.8518450183647869
8.2212499,8.449100731037134,-4.840178124905085,1.7303224017428207,1.9602951546364726,2.380779729371366,0.7228669844445313
8.2312499,8.471949900764713,-4.847414789022098,1.6856688983623582,1.298329087831337,2.7936456818925173,1.798160079421135
8.2412499,8.546779576574682,-4.942526835155665,1.587417854661901,1.8435555642213108,3.420920973501033,2.8392501101410423
8.2512499,8.563618951218443,-5.0158838110592745,1.6218928852773977,2.4525458798200352,3.572702833892233,3.6749267402755788
8.2612499,8.483379427955873,-4.994137561742536,1.6547727656600992,2.953673050952427,3.0600689008722637,4.051748016883959
8.271249899999999,8.557025284010773,-5.023550547574967,1.6506350004072938,4.356080242345072,2.9327565769109727,4.219881297742825
8.281249899999999,8.687712818728277,-4.989507587178229,1.6890570702166365,5.2884389486822245,3.0519536397645655,3.835401728795152
8.2912499,8.687901497658476,-4.920119035176257,1.7399005024210301,5.555718553262262,3.032764324577737,3.3853335434534815
8.3012499,8.622601568235096,-4.850106658838439,1.7534060962651157,5.168188196340232,3.4343105633538933,3.0901855395198154
8.3112499,8.531232708428986,-4.758658756045644,1.7751955271319668,3.8086447363117832,3.6334240759757708,2.6413364172133607
8.3212499,8.415237117656044,-4.696622198760124,1.755705217925639,1.6546990132787003,3.6768846403727413,2.2505020781344394
8.3312499,8.39443365936874,-4.633358729287149,1.6956835018729104,-0.9392976978488772,4.119018225003878,1.7714659118193772
8.3412499,8.440551193221854,-4.598266497491183,1.6839112119494424,-3.4951594712363687,4.256547049066061,1.0815445839534699
8.3512499,8.393750587144378,-4.686857782342656,1.7571966391709581,-5.333638295787644,4.139744441070576,0.7587995129073365
8.361249899999999,8.331309986473748,-4.788130158370804,1.8436323547894375,-6.551618254842575,4.66081851731892,0.7900258778729177
8.3712499,8.308057145015486,-4.843443730286152,1.8540040240756923,-7.1497277655717015,5.544462946976127,0.9157879093267104
8.3812499,8.244251926784687,-4.916156951266151,1.788166309112548,-6.902979164486128,6.3015513310606375,1.384935980707691
8.3912499,8.063293534144536,-4.924277853042311,1.7214367657673264,-7.054520103423651,6.660993658003251,2.202455218746245
8.4012499,7.837645099515214,-4.8227727205325275,1.6882987128618312,-8.571042343238936,6.6827538898595265,2.8424185105318776
8.4112499,7.841732996084754,-4.92433697095369,1.6625635929962297,-8.699924395939618,7.737998240499377,3.6672622623023567
8.4212499,7.72324763759391,-4.999262745611933,1.5648368125300736,-9.813356216344483,8.4069551317849,5.182184012383774
8.4312499,7.517183145151389,-5.027852610520394,1.515248656936465,-11.798278894180914,8.93437866415742,6.823225508293834
8.441249899999999,7.425303420670119,-5.138634038819764,1.4857554084059201,-13.164397698026141,10.198481703849914,8.413720366987144
8.451249899999999,7.232865610924248,-5.242832722443843,1.3818732784013346,-14.817679403893546,11.591280411560636,10.25958256665829
8.4612499,7.069440481052474,-5.3638833881811046,1.2757799746880718,-16.225343523267277,13.632645153837029,12.253079392217106
8.4712499,6.873623491403051,-5.347390342730165,1.1744149533024604,-18.162710151873856,15.731090730133783,14.200251162503488
8.4812499,6.6483387743165165,-5.390385178489214,1.0421526430465637,-20.203293577605923,18.16854125603965,16.222207047984465
8.4912499,6.394463557495774,-5.468480002558925,0.8712110515434689,-22.738047473103197,21.238283802537367,18.898517680392835
8.5012499,6.100446453241309,-5.452387691367072,0.6878524165020534,-26.028950488995925,24.559909170738138,22.07878798487839
8.5112499,5.797008736748304,-5.369082423261554,0.5381671432820442,-29.79541319696964,28.37445570809888,25.534718531805034
8.521249899999999,5.495749811017922,-5.286133763492597,0.4430973389879595,-34.07000634648238,33.03062193040315,29.297350964167755
8.531249899999999,5.204278821597064,-5.212673542734958,0.37438165993047473,-38.53722077476687,38.727924804249845,33.386586898598765
8.5412499,4.853435023110318,-5.178844044598339,0.3641629401667621,-42.70352534015255,44.755285196782886,38.13681745583103
8.5512499,4.521858137887446,-5.243962040127112,0.4390385824864863,-45.964948855914244,51.405039266897965,43.637917367853184
8.5612499,4.24019314163559,-5.2908809157723615,0.46096593866147706,-48.10223005283243,58.8168087883399,50.003145875697875
8.5712499,3.932899997855808,-5.256921864301494,0.45598324958818515,-49.006635155260184,66.17440440265447,57.169574182904064
8.5812499,3.645248934315296,-5.195014877898018,0.5185786395297414,-48.76716325746567,73.43726491852377,64.9893683288623
8.5912499,3.402172566127993,-5.152787887603789,0.6637965740919017,-47.41616260315218,80.63788840472853,73.22433743887
8.6012499,3.2474943622207495,-5.137596610335329,0.7993960277145443,-45.12122722289539,88.50624699845858,81.67792964236112
8.611249899999999,3.1682098289138825,-5.105740684110183,0.8740699189429632,-42.141837575858005,96.80101543488911,90.05047611472652
8.6212499,3.0964075375399687,-5.027928416081845,0.932405534135308,-39.18222528459494,105.08766372389414,97.92341411997351
8.6312499,3.046549896183682,-4.8782054810453275,1.0124649753369526,-36.464393660501294,115.05259454562194,106.23662565838097
8.6412499,3.0134246978814057,-4.744550659869166,1.1409533576469029,-34.10438731304058,126.06836739064094,114.35276588432816
8.6512499,2.963312749309727,-4.669135575635438,1.215190876901834,-32.44199092339852,136.25837682314307,121.19963278779305
8.6612499,2.900235694533256,-4.572183232554139,1.2569638317731389,-30.874087515824563,146.8236972605673,128.52804538150176
8.6712499,2.860859472129999,-4.403020705345575,1.255359561285155,-29.411649979673957,157.74443004874698,136.41735010876153
8.6812499,2.765160427506145,-4.2225245802686135,1.2516998114142377,-27.920911646010797,168.59479953163472,144.54999870075076
8.691249899999999,2.5341380460391707,-4.160889086451281,1.471127551341099,-26.16491656065672,179.09447341965964,152.64865800561418
8.7012499,2.2537722614614526,-4.223672756299376,1.7011627897137087,-23.892358416521144,189.4309987939246,160.5516735165848
8.7112499,1.9573536748771254,-4.288240024962383,1.7092947720560265,-20.68015377994257,198.67154536351578,168.28305355507487
8.7212499,1.7281613449526685,-4.39360998419433,1.7990379422432725,-16.179095166736584,206.95009826887247,175.84890385885873
8.7312499,1.5189967521352215,-4.507343037323424,2.050153614061832,-11.40665861512069,215.09363796674623,183.37896616736896
8.7412499,1.3348619295876945,-4.4033463199330445,2.1313426829285045,-7.409189621433528,223.23156125902068,190.80541816903076
8.7512499,1.1661271591575662,-4.0560773777228585,2.029247723397001,-4.485577047659533,230.57197853366117,197.91292448293953
8.7612499,0.8665426741885559,-3.9490259223959487,2.405771513756966,-4.018661025946336,236.26460768235208,204.71201146934231
8.771249899999999,0.4848315688318897,-4.282185639256586,3.154456011753777,-4.897658534218432,242.221352376426,211.56982708192845
8.781249899999999,0.05200721922953337,-4.303727426684893,3.3157600506247347,-6.95403579281888,248.22506439378782,217.75694324002626
8.7912499,-0.5296271045700603,-4.524223495303449,3.701371170636213,-10.278338867019402,250.8875438648007,222.90227711261423
8.8012499,-1.095101115925658,-5.500618484551228,4.859489751579513,-11.844185182842999,251.63948808926187,227.93969622659597
8.8112499,-1.6066994689819494,-6.259077209027735,5.639118726318969,-11.778215806408586,252.0940813073778,232.8809006431452
8.8212499,-2.201494204594038,-6.958693232149599,6.022773254975138,-9.529137671276468,249.98230343190295,236.97598394020756
8.8312499,-2.5694268887633034,-7.899921574163055,6.675160527235277,-4.393081489366809,245.38463138853754,240.27314582257276
8.8412499,-2.673666194057515,-8.62026942140645,7.663685730823744,1.6611459151832366,238.01776145355558,242.96005874407564
8.8512499,-2.7517750763373785,-9.309669717733913,8.688219625746378,6.837387787132612,229.42730690019675,244.7982533659513
8.861249899999999,-2.987444398515907,-10.471909714200228,9.87843467881263,11.569752852594462,220.26547033450495,246.25327118050214
8.8712499,-3.270580167918296,-12.11510657472188,11.415825210293741,19.454355897716358,208.5247923129739,247.8447784355139
8.8812499,-3.2958652234313703,-13.3413679507248,12.638989866200033,29.869294905613042,194.26853804531927,248.0075089863318
8.8912499,-3.0834903155027495,-14.35007962563508,14.359041247046582,42.3597973252493,176.40252590709142,245.14291108164323
8.9012499,-2.5965870571479672,-15.535402025052912,16.462986914989653,56.84368660449036,155.24417546336855,238.66787007599606
8.9112499,-1.7631393707417484,-16.61021951693849,18.345463414033443,69.89255518657667,129.68581968417456,228.4797031784155
8.9212499,-0.46853273531146994,-17.65988431833575,20.94908055022678,79.15980035357246,98.7064137400653,214.64607347006267
8.9312499,1.2253916317493945,-18.240801613782036,23.60262799319378,81.64074325344153,63.53658955018151,195.98559104851435
8.941249899999999,2.9980382741513716,-18.37683822978834,25.694955312047064,78.82324282228134,22.570468358544474,170.22670655067876
8.9512499,4.964341624119879,-19.02788612045048,28.530252114494637,79.45621108834774,-26.152006603772932,136.2011663147573
8.9612499,7.193141101690591,-19.971464427795407,31.507019338843012,86.39021782916933,-80.92222168480443,95.81461785111269
8.9712499,8.69480133602885,-20.82195215172995,34.139730710292625,95.48700571064686,-143.85797941356955,52.76828859106014
8.9812499,8.68701291299118,-21.648977782414875,36.84083285642027,102.19965967448896,-214.51486325312538,10.195061917553653
8.9912499,6.9189916214909175,-22.011486996045917,40.013676858488296,97.01549734077824,-288.5124541169279,-31.098453892585333
9.0012499,3.5563808736012015,-22.814174393112715,44.16753609592812,78.10900623633856,-365.6182360575959,-73.46371993571981
9.0112499,-1.5849565665531573,-25.103960076247038,48.01512942167174,58.469628480332375,-448.2181664874422,-121.7853858200382
9.0212499,-8.555440902802157,-28.36387295441624,51.135992782116816,51.947825104632855,-498.94923327101174,-179.38972081548863
9.0312499,-16.440380284392404,-32.930872137778266,52.08452424382187,68.53235800012432,-501.0890416771741,-243.5622372552506
9.0412499,-23.349546345087745,-37.716883863548844,49.61408850740851,98.64431409298646,-499.159339004368,-300.89608885183407
9.0512499,-28.882097741606305,-40.44910984097089,44.69454027064116,130.16314112000597,-500.335352692615,-347.812929903694
9.0612499,-34.23589566405173,-39.06447216143023,36.34965409709186,138.7783483010911,-499.9866085180396,-383.4097795565246
9.0712499,-38.983302544779654,-34.7657711740558,26.680269650265846,96.85647867400921,-499.8097986669876,-397.48685537953185
9.0812499,-44.85483683949714,-31.345290181750393,16.580272323958006,40.28131178447428,-500.3871825046856,-398.1119138007329
9.0912499,-49.09736218757029,-23.589050845303152,3.449837970985929,-26.912691386525623,-499.7401454060359,-393.83614755014435
9.1012499,-44.36476358767191,-10.248975750808356,-8.312076797494717,-125.1512235236707,-498.7797701195469,-390.9417916168962
9.1112499,-37.77184471881115,-2.703210338288645,-12.70137069993345,-192.01176638359618,-505.67426484282913,-379.0780415354194
9.1212499,-36.06729200529005,-2.4973172163711155,-17.424751869394225,-187.26704693113035,-463.6209582784373,-324.33161227123804
9.1312499,-31.558506371938414,-0.9332384512427071,-23.28852150947259,-153.48097221550748,-354.53692163374495,-225.73359766372297
9.1412499,-21.757985074232803,4.935796239974501,-22.890606310269078,-131.57056211738723,-253.1475009889944,-123.01685047019592
9.1512499,-13.309620743577623,13.506629827177568,-18.755676857978084,-142.86419102827443,-145.5001336835772,-52.09472162373894
9.1612499,-11.857523519736423,18.324691735322368,-13.666651500785733,-174.83586262581898,-43.64957280520847,-14.073154580856615
9.1712499,-15.01142321128019,14.419562386662651,-7.6609846493016,-186.15090550477663,19.034919022399144,16.16110275034975
9.1812499,-17.375534211822327,6.018363587911253,-2.9703050907547635,-168.4180854802368,48.502759264586906,51.97502289173281
9.1912499,-16.644644995001226,-0.4542184082314671,1.6621955774908832,-134.9480457919281,61.46405567785777,81.29150097202071
9.2012499,-14.25028686559075,-4.451011553569057,6.1259434539557125,-87.81476387836405,66.65850364531447,95.4350297906028
9.2112499,-11.087516470980251,-6.363704553490007,8.460479356412971,-42.957782716208925,67.94084173560475,99.94491452103986
9.2212499,-6.885456423615287,-6.205297551695921,8.920862243083892,-14.486224683752287,66.5122349551744,98.72990262886118
9.2312499,-1.6570811863631187,-5.151411856137855,8.082762171984788,1.818696442831016,62.72113329214103,91.21573348424216
9.2412499,3.9438961056743618,-4.223989084439498,6.557527061724538,9.632405035239817,59.67074036200489,79.34419302777592
9.2512499,8.448452633833778,-3.9933520749250953,5.393164823136374,10.374828965954435,58.077041477524865,66.79973913045083
9.2612499,11.082370796561449,-4.692314880898533,4.715718076888861,11.443902290236272,56.42549249675472,51.69526766129614
9.2712499,12.087881679242605,-6.053521813375805,4.133991611753779,16.400962687445848,54.39522150557893,34.52596985115069
9.2812499,12.114849395059842,-6.899447660709851,4.042009414911471,19.41048365253074,53.95658917849847,21.593235469721396
9.2912499,11.788432597821453,-7.4186915556913355,4.287943734234342,18.678857488501755,55.88594294482915,11.358711013223571
9.3012499,11.369654852441847,-8.194195347175212,4.54855484375996,17.959073256127077,59.25847544254734,2.706013762273273
9.3112499,11.187223041946972,-8.627414337223136,4.699303148612306,18.121461035309444,63.1632563517322,-4.111500172101673
9.3212499,11.218774747974168,-8.578297372361474,4.667337563163998,17.574302211522866,66.4238643277394,-9.515429833521264
9.3312499,11.216173730864964,-8.558980620263235,4.766207494171957,17.424275160815068,67.76229052451698,-14.036887610390162
9.3412499,11.126319575179329,-8.696482679427737,5.055036778807263,21.65387155401912,65.93857958320748,-17.75714992410773
9.3512499,10.911847175360638,-8.720443390407365,5.380885515650901,30.63724542162061,60.10422219946775,-20.445922043068816
9.3612499,10.657006025234109,-8.541674663157915,5.4408500597170315,42.42399387150654,51.08093275455476,-21.9061189492106
9.3712499,10.319275682483967,-8.07519742724378,5.268446225103768,53.12721278743033,39.26702786071809,-22.638986880483646
9.3812499,9.895626486778378,-7.2111741802317,5.131563634580509,57.76387345266096,26.461445544019366,-23.354644398564915
9.3912499,9.432832684345582,-6.060736066546814,4.9175507844502,54.33484093374623,14.572465554391258,-24.263576750955146
9.4012499,8.84679480203788,-4.868705376003234,4.675073442401683,43.555850070880005,3.7627358766817576,-25.891417615267475
9.4112499,8.273900955475868,-3.894866739545378,4.508173989667032,27.50064141424841,-5.7099904504873,-28.18678593536278
9.4212499,8.05016132856118,-3.2021580385013793,4.266416989664943,8.28003103743206,-13.198370713376617,-30.5405842632104
9.4312499,8.096274030410104,-2.770341619037899,4.083758746215413,-12.374974234723444,-19.168953911753597,-32.83196207855178
9.4412499,8.196124170183783,-2.6224641672487885,3.9615249607775356,-31.71358929778081,-24.467442045228143,-34.94642577791356
9.4512499,8.45092908272078,-2.6499007683741462,3.7291763464982854,-47.86730740547229,-28.990324812756167,-36.56518921476338
9.4612499,8.805079837342241,-2.7802629928619034,3.464899710350171,-60.15435870319564,-32.511329930951256,-37.44545551503269
9.4712499,8.965224010870113,-2.873160001158231,3.201495771669102,-68.86209413087295,-35.16323711683211,-37.36160796346459
9.4812499,8.846557433486415,-2.937001393147903,3.04965753517227,-73.85357587513266,-36.99484598306289,-36.16231873948779
9.4912499,8.749184138664098,-3.0256262649806933,2.8603792921150037,-74.25049806873535,-37.037540291939465,-34.58033488517317
9.5012499,8.665698477800545,-2.968492576168028,2.6562960752849323,-71.09120336935277,-35.94073361805665,-32.80385499265329
9.5112499,8.581455333492906,-3.0408110881348116,2.6755261587125267,-63.47389844646506,-34.15994319437654,-30.577161161997367
9.5212499,8.430799232749399,-3.2572365981408344,2.7453002767177503,-52.54236414182912,-31.969728880199575,-27.34724589519817
9.5312499,8.02092186360236,-3.207492873876523,2.8142157269386594,-41.569482831356524,-30.883507117257157,-22.85063377770687
9.5412499,8.035326902757564,-3.188700589165419,2.7426145900796652,-28.870706354076983,-29.48926881691491,-17.819939020271683
9.5512499,8.321328672334296,-3.333956689172589,2.429628768033631,-14.30102549047406,-27.462474477193833,-11.663697558551055
9.5612499,8.071128623478652,-3.2104707044482548,2.2878300873252693,-2.4392031719950817,-27.59135415391595,-4.583304365476897
9.5712499,7.684515536223075,-3.092872206963023,2.3722408047898944,5.942627245194786,-29.379346492804085,2.174237412780667
9.5812499,7.530825961624244,-2.9766319301531605,2.1913620479397293,11.102435083019554,-30.621284885776525,8.345894248588209
