# Time (seconds),Accel_X,Accel_Y,Accel_Z,Gyro_X,Gyro_Y,Gyro_Z
0.0012499,7.623138427734375,-2.341529369354248,5.0254292488098145,12.6800537109375,-0.3509521484375,3.692626953125
0.0037499,7.627926826477051,-2.3750481605529785,5.058948040008545,14.2974853515625,-0.0457763671875,3.9215087890625
0.0062499,7.625532627105713,-2.410961151123047,5.099649429321289,15.80810546875,-0.1068115234375,3.997802734375
0.0087499,7.618350028991699,-2.4468741416931152,5.161899089813232,17.3492431640625,-0.244140625,4.69970703125
0.0112499,7.613561630249023,-2.4827871322631836,5.252878665924072,19.3939208984375,-0.1983642578125,5.2337646484375
0.0137499,7.60637903213501,-2.516305923461914,5.363011837005615,21.697998046875,-0.152587890625,5.584716796875
0.016249899999999998,7.6111674308776855,-2.5474305152893066,5.480327606201172,23.98681640625,-0.152587890625,6.0577392578125
0.0187499,7.615955829620361,-2.5689783096313477,5.585672378540039,26.1993408203125,0.18310546875,6.5155029296875
0.021249900000000002,7.627926826477051,-2.580949544906616,5.683835029602051,28.350830078125,0.48828125,6.8511962890625
0.023749899999999997,7.649474620819092,-2.5761611461639404,5.760449409484863,30.426025390625,0.5035400390625,7.2174072265625
0.0262499,7.668628215789795,-2.557007312774658,5.815515995025635,32.1044921875,0.6103515625,7.537841796875
0.028749900000000002,7.690176010131836,-2.518700122833252,5.858611583709717,33.9202880859375,0.9918212890625,7.904052734375
0.031249899999999997,7.702147006988525,-2.470816135406494,5.894524574279785,35.2630615234375,1.2664794921875,8.270263671875
0.0337499,7.702147006988525,-2.403778553009033,5.925649166107178,36.0107421875,1.77001953125,8.3160400390625
0.0362499,7.68538761138916,-2.3295583724975586,5.954379558563232,36.8194580078125,1.953125,8.4381103515625
0.0387499,7.659051418304443,-2.2433669567108154,5.971138954162598,37.322998046875,2.0904541015625,8.30078125
0.0412499,7.630321025848389,-2.1499931812286377,5.975927352905273,38.02490234375,2.1514892578125,8.209228515625
0.0437499,7.60637903213501,-2.0661959648132324,5.9519853591918945,38.2537841796875,1.800537109375,8.2244873046875
0.0462499,7.601590633392334,-1.987187385559082,5.91128396987915,37.9791259765625,1.6021728515625,7.9803466796875
0.0487499,7.601590633392334,-1.9273324012756348,5.858611583709717,37.3992919921875,1.373291015625,7.843017578125
0.0512499,7.625532627105713,-1.8842366933822632,5.801150798797607,36.56005859375,1.2359619140625,7.6446533203125
0.053749899999999996,7.649474620819092,-1.8507179021835327,5.748478412628174,35.5682373046875,1.2054443359375,7.26318359375
0.0562499,7.680599212646484,-1.8291701078414917,5.7125654220581055,34.6221923828125,1.007080078125,7.0037841796875
0.0587499,7.706935405731201,-1.8195933103561401,5.683835029602051,33.3099365234375,0.6256103515625,6.591796875
0.061249899999999996,7.728483200073242,-1.8148049116134644,5.669469833374023,32.1044921875,0.30517578125,6.3323974609375
0.0637499,7.7428483963012695,-1.8100165128707886,5.664681434631348,30.82275390625,0.091552734375,5.9661865234375
0.0662499,7.754819393157959,-1.8052281141281128,5.674258232116699,29.11376953125,-0.3204345703125,5.43212890625
0.0687499,7.762001991271973,-1.7980455160140991,5.686229228973389,27.4505615234375,-0.67138671875,5.1727294921875
0.0712499,7.769184589385986,-1.7932571172714233,5.724536418914795,25.93994140625,-0.9918212890625,4.9591064453125
0.0737499,7.771578788757324,-1.8052281141281128,5.7556610107421875,24.7039794921875,-1.46484375,4.486083984375
0.0762499,7.773972988128662,-1.8267759084701538,5.7987565994262695,23.3612060546875,-1.9989013671875,4.0130615234375
0.0787499,7.781155586242676,-1.8555063009262085,5.841852188110352,22.39990234375,-2.3956298828125,3.6163330078125
0.0812499,7.797914981842041,-1.8986018896102905,5.882553577423096,21.5606689453125,-2.7923583984375,3.23486328125
0.0837499,7.824251174926758,-1.9321208000183105,5.9088897705078125,20.9808349609375,-3.0364990234375,2.960205078125
0.0862499,7.869740962982178,-1.9728221893310547,5.928043365478516,20.7061767578125,-3.6468505859375,2.7313232421875
0.0887499,7.922413349151611,-2.011129379272461,5.928043365478516,20.6146240234375,-3.9215087890625,2.5787353515625
0.0912499,7.9846625328063965,-2.049436569213867,5.916072368621826,20.6451416015625,-4.1046142578125,2.197265625
0.0937499,8.042123794555664,-2.0925323963165283,5.894524574279785,20.7672119140625,-4.2877197265625,1.6937255859375
0.0962499,8.094796180725098,-2.140416383743286,5.8657941818237305,21.1639404296875,-4.8980712890625,1.495361328125
0.0987499,8.13789176940918,-2.188300371170044,5.837063789367676,21.4691162109375,-5.2490234375,1.28173828125
0.1012499,8.176198959350586,-2.2409727573394775,5.8203043937683105,21.8658447265625,-5.43212890625,0.946044921875
0.1037499,8.209717750549316,-2.2912509441375732,5.801150798797607,22.2320556640625,-5.7525634765625,0.7781982421875
0.1062499,8.233659744262695,-2.33913516998291,5.791574001312256,22.430419921875,-6.134033203125,0.640869140625
0.1087499,8.257601737976074,-2.3774423599243164,5.770026206970215,22.76611328125,-6.1492919921875,0.4425048828125
0.1112499,8.276755332946777,-2.410961151123047,5.736507415771484,22.857666015625,-6.3629150390625,0.4425048828125
0.1137499,8.29830265045166,-2.427720546722412,5.683835029602051,22.705078125,-6.4697265625,0.274658203125
0.1162499,8.315062522888184,-2.434903144836426,5.621585369110107,22.308349609375,-6.40869140625,-0.0762939453125
0.1187499,8.334216117858887,-2.425326347351074,5.544970989227295,21.97265625,-6.683349609375,-0.0152587890625
0.1212499,8.348581314086914,-2.4013843536376953,5.473145008087158,21.514892578125,-6.6070556640625,-0.06103515625
0.1237499,8.372523307800293,-2.3558945655822754,5.396530628204346,20.7977294921875,-6.683349609375,-0.3662109375
0.1262499,8.389283180236816,-2.296039342880249,5.327098846435547,19.8974609375,-6.6070556640625,-0.2899169921875
0.1287499,8.413225173950195,-2.2170307636260986,5.257667064666748,18.707275390625,-6.439208984375,-0.4119873046875
0.1312499,8.422801971435547,-2.123656988143921,5.200206279754639,17.2576904296875,-6.4697265625,-0.8544921875
0.1337499,8.432378768920898,-2.0254945755004883,5.147533416748047,16.082763671875,-6.5460205078125,-0.7171630859375
0.1362499,8.427590370178223,-1.9249382019042969,5.114014625549316,14.3890380859375,-6.7138671875,-0.9918212890625
0.1387499,8.42040729522705,-1.8363527059555054,5.094861030578613,12.603759765625,-7.049560546875,-0.91552734375
0.1412499,8.415618896484375,-1.7764976024627686,5.080495834350586,11.5203857421875,-7.0953369140625,-0.9613037109375
0.1437499,8.40843677520752,-1.7334020137786865,5.07570743560791,10.31494140625,-7.293701171875,-0.9918212890625
0.1462499,8.401253700256348,-1.7142484188079834,5.066130638122559,9.063720703125,-7.4005126953125,-0.8697509765625
0.1487499,8.396465301513672,-1.7166426181793213,5.061342239379883,8.087158203125,-7.4615478515625,-0.6256103515625
0.1512499,8.382100105285645,-1.7334020137786865,5.056553840637207,7.4005126953125,-7.8125,-0.42724609375
0.1537499,8.367734909057617,-1.7597382068634033,5.054159641265869,6.65283203125,-7.9498291015625,-0.1068115234375
0.1562499,8.346187591552734,-1.7836803197860718,5.054159641265869,6.256103515625,-7.965087890625,0.213623046875
0.1587499,8.329427719116211,-1.7932571172714233,5.061342239379883,5.8135986328125,-8.3770751953125,0.7476806640625
0.1612499,8.312667846679688,-1.7908629179000854,5.07570743560791,5.5084228515625,-8.5906982421875,1.068115234375
0.1637499,8.303091049194336,-1.7836803197860718,5.1116204261779785,5.0048828125,-8.575439453125,1.556396484375
0.1662499,8.291120529174805,-1.7836803197860718,5.154716491699219,5.18798828125,-8.7890625,1.953125
0.1687499,8.274360656738281,-1.7908629179000854,5.214571475982666,5.340576171875,-9.002685546875,2.3040771484375
0.1712499,8.257601737976074,-1.800439715385437,5.274426460266113,5.8135986328125,-9.1094970703125,2.716064453125
0.1737499,8.243236541748047,-1.8124107122421265,5.331887245178223,6.5155029296875,-9.3536376953125,3.0517578125
0.17624990000000001,8.236053466796875,-1.824381709098816,5.382165431976318,7.110595703125,-9.33837890625,3.509521484375
0.1787499,8.24084186553955,-1.8267759084701538,5.418078422546387,7.8277587890625,-9.46044921875,3.8909912109375
0.1812499,8.248024940490723,-1.8387469053268433,5.451597213745117,8.697509765625,-9.6893310546875,4.2877197265625
0.1837499,8.26478385925293,-1.8411411046981812,5.477933406829834,9.7198486328125,-9.6282958984375,4.8065185546875
0.1862499,8.288725852966309,-1.843535304069519,5.509057998657227,11.016845703125,-9.8419189453125,5.37109375
0.1887499,8.305485725402832,-1.843535304069519,5.5329999923706055,12.26806640625,-10.07080078125,5.5084228515625
0.1912499,8.322244644165039,-1.8387469053268433,5.568912982940674,13.3819580078125,-10.1165771484375,5.7525634765625
0.1937499,8.327033042907715,-1.824381709098816,5.590460777282715,14.434814453125,-10.19287109375,6.0272216796875
0.1962499,8.324639320373535,-1.8052281141281128,5.609614372253418,15.07568359375,-9.918212890625,6.072998046875
0.1987499,8.31985092163086,-1.778891921043396,5.621585369110107,15.7928466796875,-10.101318359375,6.3323974609375
0.2012499,8.315062522888184,-1.742978811264038,5.623979568481445,16.204833984375,-10.19287109375,6.6680908203125
0.2037499,8.310274124145508,-1.7142484188079834,5.616796970367432,16.693115234375,-10.2081298828125,6.6375732421875
0.2062499,8.303091049194336,-1.6831238269805908,5.604825973510742,17.181396484375,-10.1776123046875,6.805419921875
0.20874990000000002,8.293514251708984,-1.6543933153152466,5.588066577911377,17.364501953125,-10.25390625,6.8511962890625
0.2112499,8.269572257995605,-1.6304513216018677,5.564124584197998,17.303466796875,-10.19287109375,6.8511962890625
0.2137499,8.250418663024902,-1.6065093278884888,5.537788391113281,17.2271728515625,-10.101318359375,6.927490234375
0.2162499,8.214506149291992,-1.5897499322891235,5.521028995513916,17.181396484375,-9.9639892578125,7.0953369140625
0.2187499,8.178592681884766,-1.5825673341751099,5.501875400543213,16.8304443359375,-9.979248046875,7.0037841796875
0.2212499,8.135497093200684,-1.580173134803772,5.497087001800537,16.387939453125,-10.101318359375,6.8206787109375
0.2237499,8.085219383239746,-1.577778935432434,5.497087001800537,16.1285400390625,-9.9334716796875,6.7596435546875
0.2262499,8.034940719604492,-1.5753847360610962,5.504269599914551,15.8233642578125,-10.040283203125,6.89697265625
0.2287499,7.99184513092041,-1.5610195398330688,5.5114521980285645,15.1824951171875,-10.0250244140625,6.9122314453125
0.2312499,7.967903137207031,-1.558625340461731,5.52821159362793,14.83154296875,-10.0860595703125,6.988525390625
0.2337499,7.95832633972168,-1.5682021379470825,5.530605792999268,14.7705078125,-10.07080078125,6.805419921875
0.2362499,7.967903137207031,-1.5897499322891235,5.537788391113281,14.6484375,-9.8114013671875,6.40869140625
0.23874990000000001,7.979874134063721,-1.6304513216018677,5.537788391113281,14.404296875,-9.7198486328125,6.0272216796875
0.2412499,7.987056732177734,-1.723825216293335,5.525817394256592,14.34326171875,-9.796142578125,6.134033203125
0.2437499,7.987056732177734,-1.723825216293335,5.525817394256592,14.34326171875,-9.796142578125,6.134033203125
0.2462499,7.951143741607666,-1.8387469053268433,5.509057998657227,13.73291015625,-9.613037109375,5.615234375
0.2487499,7.951143741607666,-1.8387469053268433,5.509057998657227,13.73291015625,-9.613037109375,5.615234375
0.2512499,7.888894557952881,-1.9584569931030273,5.499481201171875,12.8021240234375,-9.3994140625,5.5999755859375
0.25374990000000003,7.888894557952881,-1.9584569931030273,5.499481201171875,12.8021240234375,-9.3994140625,5.5999755859375
0.25624990000000003,7.838616371154785,-2.0446481704711914,5.501875400543213,12.054443359375,-9.307861328125,5.8441162109375
0.25874990000000003,7.838616371154785,-2.0446481704711914,5.501875400543213,12.054443359375,-9.307861328125,5.8441162109375
0.26124990000000003,7.82185697555542,-2.0398597717285156,5.497087001800537,11.8408203125,-9.063720703125,5.462646484375
0.26374990000000004,7.82185697555542,-2.0398597717285156,5.497087001800537,11.8408203125,-9.063720703125,5.462646484375
0.26624990000000004,7.826645374298096,-1.944091796875,5.499481201171875,11.3525390625,-8.758544921875,5.3253173828125
0.26874990000000004,7.826645374298096,-1.944091796875,5.499481201171875,11.3525390625,-8.758544921875,5.3253173828125
0.27124990000000004,7.8314337730407715,-1.8195933103561401,5.5114521980285645,11.505126953125,-8.8958740234375,5.4168701171875
0.27374990000000005,7.8314337730407715,-1.8195933103561401,5.5114521980285645,11.505126953125,-8.8958740234375,5.4168701171875
0.27624990000000005,7.843404769897461,-1.721431016921997,5.52821159362793,11.65771484375,-9.27734375,5.2337646484375
0.27874990000000005,7.843404769897461,-1.721431016921997,5.52821159362793,11.65771484375,-9.27734375,5.2337646484375
0.28124990000000005,7.857769966125488,-1.678335428237915,5.521028995513916,11.199951171875,-9.246826171875,5.4931640625
0.28374990000000005,7.857769966125488,-1.678335428237915,5.521028995513916,11.199951171875,-9.246826171875,5.4931640625
0.28624990000000006,7.85537576675415,-1.6711528301239014,5.499481201171875,10.7421875,-9.918212890625,5.767822265625
0.28874990000000006,7.85537576675415,-1.6711528301239014,5.499481201171875,10.7421875,-9.918212890625,5.767822265625
0.2912499,7.850587368011475,-1.680729627609253,5.489904403686523,9.7198486328125,-9.9945068359375,6.072998046875
0.2937499,7.850587368011475,-1.680729627609253,5.489904403686523,9.7198486328125,-9.9945068359375,6.072998046875
0.2962499,7.8529815673828125,-1.7118542194366455,5.473145008087158,8.5296630859375,-10.25390625,6.0882568359375
0.2987499,7.8529815673828125,-1.7118542194366455,5.473145008087158,8.5296630859375,-10.25390625,6.0882568359375
0.3012499,7.841010570526123,-1.764526605606079,5.449203014373779,7.537841796875,-10.68115234375,6.011962890625
0.3037499,7.841010570526123,-1.764526605606079,5.449203014373779,7.537841796875,-10.68115234375,6.011962890625
0.3062499,7.807491779327393,-1.8339585065841675,5.442020416259766,7.01904296875,-11.199951171875,5.92041015625
0.3087499,7.807491779327393,-1.8339585065841675,5.442020416259766,7.01904296875,-11.199951171875,5.92041015625
0.3112499,7.778761386871338,-1.9369091987609863,5.439626216888428,6.6986083984375,-11.505126953125,5.55419921875
0.3137499,7.778761386871338,-1.9369091987609863,5.439626216888428,6.6986083984375,-11.505126953125,5.55419921875
0.31624990000000003,7.7763671875,-2.051830768585205,5.420472621917725,5.889892578125,-11.90185546875,4.8675537109375
0.31874990000000003,7.7763671875,-2.051830768585205,5.420472621917725,5.889892578125,-11.90185546875,4.8675537109375
0.32124990000000003,7.7883381843566895,-2.1475989818573,5.3797712326049805,5.157470703125,-11.7645263671875,4.425048828125
0.32374990000000003,7.7883381843566895,-2.1475989818573,5.3797712326049805,5.157470703125,-11.7645263671875,4.425048828125
0.32624990000000004,7.783549785614014,-2.2242133617401123,5.319916248321533,3.2958984375,-11.871337890625,3.5858154296875
0.32874990000000004,7.783549785614014,-2.2242133617401123,5.319916248321533,3.2958984375,-11.871337890625,3.5858154296875
0.33124990000000004,7.747636795043945,-2.2888567447662354,5.252878665924072,1.4190673828125,-11.53564453125,3.0059814453125
0.33374990000000004,7.747636795043945,-2.2888567447662354,5.252878665924072,1.4190673828125,-11.53564453125,3.0059814453125
0.33624990000000005,7.709329605102539,-2.3319525718688965,5.190629482269287,-0.48828125,-11.1846923828125,2.716064453125
0.33874990000000005,7.709329605102539,-2.3319525718688965,5.190629482269287,-0.48828125,-11.1846923828125,2.716064453125
0.34124990000000005,7.702147006988525,-2.3367409706115723,5.157110691070557,-2.532958984375,-10.4522705078125,2.01416015625
0.34374990000000005,7.702147006988525,-2.3367409706115723,5.157110691070557,-2.532958984375,-10.4522705078125,2.01416015625
0.34624990000000005,7.709329605102539,-2.3056161403656006,5.161899089813232,-4.2266845703125,-10.162353515625,1.4495849609375
0.34874990000000006,7.709329605102539,-2.3056161403656006,5.161899089813232,-4.2266845703125,-10.162353515625,1.4495849609375
0.35124990000000006,7.733271598815918,-2.2601263523101807,5.17626428604126,-5.4473876953125,-9.490966796875,0.9765625
0.3537499,7.733271598815918,-2.2601263523101807,5.17626428604126,-5.4473876953125,-9.490966796875,0.9765625
0.3562499,7.773972988128662,-2.2242133617401123,5.1810526847839355,-6.9122314453125,-8.5296630859375,0.762939453125
0.3587499,7.773972988128662,-2.2242133617401123,5.1810526847839355,-6.9122314453125,-8.5296630859375,0.762939453125
0.3612499,7.814674377441406,-2.2146365642547607,5.185841083526611,-8.11767578125,-7.4462890625,0.2593994140625
0.3637499,7.814674377441406,-2.2146365642547607,5.185841083526611,-8.11767578125,-7.4462890625,0.2593994140625
0.3662499,7.848193168640137,-2.229001760482788,5.178658485412598,-9.4146728515625,-6.4239501953125,0.0457763671875
0.3687499,7.848193168640137,-2.229001760482788,5.178658485412598,-9.4146728515625,-6.4239501953125,0.0457763671875
0.3712499,7.903259754180908,-2.2361843585968018,5.149928092956543,-11.0626220703125,-4.852294921875,-0.06103515625
0.3737499,7.903259754180908,-2.2361843585968018,5.149928092956543,-11.0626220703125,-4.852294921875,-0.06103515625
0.3762499,7.996633529663086,-2.2026655673980713,5.104437828063965,-12.542724609375,-3.4942626953125,-0.213623046875
0.37874990000000003,7.996633529663086,-2.2026655673980713,5.104437828063965,-12.542724609375,-3.4942626953125,-0.213623046875
0.38124990000000003,8.123526573181152,-2.142810583114624,5.061342239379883,-14.068603515625,-1.9989013671875,-0.518798828125
0.38374990000000003,8.123526573181152,-2.142810583114624,5.061342239379883,-14.068603515625,-1.9989013671875,-0.518798828125
0.38624990000000003,8.238448143005371,-2.075772762298584,5.032611846923828,-15.5181884765625,-0.3509521484375,-0.9002685546875
0.38874990000000004,8.238448143005371,-2.075772762298584,5.032611846923828,-15.5181884765625,-0.3509521484375,-0.9002685546875
0.39124990000000004,8.303091049194336,-2.013523578643799,5.008669853210449,-16.7694091796875,0.640869140625,-1.0223388671875
0.39374990000000004,8.303091049194336,-2.013523578643799,5.008669853210449,-16.7694091796875,0.640869140625,-1.0223388671875
0.39624990000000004,8.310274124145508,-1.9704279899597168,4.994304656982422,-18.1121826171875,1.708984375,-1.7242431640625
0.39874990000000005,8.310274124145508,-1.9704279899597168,4.994304656982422,-18.1121826171875,1.708984375,-1.7242431640625
0.40124990000000005,8.305485725402832,-1.965639591217041,4.970362663269043,-19.10400390625,2.899169921875,-1.922607421875
0.40374990000000005,8.305485725402832,-1.965639591217041,4.970362663269043,-19.10400390625,2.899169921875,-1.922607421875
0.40624990000000005,8.288725852966309,-1.9991583824157715,4.920084476470947,-20.2484130859375,4.058837890625,-2.0751953125
0.40874990000000005,8.288725852966309,-1.9991583824157715,4.920084476470947,-20.2484130859375,4.058837890625,-2.0751953125
0.41124990000000006,8.267178535461426,-2.032677173614502,4.841075897216797,-21.7132568359375,4.82177734375,-2.044677734375
0.41374990000000006,8.267178535461426,-2.032677173614502,4.841075897216797,-21.7132568359375,4.82177734375,-2.044677734375
0.41624990000000006,8.245630264282227,-2.049436569213867,4.752490520477295,-23.01025390625,5.8746337890625,-1.8310546875
0.4187499,8.245630264282227,-2.049436569213867,4.752490520477295,-23.01025390625,5.8746337890625,-1.8310546875
0.4212499,8.224082946777344,-2.0590133666992188,4.69024133682251,-24.5361328125,6.7596435546875,-1.556396484375
0.4237499,8.224082946777344,-2.0590133666992188,4.69024133682251,-24.5361328125,6.7596435546875,-1.556396484375
0.4262499,8.185775756835938,-2.054224967956543,4.644751071929932,-26.031494140625,7.3394775390625,-1.2664794921875
0.4287499,8.159439086914062,-2.0470423698425293,4.620809078216553,-26.85546875,7.659912109375,-1.3580322265625
0.4312499,8.130708694458008,-2.0470423698425293,4.596867084503174,-27.7252197265625,7.8125,-1.2969970703125
0.4337499,8.10437297821045,-2.049436569213867,4.580107688903809,-28.350830078125,7.87353515625,-0.946044921875
0.4362499,8.08043098449707,-2.0590133666992188,4.572925090789795,-29.1595458984375,8.2550048828125,-0.6561279296875
0.4387499,8.066065788269043,-2.070984363555908,4.577713489532471,-29.8614501953125,8.819580078125,-0.518798828125
0.44124990000000003,8.04691219329834,-2.0829553604125977,4.594472885131836,-30.609130859375,9.033203125,0.06103515625
0.44374990000000003,8.039729118347168,-2.10210919380188,4.623203277587891,-31.005859375,9.46044921875,0.5035400390625
0.44624990000000003,8.030152320861816,-2.118868589401245,4.666299343109131,-31.646728515625,9.7503662109375,0.457763671875
0.44874990000000003,8.027758598327637,-2.1475989818573,4.716577529907227,-31.9061279296875,9.857177734375,0.8544921875
0.45124990000000004,8.027758598327637,-2.1811177730560303,4.771644115447998,-32.16552734375,10.101318359375,1.2664794921875
0.45374990000000004,8.034940719604492,-2.2194249629974365,4.817133903503418,-32.440185546875,10.5438232421875,1.3580322265625
0.45624990000000004,8.044517517089844,-2.2577321529388428,4.853046894073486,-32.6080322265625,10.6353759765625,1.8157958984375
0.45874990000000004,8.058882713317871,-2.296039342880249,4.879383087158203,-32.5469970703125,11.0015869140625,1.9989013671875
0.46124990000000005,8.066065788269043,-2.3295583724975586,4.8937482833862305,-32.470703125,11.444091796875,2.2430419921875
0.46374990000000005,8.070854187011719,-2.3582887649536133,4.903325080871582,-32.470703125,11.7950439453125,2.3651123046875
0.46624990000000005,8.066065788269043,-2.38462495803833,4.903325080871582,-32.89794921875,12.2833251953125,3.0670166015625
0.46874990000000005,8.04691219329834,-2.3965959548950195,4.898536682128906,-32.989501953125,12.63427734375,3.0670166015625
0.47124990000000005,8.018181800842285,-2.410961151123047,4.8937482833862305,-32.9742431640625,12.847900390625,3.3111572265625
0.47374990000000006,7.979874134063721,-2.4181437492370605,4.896142482757568,-33.2489013671875,13.2598876953125,3.509521484375
0.47624990000000006,7.934384346008301,-2.4229321479797363,4.910507678985596,-33.660888671875,13.6260986328125,3.6163330078125
0.47874990000000006,7.886500358581543,-2.425326347351074,4.9368438720703125,-33.7371826171875,13.8397216796875,3.631591796875
0.4812499,7.829039573669434,-2.427720546722412,4.972756862640381,-33.905029296875,13.9007568359375,3.9520263671875
0.4837499,7.769184589385986,-2.432508945465088,5.015852451324463,-34.271240234375,14.4195556640625,4.0283203125
0.4862499,7.709329605102539,-2.432508945465088,5.056553840637207,-34.393310546875,14.6942138671875,4.08935546875
0.4887499,7.654263019561768,-2.43011474609375,5.102043628692627,-34.1644287109375,14.6331787109375,4.3487548828125
0.4912499,7.608773231506348,-2.4205379486083984,5.130774021148682,-34.5001220703125,14.862060546875,4.5928955078125
0.4937499,7.575253963470459,-2.406172752380371,5.16429328918457,-34.4696044921875,15.0604248046875,4.69970703125
0.4962499,7.5417351722717285,-2.38462495803833,5.185841083526611,-34.454345703125,15.106201171875,4.8065185546875
0.4987499,7.522581577301025,-2.367865562438965,5.207388877868652,-34.66796875,15.5792236328125,5.0811767578125
0.5012499,7.4986395835876465,-2.346317768096924,5.2265424728393555,-34.48486328125,15.4571533203125,5.2642822265625
0.5037499000000001,7.474697589874268,-2.3271639347076416,5.243301868438721,-34.3475341796875,15.380859375,5.4779052734375
0.5062499,7.448361396789551,-2.315192937850952,5.260061264038086,-34.24072265625,15.3045654296875,5.584716796875
0.5087499000000001,7.424419403076172,-2.3080103397369385,5.276820659637451,-34.210205078125,15.228271484375,5.6304931640625
0.5112499,7.402871608734131,-2.3080103397369385,5.293580055236816,-34.1033935546875,15.3350830078125,5.7830810546875
0.5137499,7.386112213134766,-2.319981336593628,5.307945251464844,-33.99658203125,15.2130126953125,5.9967041015625
0.5162499,7.3693528175354,-2.3343467712402344,5.315127849578857,-33.538818359375,15.2587890625,6.011962890625
0.5187499,7.354987621307373,-2.3535003662109375,5.315127849578857,-33.1573486328125,15.13671875,6.256103515625
0.5212499,7.343016624450684,-2.3702597618103027,5.310339450836182,-33.0810546875,15.07568359375,6.3629150390625
0.5237499,7.340622425079346,-2.3798365592956543,5.303156852722168,-33.0352783203125,15.045166015625,6.34765625
0.5262499,7.343016624450684,-2.3798365592956543,5.30076265335083,-32.9132080078125,15.0299072265625,6.34765625
0.5287499,7.352593421936035,-2.3750481605529785,5.305551052093506,-33.111572265625,15.1214599609375,6.3629150390625
0.5312499,7.3693528175354,-2.3582887649536133,5.329493045806885,-33.2489013671875,15.13671875,6.439208984375
0.5337499,7.395689010620117,-2.33913516998291,5.360617637634277,-33.1573486328125,15.045166015625,6.439208984375
0.5362499000000001,7.436390399932861,-2.322375535964966,5.4013190269470215,-33.0963134765625,14.7247314453125,6.8206787109375
0.5387499,7.486668586730957,-2.3032219409942627,5.446808815002441,-32.8826904296875,14.9688720703125,6.7291259765625
0.5412499000000001,7.5417351722717285,-2.298433542251587,5.485116004943848,-32.7301025390625,14.9688720703125,6.683349609375
0.5437499,7.589619159698486,-2.296039342880249,5.523423194885254,-32.53173828125,15.0604248046875,6.500244140625
0.5462499000000001,7.632715225219727,-2.3032219409942627,5.552153587341309,-32.440185546875,15.2587890625,6.4849853515625
0.5487499,7.659051418304443,-2.3104045391082764,5.578489780426025,-32.4249267578125,15.3961181640625,6.4697265625
0.5512499000000001,7.6782050132751465,-2.319981336593628,5.595249176025391,-32.0587158203125,15.472412109375,6.4239501953125
0.5537499,7.687781810760498,-2.3343467712402344,5.602431774139404,-32.0587158203125,15.5487060546875,6.561279296875
0.5562499000000001,7.687781810760498,-2.341529369354248,5.602431774139404,-31.92138671875,15.5792236328125,6.4239501953125
0.5587499,7.687781810760498,-2.341529369354248,5.590460777282715,-31.7840576171875,15.7470703125,6.439208984375
0.5612499000000001,7.682993412017822,-2.3271639347076416,5.568912982940674,-31.9061279296875,15.716552734375,6.3934326171875
0.5637499,7.68538761138916,-2.3080103397369385,5.549759387969971,-32.1197509765625,15.899658203125,6.3018798828125
0.5662499000000001,7.69735860824585,-2.2816741466522217,5.521028995513916,-32.745361328125,15.80810546875,6.28662109375
0.5687499,7.716512203216553,-2.2601263523101807,5.489904403686523,-32.928466796875,16.05224609375,6.2103271484375
0.5712499000000001,7.738059997558594,-2.2361843585968018,5.449203014373779,-33.355712890625,16.1285400390625,6.1798095703125
0.5737499,7.752425193786621,-2.2218191623687744,5.4013190269470215,-33.966064453125,16.2353515625,5.9051513671875
0.5762499000000001,7.747636795043945,-2.2002713680267334,5.351040840148926,-34.820556640625,16.204833984375,6.0577392578125
0.5787499,7.7213006019592285,-2.183511972427368,5.30076265335083,-35.8123779296875,16.448974609375,6.3934326171875
0.5812499,7.680599212646484,-2.1739351749420166,5.260061264038086,-36.68212890625,16.4642333984375,7.01904296875
0.5837499,7.642292022705078,-2.166752576828003,5.2265424728393555,-38.0096435546875,16.3726806640625,7.3699951171875
0.5862499,7.592013359069824,-2.1523873805999756,5.20978307723999,-39.36767578125,16.754150390625,7.598876953125
0.5887499,7.55131196975708,-2.126051187515259,5.197812080383301,-40.6036376953125,16.7388916015625,8.1939697265625
0.5912499,7.4986395835876465,-2.075772762298584,5.2049946784973145,-41.9769287109375,16.4337158203125,8.5601806640625
0.5937499,7.443572998046875,-2.0207061767578125,5.219359874725342,-43.15185546875,16.3421630859375,8.72802734375
0.5962499,7.393294811248779,-1.9728221893310547,5.2480902671813965,-44.281005859375,16.326904296875,9.368896484375
0.5987499000000001,7.359776020050049,-1.9488801956176758,5.284003257751465,-45.196533203125,16.4642333984375,10.07080078125
0.6012499,7.343016624450684,-1.9584569931030273,5.315127849578857,-45.745849609375,16.5557861328125,10.6201171875
0.6037499000000001,7.347805023193359,-1.98958158493042,5.3342814445495605,-46.32568359375,16.29638671875,11.0931396484375
0.6062499,7.374141216278076,-2.0398597717285156,5.339069843292236,-46.783447265625,16.1590576171875,11.65771484375
0.6087499000000001,7.419631004333496,-2.0853497982025146,5.3342814445495605,-47.0123291015625,16.3726806640625,12.542724609375
0.6112499,7.481880187988281,-2.1308395862579346,5.3342814445495605,-47.4395751953125,16.2506103515625,13.214111328125
0.6137499000000001,7.55131196975708,-2.164358377456665,5.339069843292236,-47.2869873046875,16.1590576171875,13.97705078125
0.6162499,7.620744228363037,-2.1930887699127197,5.367800235748291,-47.210693359375,16.1285400390625,14.556884765625
0.6187499000000001,7.692570209503174,-2.2194249629974365,5.408501625061035,-46.7376708984375,15.8233642578125,15.07568359375
0.6212499,7.762001991271973,-2.248155355453491,5.473145008087158,-46.08154296875,15.625,15.7928466796875
0.6237499000000001,7.826645374298096,-2.274491548538208,5.540182590484619,-45.6390380859375,15.4266357421875,16.3421630859375
0.6262499,7.879317760467529,-2.3032219409942627,5.612008571624756,-45.013427734375,15.3961181640625,17.120361328125
0.6287499000000001,7.920019149780273,-2.3271639347076416,5.671864032745361,-44.0521240234375,15.167236328125,17.5323486328125
0.6312499,7.948749542236328,-2.3511061668395996,5.719748020172119,-43.060302734375,15.19775390625,17.88330078125
0.6337499000000001,7.972691535949707,-2.367865562438965,5.75326681137085,-41.9464111328125,14.8773193359375,18.2952880859375
0.6362499,7.996633529663086,-2.3774423599243164,5.772420406341553,-41.1376953125,14.2974853515625,18.9971923828125
0.6387499000000001,8.015787124633789,-2.38462495803833,5.779603004455566,-39.9322509765625,14.129638671875,19.2108154296875
0.6412499,8.034940719604492,-2.389413356781006,5.774814605712891,-38.818359375,13.85498046875,19.6380615234375
0.6437499,8.04691219329834,-2.3918075561523438,5.760449409484863,-37.506103515625,13.3514404296875,19.805908203125
0.6462499,8.054094314575195,-2.408566951751709,5.743690013885498,-36.2091064453125,12.87841796875,19.8211669921875
0.6487499,8.056488990783691,-2.425326347351074,5.719748020172119,-35.064697265625,12.4664306640625,20.01953125
0.6512499,8.04930591583252,-2.4612393379211426,5.705382823944092,-33.721923828125,12.1612548828125,20.2178955078125
0.6537499,8.032546997070312,-2.5043349266052246,5.683835029602051,-32.4859619140625,11.90185546875,20.4010009765625
0.6562499,8.01339340209961,-2.5546131134033203,5.6670756340026855,-30.853271484375,11.29150390625,20.4925537109375
0.6587499,7.994239330291748,-2.607285737991333,5.638344764709473,-29.5867919921875,10.7879638671875,20.660400390625
0.6612499000000001,7.979874134063721,-2.6599581241607666,5.616796970367432,-28.289794921875,10.5438232421875,20.9808349609375
0.6637499,7.970297336578369,-2.7054479122161865,5.590460777282715,-26.947021484375,10.223388671875,20.8892822265625
0.6662499000000001,7.9631147384643555,-2.7509377002716064,5.571307182312012,-25.7415771484375,9.5062255859375,20.9503173828125
0.6687499,7.955932140350342,-2.7748796939849854,5.556941986083984,-24.658203125,8.8653564453125,21.087646484375
0.6712499000000001,7.948749542236328,-2.7964274883270264,5.549759387969971,-24.017333984375,8.758544921875,21.0113525390625
0.6737499,7.931990146636963,-2.806004285812378,5.547365188598633,-23.0255126953125,8.3770751953125,20.9197998046875
0.6762499000000001,7.920019149780273,-2.8131868839263916,5.549759387969971,-21.97265625,7.7972412109375,20.93505859375
0.6787499,7.905653953552246,-2.8203697204589844,5.552153587341309,-21.087646484375,7.32421875,20.843505859375
0.6812499000000001,7.905653953552246,-2.8371291160583496,5.552153587341309,-20.4010009765625,7.110595703125,20.599365234375
0.6837499,7.915230751037598,-2.8562827110290527,5.544970989227295,-19.927978515625,6.6986083984375,20.294189453125
0.6862499000000001,7.939172744750977,-2.8850131034851074,5.535394191741943,-19.3023681640625,6.28662109375,20.0958251953125
0.6887499,7.970297336578369,-2.9161376953125,5.525817394256592,-18.8751220703125,6.134033203125,20.01953125
0.6912499000000001,8.008605003356934,-2.940079689025879,5.513846397399902,-18.5089111328125,6.04248046875,19.6075439453125
0.6937499,8.04691219329834,-2.959233283996582,5.501875400543213,-18.12744140625,5.8441162109375,19.744873046875
0.6962499000000001,8.08282470703125,-2.9735984802246094,5.492298603057861,-17.7154541015625,5.7525634765625,19.622802734375
0.6987499,8.1139497756958,-2.985569477081299,5.477933406829834,-17.181396484375,5.645751953125,19.6380615234375
0.7012499000000001,8.14028549194336,-2.9975404739379883,5.47075080871582,-16.9219970703125,5.55419921875,19.3023681640625
0.7037499,8.159439086914062,-3.00711727142334,5.4659624099731445,-16.8304443359375,5.706787109375,18.9666748046875
0.7062499,8.17141056060791,-3.0119056701660156,5.4659624099731445,-16.265869140625,5.4168701171875,19.1192626953125
0.7087499,8.183381080627441,-3.00711727142334,5.4659624099731445,-15.899658203125,5.37109375,19.1192626953125
0.7112499,8.188169479370117,-3.00711727142334,5.473145008087158,-15.4876708984375,5.340576171875,19.1497802734375
0.7137499,8.195352554321289,-3.0095114707946777,5.4875102043151855,-15.0604248046875,5.3863525390625,18.798828125
0.7162499,8.195352554321289,-3.023876667022705,5.509057998657227,-14.7705078125,5.37109375,18.707275390625
0.7187499,8.200140953063965,-3.043030261993408,5.535394191741943,-14.0228271484375,5.218505859375,18.6614990234375
0.7212499,8.209717750549316,-3.0765492916107178,5.564124584197998,-13.092041015625,5.2642822265625,18.7530517578125
0.7237499000000001,8.214506149291992,-3.1196448802948,5.583278179168701,-11.8865966796875,5.4168701171875,18.768310546875
0.7262499,8.221688270568848,-3.1675288677215576,5.592854976654053,-10.68115234375,5.4779052734375,18.463134765625
0.7287499000000001,8.216899871826172,-3.220201253890991,5.590460777282715,-9.6282958984375,5.2337646484375,18.707275390625
0.7312499,8.202534675598145,-3.265691041946411,5.585672378540039,-8.6517333984375,5.096435546875,18.829345703125
0.7337499000000001,8.185775756835938,-3.3063924312591553,5.57370138168335,-7.4310302734375,4.8828125,19.22607421875
0.7362499,8.169015884399414,-3.332728862762451,5.559336185455322,-6.0882568359375,4.8675537109375,19.378662109375
0.7387499000000001,8.147468566894531,-3.359065055847168,5.544970989227295,-4.974365234375,4.852294921875,19.34814453125
0.7412499,8.123526573181152,-3.378218650817871,5.535394191741943,-3.7994384765625,4.669189453125,19.71435546875
0.7437499000000001,8.092401504516602,-3.40216064453125,5.52821159362793,-2.532958984375,4.5013427734375,19.95849609375
0.7462499,8.042123794555664,-3.426102638244629,5.525817394256592,-0.8392333984375,4.2572021484375,20.1416015625
0.7487499000000001,7.9846625328063965,-3.445256233215332,5.51624059677124,0.18310546875,4.180908203125,20.4925537109375
0.7512499,7.924807548522949,-3.4596214294433594,5.513846397399902,1.1444091796875,3.6468505859375,20.69091796875
0.7537499000000001,7.857769966125488,-3.464409828186035,5.51624059677124,2.197265625,3.570556640625,20.6756591796875
0.7562499,7.805097579956055,-3.445256233215332,5.530605792999268,2.86865234375,3.5247802734375,20.93505859375
0.7587499000000001,7.773972988128662,-3.428496837615967,5.547365188598633,3.60107421875,3.021240234375,20.93505859375
0.7612499,7.750030994415283,-3.40216064453125,5.549759387969971,4.425048828125,2.8533935546875,20.9197998046875
0.7637499000000001,7.73087739944458,-3.3925838470458984,5.542576789855957,5.401611328125,2.685546875,20.7672119140625
0.7662499,7.702147006988525,-3.3901896476745605,5.518634796142578,6.2103271484375,2.593994140625,20.8740234375
0.7687499000000001,7.661445617675781,-3.3925838470458984,5.499481201171875,6.6680908203125,2.3193359375,20.7061767578125
0.7712499,7.618350028991699,-3.397372245788574,5.48272180557251,6.9732666015625,1.8768310546875,20.5841064453125
0.7737499,7.5848307609558105,-3.40216064453125,5.48272180557251,7.5531005859375,1.46484375,20.5078125
0.7762499,7.568071365356445,-3.40216064453125,5.497087001800537,8.1024169921875,1.28173828125,20.1873779296875
0.7787499,7.572859764099121,-3.406949043273926,5.51624059677124,8.5601806640625,1.129150390625,19.9737548828125
0.7812499,7.5968017578125,-3.4165258407592773,5.537788391113281,9.2315673828125,0.8392333984375,19.53125
0.7837499,7.627926826477051,-3.423708438873291,5.559336185455322,9.70458984375,0.6256103515625,19.134521484375
0.7862499000000001,7.666234016418457,-3.4380736351013184,5.5760955810546875,10.1776123046875,0.3509521484375,18.707275390625
0.7887499,7.704541206359863,-3.442862033843994,5.592854976654053,10.498046875,0.091552734375,18.524169921875
0.7912499000000001,7.735665798187256,-3.4380736351013184,5.5976433753967285,10.7421875,-0.1373291015625,17.974853515625
0.7937499,7.752425193786621,-3.4356794357299805,5.604825973510742,11.2152099609375,-0.2593994140625,17.3492431640625
0.7962499000000001,7.754819393157959,-3.428496837615967,5.604825973510742,11.6424560546875,-0.3662109375,16.937255859375
0.7987499,7.745242595672607,-3.426102638244629,5.60722017288208,11.962890625,-0.7476806640625,16.448974609375
0.8012499000000001,7.726089000701904,-3.428496837615967,5.616796970367432,12.2528076171875,-1.0223388671875,16.0369873046875
0.8037499,7.716512203216553,-3.426102638244629,5.635950565338135,12.4664306640625,-1.2359619140625,15.6097412109375
0.8062499000000001,7.709329605102539,-3.428496837615967,5.657498836517334,12.847900390625,-1.3580322265625,15.3350830078125
0.8087499,7.706935405731201,-3.423708438873291,5.686229228973389,13.275146484375,-1.556396484375,14.7857666015625
0.8112499000000001,7.702147006988525,-3.421314239501953,5.705382823944092,13.5345458984375,-1.7242431640625,14.373779296875
0.8137499,7.6997528076171875,-3.4141316413879395,5.722142219543457,13.4735107421875,-2.01416015625,13.885498046875
0.8162499000000001,7.687781810760498,-3.406949043273926,5.738901615142822,13.824462890625,-2.105712890625,13.5650634765625
0.8187499,7.680599212646484,-3.399766445159912,5.750872611999512,14.190673828125,-2.1820068359375,13.24462890625
0.8212499000000001,7.673416614532471,-3.3925838470458984,5.7556610107421875,14.34326171875,-2.5634765625,12.5274658203125
0.8237499,7.666234016418457,-3.3949780464172363,5.762843608856201,15.0146484375,-2.838134765625,12.1612548828125
0.8262499000000001,7.659051418304443,-3.40216064453125,5.762843608856201,15.411376953125,-2.899169921875,11.871337890625
0.8287499,7.654263019561768,-3.4093432426452637,5.767632007598877,15.9454345703125,-3.2501220703125,11.5814208984375
0.8312499000000001,7.654263019561768,-3.428496837615967,5.774814605712891,16.5557861328125,-3.387451171875,11.260986328125
0.8337499,7.649474620819092,-3.4596214294433594,5.7772088050842285,17.486572265625,-3.35693359375,11.23046875
0.8362499,7.642292022705078,-3.5051112174987793,5.789179801940918,18.5546875,-3.47900390625,10.9100341796875
0.8387499,7.625532627105713,-3.5649664402008057,5.803544998168945,19.500732421875,-3.8299560546875,10.589599609375
0.8412499,7.603984832763672,-3.622427225112915,5.837063789367676,20.5841064453125,-4.302978515625,10.833740234375
0.8437499,7.580042362213135,-3.6774938106536865,5.8873419761657715,21.759033203125,-4.2572021484375,10.833740234375
0.8462499,7.577648162841797,-3.7205893993377686,5.947196960449219,22.9339599609375,-4.2572021484375,10.80322265625
0.8487499000000001,7.577648162841797,-3.751713991165161,5.987898349761963,24.5361328125,-4.5013427734375,11.077880859375
0.8512499,7.580042362213135,-3.77565598487854,6.009446144104004,26.031494140625,-4.638671875,11.3067626953125
0.8537499000000001,7.580042362213135,-3.7924153804779053,6.00226354598999,27.5421142578125,-4.638671875,11.0626220703125
0.8562499,7.556100368499756,-3.804386615753174,5.983109951019287,29.0374755859375,-4.852294921875,11.3525390625
0.8587499000000001,7.529764175415039,-3.8139634132385254,5.966350555419922,30.364990234375,-5.157470703125,11.7340087890625
0.8612499,7.501033782958984,-3.8163576126098633,5.9519853591918945,31.8145751953125,-5.3863525390625,11.993408203125
0.8637499000000001,7.4770917892456055,-3.8163576126098633,5.942408561706543,33.477783203125,-5.4779052734375,12.0086669921875
0.8662499,7.450755596160889,-3.8139634132385254,5.932831764221191,35.2630615234375,-5.706787109375,12.1612548828125
0.8687499000000001,7.42681360244751,-3.8139634132385254,5.920860767364502,36.834716796875,-6.0882568359375,12.3291015625
0.8712499,7.400477409362793,-3.8139634132385254,5.916072368621826,38.0706787109375,-6.195068359375,12.51220703125
0.8737499000000001,7.371747016906738,-3.8139634132385254,5.91128396987915,39.4287109375,-6.3018798828125,12.603759765625
0.8762499,7.350199222564697,-3.8115692138671875,5.916072368621826,40.4815673828125,-6.6375732421875,12.8173828125
0.8787499000000001,7.328651428222656,-3.801992416381836,5.916072368621826,41.5802001953125,-6.65283203125,13.00048828125
0.8812499,7.311892032623291,-3.7852327823638916,5.91128396987915,42.5567626953125,-6.8817138671875,13.00048828125
0.8837499000000001,7.299921035766602,-3.758896589279175,5.896918773651123,43.2281494140625,-6.89697265625,13.4429931640625
0.8862499,7.29034423828125,-3.7253777980804443,5.87776517868042,43.670654296875,-6.9427490234375,13.5498046875
0.8887499000000001,7.280767440795898,-3.6846764087677,5.858611583709717,43.6553955078125,-7.01904296875,13.458251953125
0.8912499,7.275979042053223,-3.641580820083618,5.837063789367676,43.5638427734375,-7.14111328125,13.5040283203125
0.8937499000000001,7.264008045196533,-3.5936968326568604,5.817910194396973,43.2891845703125,-7.3089599609375,13.5498046875
0.8962499,7.249642848968506,-3.5458126068115234,5.793968200683594,42.6788330078125,-7.293701171875,13.0462646484375
0.8987499,7.232883453369141,-3.49314022064209,5.765237808227539,41.9464111328125,-7.32421875,13.0462646484375
0.9012499,7.2137298583984375,-3.44765043258667,5.7341132164001465,40.8935546875,-7.476806640625,12.8936767578125
0.9037499,7.1921820640563965,-3.399766445159912,5.700594425201416,39.5660400390625,-7.3699951171875,12.542724609375
0.9062499,7.182605266571045,-3.3638534545898438,5.657498836517334,38.2537841796875,-7.4005126953125,12.115478515625
0.9087499,7.168240070343018,-3.332728862762451,5.616796970367432,36.7584228515625,-7.6141357421875,11.749267578125
0.9112499000000001,7.158663272857666,-3.31118106842041,5.580883979797363,35.15625,-7.6904296875,11.6729736328125
0.9137499,7.144298076629639,-3.2968156337738037,5.552153587341309,33.5693359375,-7.4615478515625,11.3677978515625
0.9162499000000001,7.091625213623047,-3.2776620388031006,5.535394191741943,31.7230224609375,-7.14111328125,10.7269287109375
0.9187499,6.993463039398193,-3.2632968425750732,5.492298603057861,29.8309326171875,-6.28662109375,9.5977783203125
0.9212499000000001,6.847416877746582,-3.268085241317749,5.4228668212890625,27.9388427734375,-4.9285888671875,8.4075927734375
0.9237499,6.696582317352295,-3.3255462646484375,5.286397457122803,26.7181396484375,-3.96728515625,7.50732421875
0.9262499000000001,6.598419666290283,-3.450044631958008,5.092466831207275,26.0772705078125,-3.448486328125,6.195068359375
0.9287499,6.576871871948242,-3.622427225112915,4.865017890930176,25.390625,-2.7923583984375,4.8828125
0.9312499000000001,6.62236213684082,-3.823540210723877,4.63517427444458,23.86474609375,-1.9989013671875,3.9215087890625
0.9337499,6.696582317352295,-4.000710964202881,4.455609321594238,22.4761962890625,-1.007080078125,2.838134765625
0.9362499000000001,6.754043102264404,-4.153939723968506,4.369418144226074,21.17919921875,-0.1678466796875,1.708984375
0.9387499,6.794744491577148,-4.268861770629883,4.369418144226074,20.5230712890625,0.457763671875,0.8392333984375
0.9412499000000001,6.833051681518555,-4.369418144226074,4.455609321594238,20.6756591796875,1.556396484375,-0.18310546875
0.9437499,6.861782073974609,-4.469974517822266,4.565742492675781,21.05712890625,3.1890869140625,-1.52587890625
0.9462499000000001,6.89530086517334,-4.580107688903809,4.680664539337158,21.7437744140625,4.608154296875,-2.7313232421875
0.9487499,6.9240312576293945,-4.692635536193848,4.78122091293335,22.552490234375,5.6304931640625,-3.6773681640625
0.9512499000000001,6.962338447570801,-4.790797710418701,4.867412090301514,22.76611328125,6.65283203125,-4.33349609375
0.9537499,7.024587631225586,-4.857835292816162,4.972756862640381,23.162841796875,7.415771484375,-4.547119140625
0.9562499000000001,7.127538681030273,-4.884171485900879,5.082890033721924,23.62060546875,8.48388671875,-4.913330078125
0.9587499,7.2568254470825195,-4.874594688415527,5.212177276611328,24.59716796875,9.70458984375,-5.55419921875
0.9612499,7.378929615020752,-4.829104900360107,5.339069843292236,25.665283203125,10.6658935546875,-5.9661865234375
0.9637499,7.47230339050293,-4.750096321105957,5.461174011230469,26.885986328125,11.199951171875,-6.3629150390625
0.9662499,7.51779317855835,-4.642356872558594,5.580883979797363,27.4505615234375,12.115478515625,-6.744384765625
0.9687499,7.524975776672363,-4.49870491027832,5.6910176277160645,28.0303955078125,12.359619140625,-6.9732666015625
0.9712499,7.515398979187012,-4.335899353027344,5.789179801940918,28.4881591796875,12.6495361328125,-7.6141357421875
0.9737499000000001,7.496245384216309,-4.1611223220825195,5.875370979309082,28.6712646484375,13.1988525390625,-7.8582763671875
0.9762499,7.491456985473633,-3.9887399673461914,5.940014362335205,29.022216796875,13.3514404296875,-8.0718994140625
0.9787499000000001,7.493851184844971,-3.821146011352539,5.971138954162598,28.99169921875,13.4124755859375,-8.30078125
0.9812499,7.503427982330322,-3.6798880100250244,5.978321552276611,28.564453125,13.397216796875,-8.30078125
0.9837499000000001,7.4986395835876465,-3.536235809326172,5.963956356048584,27.9541015625,13.275146484375,-8.30078125
0.9862499,7.486668586730957,-3.3901896476745605,5.935225963592529,26.8096923828125,13.2598876953125,-8.30078125
0.9887499000000001,7.46033239364624,-3.224989652633667,5.916072368621826,25.604248046875,12.9547119140625,-8.026123046875
0.9912499,7.438784599304199,-3.050212860107422,5.899312973022461,24.0631103515625,12.5885009765625,-8.1634521484375
0.9937499000000001,7.4316020011901855,-2.8658595085144043,5.896918773651123,22.3388671875,12.054443359375,-8.087158203125
0.9962499,7.438784599304199,-2.7006595134735107,5.899312973022461,20.355224609375,11.5509033203125,-8.270263671875
0.9987499000000001,7.457938194274902,-2.557007312774658,5.916072368621826,18.4783935546875,11.199951171875,-8.48388671875
1.0012499,7.467514991760254,-2.4420857429504395,5.940014362335205,16.4642333984375,10.2386474609375,-8.3465576171875
1.0037498999999999,7.462726593017578,-2.3582887649536133,5.975927352905273,14.190673828125,9.490966796875,-8.514404296875
1.0062499,7.441178798675537,-2.296039342880249,6.026205539703369,11.5814208984375,8.9874267578125,-8.5296630859375
1.0087499,7.400477409362793,-2.2577321529388428,6.078877925872803,8.8653564453125,8.11767578125,-8.60595703125
1.0112499,7.352593421936035,-2.2409727573394775,6.141127586364746,5.79833984375,7.476806640625,-8.514404296875
1.0137498999999999,7.307103633880615,-2.2385785579681396,6.196194171905518,3.0975341796875,6.988525390625,-8.1634521484375
1.0162499,7.266402244567871,-2.248155355453491,6.2392897605896,0.5645751953125,6.34765625,-8.30078125
1.0187499,7.237671852111816,-2.2625205516815186,6.268020153045654,-1.9683837890625,5.584716796875,-8.3160400390625
1.0212499,7.218518257141113,-2.2840683460235596,6.279991149902344,-4.730224609375,4.7454833984375,-8.1634521484375
1.0237498999999999,7.206547260284424,-2.3104045391082764,6.277596950531006,-7.4462890625,4.2572021484375,-8.056640625
1.0262498999999998,7.201758861541748,-2.3558945655822754,6.2632317543029785,-9.857177734375,3.60107421875,-7.9498291015625
1.0287499,7.196970462799072,-2.408566951751709,6.2416839599609375,-12.2222900390625,2.7313232421875,-7.7056884765625
1.0312499,7.1921820640563965,-2.473210334777832,6.217741966247559,-14.6026611328125,2.1514892578125,-7.476806640625
1.0337498999999999,7.182605266571045,-2.542642116546631,6.186617374420166,-16.632080078125,1.77001953125,-7.38525390625
1.0362498999999998,7.163451671600342,-2.609679937362671,6.167463779449463,-18.2037353515625,1.0986328125,-6.988525390625
1.0387499,7.139509677886963,-2.674323320388794,6.145915985107422,-19.5770263671875,0.3509521484375,-6.439208984375
1.0412499,7.105990409851074,-2.741360902786255,6.138733386993408,-21.026611328125,-0.4425048828125,-6.1187744140625
1.0437499,7.072471618652344,-2.808398485183716,6.13633918762207,-22.2930908203125,-1.1444091796875,-5.889892578125
1.0462498999999998,7.038952827453613,-2.8778305053710938,6.143521785736084,-23.2696533203125,-1.89208984375,-5.3558349609375
1.0487499,7.017405033111572,-2.9448680877685547,6.169857978820801,-24.169921875,-2.62451171875,-5.096435546875
1.0512499,7.0126166343688965,-2.999934673309326,6.205770969390869,-24.7344970703125,-3.3416748046875,-4.852294921875
1.0537499,7.024587631225586,-3.045424461364746,6.2632317543029785,-25.0396728515625,-4.1351318359375,-4.3487548828125
1.0562498999999999,7.058106422424316,-3.0813376903533936,6.323086738586426,-25.238037109375,-4.7149658203125,-3.753662109375
1.0587499,7.101202011108398,-3.1220390796661377,6.382941722869873,-24.8260498046875,-5.2947998046875,-3.47900390625
1.0612499,7.151480674743652,-3.162740468978882,6.435614109039307,-24.688720703125,-6.0272216796875,-3.11279296875
1.0637499,7.204153060913086,-3.2082302570343018,6.471527099609375,-24.4903564453125,-6.7901611328125,-2.5634765625
1.0662498999999999,7.247248649597168,-3.248931646347046,6.497863292694092,-23.86474609375,-7.4310302734375,-1.983642578125
1.0687499,7.283161640167236,-3.2800562381744385,6.509834289550781,-23.3001708984375,-7.9498291015625,-1.678466796875
1.0712499,7.297526836395264,-3.294421434402466,6.517016887664795,-22.9644775390625,-8.8348388671875,-1.190185546875
1.0737499,7.299921035766602,-3.292027235031128,6.5265936851501465,-22.3541259765625,-9.246826171875,-0.6561279296875
1.0762498999999999,7.292738437652588,-3.2752678394317627,6.528987884521484,-21.6217041015625,-9.521484375,-0.06103515625
1.0787499,7.283161640167236,-3.251325845718384,6.528987884521484,-21.1944580078125,-10.101318359375,0.0152587890625
1.0812499,7.29034423828125,-3.227383852005005,6.517016887664795,-20.4010009765625,-10.772705078125,0
1.0837499,7.314286231994629,-3.2082302570343018,6.495469093322754,-19.6990966796875,-11.3067626953125,0.335693359375
1.0862498999999999,7.350199222564697,-3.1962592601776123,6.464344501495361,-18.9666748046875,-11.8408203125,0.457763671875
1.0887499,7.386112213134766,-3.19865345954895,6.433219909667969,-18.2952880859375,-12.5579833984375,0.640869140625
1.0912499,7.412448406219482,-3.2106244564056396,6.399701118469238,-17.8070068359375,-12.847900390625,0.7171630859375
1.0937499,7.422025203704834,-3.2345664501190186,6.366182327270508,-17.2882080078125,-13.0767822265625,0.9002685546875
1.0962498999999999,7.422025203704834,-3.265691041946411,6.3302693367004395,-16.5557861328125,-13.397216796875,0.9307861328125
1.0987498999999998,7.41484260559082,-3.2968156337738037,6.294356346130371,-16.021728515625,-13.824462890625,1.1444091796875
1.1012499,7.407660007476807,-3.3207578659057617,6.253654956817627,-15.289306640625,-14.0533447265625,0.9918212890625
1.1037499,7.400477409362793,-3.339911460876465,6.215347766876221,-14.7552490234375,-14.34326171875,1.2359619140625
1.1062499,7.400477409362793,-3.3446998596191406,6.1770405769348145,-14.2364501953125,-14.5263671875,1.2969970703125
1.1087498999999998,7.407660007476807,-3.3494882583618164,6.143521785736084,-13.7786865234375,-14.8773193359375,1.0833740234375
1.1112499,7.412448406219482,-3.3423056602478027,6.112396717071533,-13.4124755859375,-15.106201171875,1.220703125
1.1137499,7.400477409362793,-3.3303346633911133,6.0836663246154785,-12.87841796875,-15.13671875,0.9002685546875
1.1162499,7.354987621307373,-3.315969467163086,6.0405707359313965,-12.603759765625,-14.984130859375,0.3509521484375
1.1187498999999999,7.287950038909912,-3.318363666534424,5.971138954162598,-12.20703125,-14.7247314453125,-0.1678466796875
1.1212499,7.223306655883789,-3.337517261505127,5.87776517868042,-11.6119384765625,-14.22119140625,-0.3509521484375
1.1237499,7.206547260284424,-3.380612850189209,5.743690013885498,-10.8489990234375,-14.16015625,-0.7476806640625
1.1262499,7.252037048339844,-3.4332852363586426,5.600037574768066,-10.4217529296875,-14.1754150390625,-1.15966796875
1.1287498999999999,7.333439826965332,-3.485957622528076,5.456385612487793,-10.467529296875,-14.0380859375,-1.373291015625
1.1312499,7.412448406219482,-3.533841609954834,5.329493045806885,-10.2386474609375,-13.61083984375,-1.6632080078125
1.1337499,7.450755596160889,-3.5721490383148193,5.245696067810059,-10.1470947265625,-13.2293701171875,-2.044677734375
1.1362499,7.443572998046875,-3.5889084339141846,5.188235282897949,-10.2386474609375,-12.8021240234375,-2.2125244140625
1.1387498999999999,7.4100542068481445,-3.579331636428833,5.171475887298584,-10.040283203125,-12.3443603515625,-2.410888671875
1.1412499,7.3693528175354,-3.533841609954834,5.17626428604126,-10.2691650390625,-12.2833251953125,-2.8076171875
1.1437499,7.338228225708008,-3.4620156288146973,5.197812080383301,-10.589599609375,-11.993408203125,-3.204345703125
1.1462499,7.328651428222656,-3.380612850189209,5.231330871582031,-11.1541748046875,-11.3983154296875,-3.6468505859375
1.1487498999999999,7.333439826965332,-3.2968156337738037,5.257667064666748,-12.0086669921875,-11.077880859375,-4.45556640625
1.1512499,7.357381820678711,-3.224989652633667,5.281609058380127,-12.481689453125,-10.8489990234375,-5.0201416015625
1.1537499,7.3885064125061035,-3.1747114658355713,5.293580055236816,-13.031005859375,-10.31494140625,-5.706787109375
1.1562499,7.417236804962158,-3.1459810733795166,5.2911858558654785,-13.7481689453125,-10.07080078125,-6.1492919921875
1.1587498999999999,7.433996200561523,-3.141192674636841,5.272032260894775,-14.22119140625,-9.7808837890625,-6.8359375
1.1612498999999998,7.443572998046875,-3.160346269607544,5.250484466552734,-14.6942138671875,-9.3231201171875,-7.2021484375
1.1637499,7.443572998046875,-3.1890766620635986,5.214571475982666,-15.3350830078125,-8.97216796875,-7.3089599609375
1.1662499,7.450755596160889,-3.248931646347046,5.154716491699219,-16.6778564453125,-8.2550048828125,-7.99560546875
1.1687499,7.450755596160889,-3.248931646347046,5.154716491699219,-16.6778564453125,-8.2550048828125,-7.99560546875
1.1712498999999998,7.453149795532227,-3.2609026432037354,5.1331682205200195,-17.303466796875,-8.087158203125,-8.2855224609375
1.1737499,7.445967197418213,-3.2848446369171143,5.123591423034668,-17.3187255859375,-7.7972412109375,-8.6517333984375
1.1762499,7.438784599304199,-3.313575267791748,5.130774021148682,-17.120361328125,-7.62939453125,-8.9111328125
1.1787499,7.4316020011901855,-3.3518824577331543,5.154716491699219,-16.8914794921875,-7.3699951171875,-9.1400146484375
1.1812498999999999,7.469909191131592,-3.442862033843994,5.243301868438721,-15.31982421875,-7.1868896484375,-9.552001953125
1.1837499,7.469909191131592,-3.442862033843994,5.243301868438721,-15.31982421875,-7.1868896484375,-9.552001953125
1.1862499,7.524975776672363,-3.49314022064209,5.329493045806885,-13.8702392578125,-6.5460205078125,-9.6435546875
1.1887499,7.524975776672363,-3.49314022064209,5.329493045806885,-13.8702392578125,-6.5460205078125,-9.6435546875
1.1912498999999999,7.4986395835876465,-3.512293815612793,5.403713226318359,-12.6800537109375,-6.134033203125,-9.94873046875
1.1937499,7.4986395835876465,-3.512293815612793,5.403713226318359,-12.6800537109375,-6.134033203125,-9.94873046875
1.1962499,7.457938194274902,-3.5170822143554688,5.480327606201172,-10.498046875,-5.9356689453125,-9.765625
1.1987499,7.457938194274902,-3.5170822143554688,5.480327606201172,-10.498046875,-5.9356689453125,-9.765625
1.2012498999999999,7.467514991760254,-3.507505416870117,5.540182590484619,-8.60595703125,-5.7220458984375,-9.7808837890625
1.2037499,7.467514991760254,-3.507505416870117,5.540182590484619,-8.60595703125,-5.7220458984375,-9.7808837890625
1.2062499,7.467514991760254,-3.490746021270752,5.552153587341309,-6.89697265625,-5.767822265625,-9.6893310546875
1.2087499,7.467514991760254,-3.490746021270752,5.552153587341309,-6.89697265625,-5.767822265625,-9.6893310546875
1.2112498999999999,7.42681360244751,-3.450044631958008,5.559336185455322,-5.5389404296875,-6.134033203125,-9.8876953125
1.2137499,7.42681360244751,-3.450044631958008,5.559336185455322,-5.5389404296875,-6.134033203125,-9.8876953125
1.2162499,7.390900611877441,-3.3925838470458984,5.616796970367432,-4.39453125,-6.2103271484375,-9.9945068359375
1.2187499,7.390900611877441,-3.3925838470458984,5.616796970367432,-4.39453125,-6.2103271484375,-9.9945068359375
1.2212498999999999,7.400477409362793,-3.3901896476745605,5.676652431488037,-2.655029296875,-6.5765380859375,-10.4522705078125
1.2237498999999998,7.400477409362793,-3.3901896476745605,5.676652431488037,-2.655029296875,-6.5765380859375,-10.4522705078125
1.2262499,7.402871608734131,-3.466804027557373,5.674258232116699,-1.068115234375,-6.7138671875,-10.4217529296875
1.2287499,7.402871608734131,-3.466804027557373,5.674258232116699,-1.068115234375,-6.7138671875,-10.4217529296875
1.2312499,7.383718013763428,-3.550601005554199,5.616796970367432,0.0152587890625,-7.2479248046875,-10.650634765625
1.2337498999999998,7.383718013763428,-3.550601005554199,5.616796970367432,0.0152587890625,-7.2479248046875,-10.650634765625
1.2362499,7.383718013763428,-3.579331636428833,5.5760955810546875,0.8697509765625,-7.38525390625,-10.3759765625
1.2387499,7.383718013763428,-3.579331636428833,5.5760955810546875,0.8697509765625,-7.38525390625,-10.3759765625
1.2412499,7.378929615020752,-3.5673606395721436,5.5760955810546875,1.64794921875,-7.75146484375,-10.43701171875
1.2437498999999999,7.378929615020752,-3.5673606395721436,5.5760955810546875,1.64794921875,-7.75146484375,-10.43701171875
1.2462499,7.354987621307373,-3.536235809326172,5.5760955810546875,2.0294189453125,-8.2855224609375,-10.25390625
1.2487499,7.354987621307373,-3.536235809326172,5.5760955810546875,2.0294189453125,-8.2855224609375,-10.25390625
1.2512499,7.340622425079346,-3.488351821899414,5.556941986083984,2.1514892578125,-8.4991455078125,-10.467529296875
1.2537498999999999,7.340622425079346,-3.488351821899414,5.556941986083984,2.1514892578125,-8.4991455078125,-10.467529296875
1.2562499,7.374141216278076,-3.4308910369873047,5.530605792999268,1.77001953125,-8.5601806640625,-10.528564453125
1.2587499,7.374141216278076,-3.4308910369873047,5.530605792999268,1.77001953125,-8.5601806640625,-10.528564453125
1.2612499,7.433996200561523,-3.40216064453125,5.461174011230469,1.7547607421875,-8.2550048828125,-10.55908203125
1.2637498999999999,7.433996200561523,-3.40216064453125,5.461174011230469,1.7547607421875,-8.2550048828125,-10.55908203125
1.2662499,7.469909191131592,-3.397372245788574,5.319916248321533,0.5950927734375,-8.0108642578125,-10.833740234375
1.2687499,7.469909191131592,-3.397372245788574,5.319916248321533,0.5950927734375,-8.0108642578125,-10.833740234375
1.2712499,7.481880187988281,-3.3638534545898438,5.1595048904418945,-0.9613037109375,-7.598876953125,-10.6964111328125
1.2737498999999999,7.481880187988281,-3.3638534545898438,5.1595048904418945,-0.9613037109375,-7.598876953125,-10.6964111328125
1.2762499,7.493851184844971,-3.2992098331451416,5.035006046295166,-2.838134765625,-7.4615478515625,-10.92529296875
1.2787499,7.493851184844971,-3.2992098331451416,5.035006046295166,-2.838134765625,-7.4615478515625,-10.92529296875
1.2812499,7.491456985473633,-3.2345664501190186,4.965574264526367,-5.18798828125,-7.4462890625,-11.383056640625
1.2837498999999999,7.491456985473633,-3.2345664501190186,4.965574264526367,-5.18798828125,-7.4462890625,-11.383056640625
1.2862498999999998,7.467514991760254,-3.1866824626922607,4.955997467041016,-8.4228515625,-7.598876953125,-11.8408203125
1.2887499,7.467514991760254,-3.1866824626922607,4.955997467041016,-8.4228515625,-7.598876953125,-11.8408203125
1.2912499,7.443572998046875,-3.1699230670928955,4.960785865783691,-11.7950439453125,-7.9498291015625,-11.53564453125
1.2937499,7.443572998046875,-3.1699230670928955,4.960785865783691,-11.7950439453125,-7.9498291015625,-11.53564453125
1.2962498999999998,7.443572998046875,-3.1747114658355713,4.9583916664123535,-15.594482421875,-8.1024169921875,-11.23046875
1.2987499,7.443572998046875,-3.1747114658355713,4.9583916664123535,-15.594482421875,-8.1024169921875,-11.23046875
1.3012499,7.46033239364624,-3.1507694721221924,4.955997467041016,-19.9737548828125,-8.30078125,-10.467529296875
1.3037499,7.46033239364624,-3.1507694721221924,4.955997467041016,-19.9737548828125,-8.30078125,-10.467529296875
1.3062498999999999,7.46033239364624,-3.045424461364746,4.941632270812988,-24.688720703125,-8.8348388671875,-9.2010498046875
1.3087499,7.46033239364624,-3.045424461364746,4.941632270812988,-24.688720703125,-8.8348388671875,-9.2010498046875
1.3112499,7.398083209991455,-2.829946517944336,4.972756862640381,-30.82275390625,-9.674072265625,-7.568359375
1.3137499,7.398083209991455,-2.829946517944336,4.972756862640381,-30.82275390625,-9.674072265625,-7.568359375
1.3162498999999999,7.285555839538574,-2.5546131134033203,5.102043628692627,-37.2314453125,-10.0860595703125,-6.805419921875
1.3187499,7.285555839538574,-2.5546131134033203,5.102043628692627,-37.2314453125,-10.0860595703125,-6.805419921875
1.3212499,7.15387487411499,-2.343923568725586,5.243301868438721,-42.48046875,-10.0250244140625,-6.683349609375
1.3237499,7.15387487411499,-2.343923568725586,5.243301868438721,-42.48046875,-10.0250244140625,-6.683349609375
1.3262498999999999,7.0557122230529785,-2.454056739807129,5.1595048904418945,-45.59326171875,-8.8958740234375,-8.3160400390625
1.3287499,7.0557122230529785,-2.454056739807129,5.1595048904418945,-45.59326171875,-8.8958740234375,-8.3160400390625
1.3312499,7.1921820640563965,-2.920926094055176,4.874594688415527,-46.3714599609375,-10.345458984375,-8.270263671875
1.3337499,7.1921820640563965,-2.920926094055176,4.874594688415527,-46.3714599609375,-10.345458984375,-8.270263671875
1.3362498999999999,7.50582218170166,-3.4955344200134277,4.699818134307861,-48.5076904296875,-9.5672607421875,-6.744384765625
1.3387499,7.50582218170166,-3.4955344200134277,4.699818134307861,-48.5076904296875,-9.5672607421875,-6.744384765625
1.3412499,7.625532627105713,-3.914519786834717,4.750096321105957,-48.431396484375,-8.4686279296875,-4.6234130859375
1.3437499,7.625532627105713,-3.914519786834717,4.750096321105957,-48.431396484375,-8.4686279296875,-4.6234130859375
1.3462498999999999,7.5417351722717285,-4.000710964202881,4.879383087158203,-47.7447509765625,-7.32421875,-3.1890869140625
1.3487498999999998,7.5417351722717285,-4.000710964202881,4.879383087158203,-47.7447509765625,-7.32421875,-3.1890869140625
1.3512499,7.532158374786377,-3.8498764038085938,4.920084476470947,-46.844482421875,-6.6375732421875,-2.38037109375
1.3537499,7.532158374786377,-3.8498764038085938,4.920084476470947,-46.844482421875,-6.6375732421875,-2.38037109375
1.3562499,7.630321025848389,-3.7038300037384033,4.867412090301514,-45.0592041015625,-5.55419921875,-2.0904541015625
1.3587498999999998,7.630321025848389,-3.7038300037384033,4.867412090301514,-45.0592041015625,-5.55419921875,-2.0904541015625
1.3612499,7.726089000701904,-3.6942532062530518,4.788403511047363,-43.121337890625,-4.730224609375,-1.861572265625
1.3637499,7.726089000701904,-3.6942532062530518,4.788403511047363,-43.121337890625,-4.730224609375,-1.861572265625
1.3662499,7.762001991271973,-3.8067808151245117,4.752490520477295,-40.252685546875,-3.7384033203125,-1.6021728515625
1.3687498999999999,7.7643961906433105,-3.869029998779297,4.757278919219971,-39.1082763671875,-3.4637451171875,-1.46484375
1.3712499,7.759607791900635,-3.9240965843200684,4.764461517333984,-37.7655029296875,-2.9144287109375,-1.3275146484375
1.3737499,7.757213592529297,-3.952826976776123,4.776432514190674,-36.5142822265625,-2.3040771484375,-1.3275146484375
1.3762499,7.759607791900635,-3.9624037742614746,4.7836151123046875,-35.247802734375,-2.0599365234375,-1.0833740234375
1.3787498999999999,7.762001991271973,-3.9600095748901367,4.788403511047363,-34.271240234375,-1.800537109375,-0.946044921875
1.3812499,7.769184589385986,-3.9432501792907715,4.795586109161377,-33.5540771484375,-1.556396484375,-0.640869140625
1.3837499,7.778761386871338,-3.9169139862060547,4.802768707275391,-33.0657958984375,-1.220703125,-0.3509521484375
1.3862499,7.7883381843566895,-3.8762125968933105,4.812345504760742,-32.3638916015625,-0.4730224609375,-0.3814697265625
1.3887498999999999,7.8098859786987305,-3.8331170082092285,4.817133903503418,-31.829833984375,-0.2593994140625,-0.1983642578125
1.3912499,7.838616371154785,-3.7828385829925537,4.821922302246094,-31.280517578125,-0.030517578125,-0.42724609375
1.3937499,7.8745293617248535,-3.732560396194458,4.821922302246094,-31.0211181640625,0.274658203125,-0.4425048828125
1.3962499,7.931990146636963,-3.6727054119110107,4.833893299102783,-30.94482421875,0.4119873046875,-0.6103515625
1.3987498999999999,7.994239330291748,-3.6080620288848877,4.857835292816162,-30.914306640625,0.6103515625,-0.762939453125
1.4012499,8.068459510803223,-3.533841609954834,4.896142482757568,-31.2957763671875,0.732421875,-0.9918212890625
1.4037499,8.135497093200684,-3.464409828186035,4.93923807144165,-31.463623046875,0.885009765625,-1.495361328125
1.4062499,8.183381080627441,-3.3925838470458984,4.977545261383057,-31.6314697265625,1.2969970703125,-2.1514892578125
1.4087498999999999,8.221688270568848,-3.337517261505127,5.006275653839111,-31.9976806640625,0.9765625,-2.62451171875
1.4112498999999998,8.2312650680542,-3.28963303565979,5.03021764755249,-32.318115234375,1.15966796875,-3.0059814453125
1.4137499,8.238448143005371,-3.2537200450897217,5.049371242523193,-33.172607421875,1.4801025390625,-3.8299560546875
1.4162499,8.243236541748047,-3.2417490482330322,5.056553840637207,-34.2254638671875,1.556396484375,-4.6234130859375
1.4187499,8.2312650680542,-3.2393548488616943,5.051765441894531,-34.9884033203125,1.8157958984375,-5.126953125
1.4212498999999998,8.224082946777344,-3.248931646347046,5.04218864440918,-35.82763671875,1.89208984375,-6.0272216796875
1.4237499,8.212111473083496,-3.265691041946411,5.027823448181152,-36.6973876953125,1.64794921875,-6.9732666015625
1.4262499,8.219294548034668,-3.272873640060425,5.003881454467773,-37.7960205078125,1.739501953125,-7.843017578125
1.4287499,8.236053466796875,-3.28963303565979,4.977545261383057,-38.75732421875,2.0904541015625,-8.72802734375
1.4312498999999999,8.269572257995605,-3.313575267791748,4.93923807144165,-39.5355224609375,2.2125244140625,-9.521484375
1.4337499,8.29830265045166,-3.35667085647583,4.886565685272217,-40.2069091796875,2.593994140625,-10.5743408203125
1.4362499,8.31985092163086,-3.4117374420166016,4.8267107009887695,-40.6646728515625,2.593994140625,-11.3372802734375
1.4387499,8.315062522888184,-3.4763808250427246,4.771644115447998,-40.924072265625,2.410888671875,-12.0849609375
1.4412498999999999,8.29830265045166,-3.5410242080688477,4.728548526763916,-41.93115234375,2.5482177734375,-12.4664306640625
1.4437499,8.267178535461426,-3.600879430770874,4.699818134307861,-42.48046875,2.4566650390625,-12.8936767578125
1.4462499,8.236053466796875,-3.641580820083618,4.69024133682251,-42.5567626953125,2.288818359375,-13.641357421875
1.4487499,8.212111473083496,-3.6727054119110107,4.675876140594482,-43.0755615234375,2.288818359375,-14.09912109375
1.4512498999999999,8.188169479370117,-3.689464807510376,4.668693542480469,-43.15185546875,2.4566650390625,-14.7705078125
1.4537499,8.166622161865234,-3.711012601852417,4.661510944366455,-43.1365966796875,2.5177001953125,-14.9688720703125
1.4562499,8.13789176940918,-3.73016619682312,4.661510944366455,-43.365478515625,2.2430419921875,-15.167236328125
1.4587499,8.109161376953125,-3.7493197917938232,4.668693542480469,-43.609619140625,2.4261474609375,-15.6707763671875
1.4612498999999999,8.094796180725098,-3.758896589279175,4.69024133682251,-43.792724609375,2.4871826171875,-15.9149169921875
1.4637499,8.087613105773926,-3.756502389907837,4.721365928649902,-44.00634765625,2.593994140625,-16.2353515625
1.4662499,8.090007781982422,-3.7445313930511475,4.754884719848633,-43.8385009765625,2.8533935546875,-16.54052734375
1.4687499,8.101978302001953,-3.7253777980804443,4.788403511047363,-43.731689453125,2.6397705078125,-16.7236328125
1.4712498999999999,8.1139497756958,-3.708618402481079,4.817133903503418,-43.7774658203125,2.74658203125,-16.876220703125
1.4737498999999998,8.130708694458008,-3.691859006881714,4.841075897216797,-43.853759765625,2.960205078125,-16.998291015625
1.4762499,8.152256965637207,-3.6727054119110107,4.865017890930176,-43.7469482421875,3.143310546875,-17.0745849609375
1.4787499,8.169015884399414,-3.6559460163116455,4.881777286529541,-43.7469482421875,3.2196044921875,-17.3187255859375
1.4812499,8.17141056060791,-3.627215623855591,4.888959884643555,-43.8995361328125,3.204345703125,-17.547607421875
1.4837498999999998,8.169015884399414,-3.5936968326568604,4.898536682128906,-43.670654296875,3.2196044921875,-17.6544189453125
1.4862499,8.164227485656738,-3.5625722408294678,4.884171485900879,-43.6248779296875,2.899169921875,-17.6849365234375
1.4887499,8.152256965637207,-3.531447410583496,4.867412090301514,-43.792724609375,3.3111572265625,-17.852783203125
1.4912499,8.142680168151855,-3.5194764137268066,4.829104900360107,-43.701171875,3.631591796875,-18.1884765625
1.4937498999999999,8.121131896972656,-3.5170822143554688,4.778826713562012,-43.4112548828125,3.3416748046875,-18.4478759765625
1.4962499,8.092401504516602,-3.5218706130981445,4.728548526763916,-43.5638427734375,3.2196044921875,-18.37158203125
1.4987499,8.063671112060547,-3.5170822143554688,4.683058738708496,-43.731689453125,3.3111572265625,-17.9443359375
1.5012499,8.042123794555664,-3.4979286193847656,4.6471452713012695,-43.9910888671875,3.173828125,-17.9290771484375
1.5037498999999999,8.027758598327637,-3.464409828186035,4.623203277587891,-44.2047119140625,3.143310546875,-17.8375244140625
1.5062499,8.010998725891113,-3.421314239501953,4.608838081359863,-44.6624755859375,2.99072265625,-17.76123046875
1.5087499,7.989450931549072,-3.3638534545898438,4.616020679473877,-45.1812744140625,2.8228759765625,-17.547607421875
1.5112499,7.955932140350342,-3.294421434402466,4.632780075073242,-45.9136962890625,2.8839111328125,-17.547607421875
1.5137498999999999,7.922413349151611,-3.19865345954895,4.675876140594482,-46.7529296875,2.777099609375,-17.6849365234375
1.5162499,7.90086555480957,-3.090914487838745,4.721365928649902,-47.9888916015625,2.6397705078125,-17.6544189453125
1.5187499,7.881711959838867,-2.9903578758239746,4.750096321105957,-49.102783203125,2.960205078125,-18.06640625
1.5212499,7.881711959838867,-2.9089550971984863,4.754884719848633,-49.896240234375,3.173828125,-18.7225341796875
1.5237498999999999,7.876923561096191,-2.8826189041137695,4.72376012802124,-51.1932373046875,3.0059814453125,-18.98193359375
1.5262499,7.86734676361084,-2.9065608978271484,4.675876140594482,-52.4749755859375,3.3111572265625,-18.8751220703125
1.5287499,7.85537576675415,-2.9735984802246094,4.620809078216553,-53.4515380859375,3.570556640625,-18.8446044921875
1.5312499,7.812280178070068,-3.069366693496704,4.580107688903809,-54.26025390625,3.4027099609375,-18.5699462890625
1.5337498999999999,7.7213006019592285,-3.160346269607544,4.548983097076416,-54.718017578125,4.08935546875,-18.463134765625
1.5362499,7.568071365356445,-3.2369606494903564,4.532223701477051,-54.9774169921875,4.94384765625,-18.6004638671875
1.5387499,7.3885064125061035,-3.2848446369171143,4.520252704620361,-55.206298828125,5.462646484375,-19.073486328125
1.5412499,7.273584842681885,-3.3063924312591553,4.49870491027832,-55.48095703125,5.126953125,-19.3023681640625
1.5437499,7.285555839538574,-3.31118106842041,4.477157115936279,-55.5419921875,4.2724609375,-19.287109375
1.5462498999999998,7.422025203704834,-3.337517261505127,4.426878929138184,-56.1676025390625,4.1961669921875,-19.59228515625
1.5487499,7.644686222076416,-3.4141316413879395,4.367023944854736,-56.121826171875,5.2947998046875,-19.9127197265625
1.5512499,7.845798969268799,-3.536235809326172,4.290409564971924,-55.1300048828125,5.06591796875,-20.1263427734375
1.5537499,7.987056732177734,-3.6846764087677,4.2544965744018555,-54.962158203125,3.7078857421875,-20.0042724609375
1.5562498999999999,8.02536392211914,-3.861847400665283,4.2975921630859375,-55.6640625,1.922607421875,-18.1732177734375
1.5587499,7.922413349151611,-4.034229755401611,4.479551315307617,-56.182861328125,1.8463134765625,-16.6473388671875
1.5612499,7.680599212646484,-4.185064792633057,4.7620673179626465,-55.572509765625,3.4942626953125,-16.357421875
1.5637499,7.378929615020752,-4.266467571258545,5.094861030578613,-53.6651611328125,4.4708251953125,-16.1285400390625
1.5662498999999999,7.144298076629639,-4.23773717880249,5.363011837005615,-51.483154296875,3.9215087890625,-16.3116455078125
1.5687499,7.091625213623047,-4.106055736541748,5.513846397399902,-49.9420166015625,2.471923828125,-17.0135498046875
1.5712499,7.2568254470825195,-3.957615375518799,5.521028995513916,-49.25537109375,1.251220703125,-17.51708984375
1.5737499,7.546523571014404,-3.885789394378662,5.461174011230469,-48.8128662109375,0.6561279296875,-17.2576904296875
1.5762498999999999,7.8098859786987305,-3.952826976776123,5.396530628204346,-47.7752685546875,-0.091552734375,-16.6015625
1.5787499,7.922413349151611,-4.141968727111816,5.408501625061035,-46.3104248046875,-0.213623046875,-15.899658203125
1.5812499,7.848193168640137,-4.388571739196777,5.497087001800537,-44.1131591796875,-0.152587890625,-14.7857666015625
1.5837499,7.630321025848389,-4.611232280731201,5.643133640289307,-41.2750244140625,-0.2288818359375,-13.824462890625
1.5862498999999999,7.3693528175354,-4.747702121734619,5.791574001312256,-37.78076171875,-0.2288818359375,-13.36669921875
1.5887499,7.173028469085693,-4.778826713562012,5.882553577423096,-34.5001220703125,-0.213623046875,-13.3514404296875
1.5912499,7.101202011108398,-4.7405195236206055,5.889736175537109,-31.4788818359375,-0.30517578125,-13.458251953125
1.5937499,7.15387487411499,-4.6734819412231445,5.822698593139648,-28.3660888671875,-0.8087158203125,-13.397216796875
1.5962498999999999,7.273584842681885,-4.639962673187256,5.702988624572754,-25.0396728515625,-1.3427734375,-13.4429931640625
1.5987499,7.398083209991455,-4.666299343109131,5.583278179168701,-21.7132568359375,-1.5411376953125,-13.2293701171875
1.6012499,7.465120792388916,-4.750096321105957,5.509057998657227,-18.2037353515625,-1.7242431640625,-12.75634765625
1.6037499,7.469909191131592,-4.8602294921875,5.477933406829834,-14.1754150390625,-1.9683837890625,-12.176513671875
1.6062499,7.429207801818848,-4.965574264526367,5.494692802429199,-10.1318359375,-1.922607421875,-11.474609375
1.6087498999999998,7.383718013763428,-5.023035049438477,5.52821159362793,-6.16455078125,-1.9683837890625,-10.9710693359375
1.6112499,7.364564418792725,-5.027823448181152,5.544970989227295,-2.50244140625,-1.6937255859375,-10.43701171875
1.6137499,7.383718013763428,-4.972756862640381,5.537788391113281,0.9918212890625,-1.28173828125,-10.25390625
1.6162499,7.4316020011901855,-4.862623691558838,5.499481201171875,4.241943359375,-1.007080078125,-9.9334716796875
1.6187498999999999,7.493851184844971,-4.7189717292785645,5.4252610206604,6.7138671875,-0.701904296875,-9.3994140625
1.6212499,7.556100368499756,-4.548983097076416,5.3342814445495605,8.85009765625,-0.1373291015625,-9.2926025390625
1.6237499,7.603984832763672,-4.364629745483398,5.233725070953369,10.650634765625,0.1678466796875,-8.819580078125
1.6262499,7.65186882019043,-4.170699596405029,5.125985622406006,11.749267578125,0.42724609375,-8.7432861328125
1.6287498999999999,7.690176010131836,-3.974374771118164,5.018246650695801,12.51220703125,0.885009765625,-8.8653564453125
1.6312499,7.73087739944458,-3.7900211811065674,4.912901878356934,12.8326416015625,1.3275146484375,-9.063720703125
1.6337499,7.7763671875,-3.622427225112915,4.800374507904053,12.664794921875,1.9378662109375,-9.2926025390625
1.6362499,7.817068576812744,-3.4811692237854004,4.692635536193848,12.298583984375,2.7008056640625,-9.3994140625
1.6387498999999999,7.850587368011475,-3.3662476539611816,4.577713489532471,11.688232421875,3.1280517578125,-9.8876953125
1.6412499,7.879317760467529,-3.2848446369171143,4.462791919708252,10.772705078125,3.814697265625,-10.2081298828125
1.6437499,7.898471355438232,-3.2345664501190186,4.347870349884033,10.0250244140625,3.96728515625,-10.6048583984375
1.6462499,7.915230751037598,-3.220201253890991,4.242525577545166,8.97216796875,4.5318603515625,-10.8642578125
1.6487498999999999,7.929595947265625,-3.2321722507476807,4.151545524597168,8.056640625,5.2032470703125,-11.0931396484375
1.6512499,7.939172744750977,-3.268085241317749,4.0749311447143555,7.0037841796875,5.615234375,-11.3067626953125
1.6537499,7.936778545379639,-3.3231520652770996,4.017470359802246,6.5460205078125,6.317138671875,-11.260986328125
1.6562499,7.924807548522949,-3.3949780464172363,3.97916316986084,6.103515625,6.622314453125,-11.3525390625
1.6587498999999999,7.903259754180908,-3.4763808250427246,3.9647979736328125,5.9356689453125,6.9732666015625,-11.383056640625
1.6612499,7.876923561096191,-3.557783842086792,3.97916316986084,6.103515625,7.14111328125,-11.16943359375
1.6637499,7.845798969268799,-3.6367924213409424,4.017470359802246,6.2713623046875,7.5225830078125,-10.8795166015625
1.6662499,7.817068576812744,-3.6990416049957275,4.0749311447143555,6.7596435546875,8.0108642578125,-10.4522705078125
1.6687499,7.790732383728027,-3.7493197917938232,4.132391929626465,7.1563720703125,8.3465576171875,-10.1318359375
1.6712498999999998,7.7643961906433105,-3.77565598487854,4.19224739074707,7.965087890625,8.697509765625,-9.6282958984375
1.6737499,7.7428483963012695,-3.7924153804779053,4.242525577545166,8.941650390625,9.0179443359375,-9.0789794921875
1.6762499,7.714118003845215,-3.7876269817352295,4.290409564971924,9.6435546875,9.2620849609375,-8.72802734375
1.6787499,7.687781810760498,-3.773261785507202,4.333505153656006,10.833740234375,9.5062255859375,-8.1939697265625
1.6812498999999999,7.661445617675781,-3.7493197917938232,4.376600742340088,11.7950439453125,9.6588134765625,-7.537841796875
1.6837499,7.642292022705078,-3.7229835987091064,4.417302131652832,12.725830078125,9.70458984375,-7.0343017578125
1.6862499,7.630321025848389,-3.7014358043670654,4.458003520965576,13.427734375,10.1776123046875,-6.5765380859375
1.6887499,7.625532627105713,-3.689464807510376,4.501099109649658,14.190673828125,10.2691650390625,-6.2713623046875
1.6912498999999999,7.625532627105713,-3.689464807510376,4.5394062995910645,14.83154296875,10.0555419921875,-5.9356689453125
1.6937499,7.620744228363037,-3.7014358043670654,4.570530891418457,15.44189453125,10.406494140625,-5.37109375
1.6962499,7.6111674308776855,-3.711012601852417,4.592078685760498,15.9759521484375,10.6048583984375,-4.8675537109375
1.6987499,7.5968017578125,-3.7181951999664307,4.599261283874512,16.448974609375,10.55908203125,-4.2724609375
1.7012498999999999,7.587224960327148,-3.713406801223755,4.592078685760498,16.78466796875,10.6048583984375,-3.936767578125
1.7037499,7.577648162841797,-3.7014358043670654,4.580107688903809,16.8609619140625,10.6353759765625,-3.47900390625
1.7062499,7.582436561584473,-3.6774938106536865,4.5609540939331055,17.0135498046875,10.80322265625,-3.2806396484375
1.7087499,7.5848307609558105,-3.6559460163116455,4.54419469833374,17.0745849609375,10.8642578125,-2.9449462890625
1.7112498999999999,7.587224960327148,-3.6367924213409424,4.532223701477051,16.6778564453125,10.6964111328125,-3.0364990234375
1.7137499,7.577648162841797,-3.6320040225982666,4.532223701477051,15.9759521484375,10.7879638671875,-3.2196044921875
1.7162499,7.565677165985107,-3.643975019454956,4.5394062995910645,15.5487060546875,10.6201171875,-3.0670166015625
1.7187499,7.55131196975708,-3.6607344150543213,4.55616569519043,15.3350830078125,10.772705078125,-2.62451171875
1.7212498999999999,7.539340972900391,-3.6846764087677,4.575319290161133,14.312744140625,10.5743408203125,-2.5787353515625
1.7237499,7.532158374786377,-3.691859006881714,4.60165548324585,13.2598876953125,10.498046875,-2.44140625
1.7262499,7.5201873779296875,-3.6846764087677,4.637568473815918,12.054443359375,10.6048583984375,-2.2735595703125
1.7287499,7.503427982330322,-3.6535518169403076,4.6734819412231445,10.4522705078125,10.43701171875,-2.0294189453125
1.7312499,7.486668586730957,-3.6080620288848877,4.709394931793213,9.124755859375,10.2691650390625,-1.7547607421875
1.7337498999999998,7.469909191131592,-3.552995204925537,4.745307922363281,8.11767578125,10.1165771484375,-1.64794921875
1.7362499,7.465120792388916,-3.5051112174987793,4.76924991607666,6.9427490234375,9.9029541015625,-1.5869140625
1.7387499,7.474697589874268,-3.4739866256713867,4.793191909790039,5.950927734375,9.5977783203125,-1.6021728515625
1.7412499,7.491456985473633,-3.4596214294433594,4.81473970413208,5.218505859375,9.246826171875,-1.52587890625
1.7437498999999999,7.513004779815674,-3.466804027557373,4.841075897216797,4.5318603515625,9.0484619140625,-1.4801025390625
1.7462499,7.532158374786377,-3.490746021270752,4.862623691558838,4.058837890625,9.002685546875,-1.6021728515625
1.7487499,7.548917770385742,-3.5266590118408203,4.881777286529541,3.753662109375,8.758544921875,-1.3580322265625
1.7512499,7.568071365356445,-3.5673606395721436,4.8937482833862305,3.23486328125,8.514404296875,-1.2969970703125
1.7537498999999999,7.589619159698486,-3.603273630142212,4.90571928024292,2.8228759765625,8.3465576171875,-1.1138916015625
1.7562499,7.620744228363037,-3.6320040225982666,4.900930881500244,2.5634765625,8.1024169921875,-0.91552734375
1.7587499,7.649474620819092,-3.646369218826294,4.903325080871582,2.1514892578125,8.0413818359375,-0.9613037109375
1.7612499,7.680599212646484,-3.6511576175689697,4.891354084014893,1.800537109375,8.0413818359375,-0.946044921875
1.7637498999999999,7.6997528076171875,-3.648763418197632,4.884171485900879,1.6021728515625,7.598876953125,-0.9002685546875
1.7662499,7.711723804473877,-3.641580820083618,4.874594688415527,1.312255859375,7.6446533203125,-0.6866455078125
1.7687499,7.7213006019592285,-3.627215623855591,4.865017890930176,1.220703125,7.8277587890625,-0.701904296875
1.7712499,7.723694801330566,-3.6128504276275635,4.857835292816162,0.9613037109375,7.781982421875,-0.7476806640625
1.7737498999999999,7.733271598815918,-3.5936968326568604,4.857835292816162,0.8697509765625,7.7362060546875,-0.5645751953125
1.7762499,7.7428483963012695,-3.5721490383148193,4.867412090301514,0.518798828125,7.26318359375,-0.762939453125
1.7787499,7.752425193786621,-3.550601005554199,4.884171485900879,0.3814697265625,6.9122314453125,-0.9307861328125
1.7812499,7.7643961906433105,-3.536235809326172,4.920084476470947,-0.0457763671875,6.7901611328125,-1.28173828125
1.7837498999999999,7.781155586242676,-3.533841609954834,4.960785865783691,-0.42724609375,6.6375732421875,-1.4801025390625
1.7862499,7.797914981842041,-3.5482068061828613,5.006275653839111,-0.6561279296875,6.5460205078125,-1.4495849609375
1.7887499,7.819462776184082,-3.579331636428833,5.049371242523193,-0.8392333984375,6.3629150390625,-1.556396484375
1.7912499,7.843404769897461,-3.6152446269989014,5.085284233093262,-0.7476806640625,6.256103515625,-1.64794921875
1.7937499,7.876923561096191,-3.648763418197632,5.116408824920654,-0.9765625,6.317138671875,-1.5411376953125
1.7962498999999998,7.91283655166626,-3.6727054119110107,5.140350818634033,-1.1444091796875,6.3629150390625,-1.28173828125
1.7987499,7.951143741607666,-3.6798880100250244,5.1595048904418945,-1.220703125,6.0577392578125,-1.4495849609375
1.8012499,7.977479934692383,-3.663128614425659,5.16429328918457,-1.312255859375,5.7830810546875,-1.4495849609375
1.8037499,7.99184513092041,-3.6296098232269287,5.161899089813232,-1.2054443359375,5.9356689453125,-1.4190673828125
1.8062498999999999,7.994239330291748,-3.579331636428833,5.154716491699219,-1.1444091796875,5.7373046875,-1.3885498046875
1.8087499,7.99184513092041,-3.5242648124694824,5.152322292327881,-1.2359619140625,5.2642822265625,-1.3275146484375
1.8112499,7.996633529663086,-3.469198226928711,5.157110691070557,-1.1138916015625,5.2642822265625,-1.5411376953125
1.8137499,8.006210327148438,-3.426102638244629,5.16429328918457,-1.2359619140625,4.8370361328125,-1.678466796875
1.8162498999999999,8.018181800842285,-3.399766445159912,5.17626428604126,-0.9307861328125,4.608154296875,-1.64794921875
1.8187499,8.030152320861816,-3.3901896476745605,5.178658485412598,-0.6103515625,4.364013671875,-1.708984375
1.8212499,8.032546997070312,-3.40216064453125,5.17626428604126,-0.396728515625,4.150390625,-1.5869140625
1.8237499,8.02536392211914,-3.423708438873291,5.1595048904418945,-0.42724609375,4.1046142578125,-1.556396484375
1.8262498999999999,8.015787124633789,-3.4572272300720215,5.149928092956543,-0.2288818359375,4.0130615234375,-1.434326171875
1.8287499,7.99184513092041,-3.4835634231567383,5.140350818634033,-0.274658203125,3.753662109375,-1.312255859375
1.8312499,7.972691535949707,-3.512293815612793,5.1331682205200195,0.18310546875,3.5247802734375,-1.15966796875
1.8337499,7.951143741607666,-3.5218706130981445,5.125985622406006,0.732421875,3.3721923828125,-0.946044921875
1.8362498999999999,7.931990146636963,-3.5194764137268066,5.123591423034668,1.3885498046875,3.2196044921875,-0.6561279296875
1.8387499,7.920019149780273,-3.5051112174987793,5.116408824920654,2.01416015625,2.7313232421875,-0.6256103515625
1.8412499,7.910442352294922,-3.4787750244140625,5.1116204261779785,2.593994140625,2.471923828125,-0.5950927734375
1.8437499,7.905653953552246,-3.442862033843994,5.109226226806641,3.23486328125,2.0751953125,-0.1983642578125
1.8462498999999999,7.910442352294922,-3.40216064453125,5.106832027435303,3.7078857421875,2.01416015625,-0.1678466796875
1.8487499,7.915230751037598,-3.3494882583618164,5.104437828063965,3.90625,1.3580322265625,-0.030517578125
1.8512499,7.920019149780273,-3.2992098331451416,5.104437828063965,3.9825439453125,1.2664794921875,-0.396728515625
1.8537499,7.922413349151611,-3.2561142444610596,5.102043628692627,3.9520263671875,0.5340576171875,-0.5340576171875
1.8562499,7.915230751037598,-3.2321722507476807,5.106832027435303,3.936767578125,0,-0.701904296875
1.8587498999999998,7.905653953552246,-3.2393548488616943,5.109226226806641,3.7078857421875,-0.3204345703125,-1.03759765625
1.8612499,7.891288757324219,-3.270479440689087,5.114014625549316,3.326416015625,-0.701904296875,-1.3885498046875
1.8637499,7.8745293617248535,-3.332728862762451,5.114014625549316,2.655029296875,-1.03759765625,-1.6937255859375
1.8662499,7.857769966125488,-3.406949043273926,5.102043628692627,2.50244140625,-1.373291015625,-1.8310546875
1.8687498999999999,7.836222171783447,-3.485957622528076,5.0876784324646,1.89208984375,-1.708984375,-2.01416015625
1.8712499,7.826645374298096,-3.5649664402008057,5.063736438751221,1.312255859375,-2.044677734375,-2.2125244140625
1.8737499,7.814674377441406,-3.6296098232269287,5.032611846923828,0.8697509765625,-2.38037109375,-2.410888671875
1.8762499,7.819462776184082,-3.6798880100250244,5.0014872550964355,0.1983642578125,-2.4566650390625,-2.74658203125
1.8787498999999999,7.826645374298096,-3.711012601852417,4.965574264526367,-0.3662109375,-2.7923583984375,-2.8533935546875
1.8812499,7.843404769897461,-3.73016619682312,4.929661273956299,-1.007080078125,-2.99072265625,-3.2196044921875
1.8837499,7.85537576675415,-3.737348794937134,4.8937482833862305,-1.5869140625,-3.143310546875,-3.753662109375
1.8862499,7.864952564239502,-3.7445313930511475,4.857835292816162,-2.1514892578125,-3.2196044921875,-3.8604736328125
1.8887498999999999,7.86734676361084,-3.7493197917938232,4.824316501617432,-3.021240234375,-3.3416748046875,-4.0283203125
1.8912499,7.862558364868164,-3.7612907886505127,4.788403511047363,-3.936767578125,-3.47900390625,-4.4403076171875
1.8937499,7.860164165496826,-3.778050184249878,4.759673118591309,-4.8675537109375,-3.5247802734375,-4.669189453125
1.8962499,7.857769966125488,-3.799597978591919,4.733336925506592,-5.7525634765625,-3.6163330078125,-4.608154296875
1.8987498999999999,7.860164165496826,-3.818751811981201,4.716577529907227,-6.439208984375,-3.692626953125,-4.8065185546875
1.9012499,7.862558364868164,-3.840299606323242,4.699818134307861,-7.110595703125,-3.6773681640625,-4.9591064453125
1.9037499,7.872135162353516,-3.8546648025512695,4.683058738708496,-7.4005126953125,-3.692626953125,-4.974365234375
1.9062499,7.879317760467529,-3.8522706031799316,4.668693542480469,-7.720947265625,-3.8299560546875,-4.6539306640625
1.9087498999999999,7.884106159210205,-3.8379054069519043,4.659116744995117,-8.11767578125,-3.7841796875,-4.6844482421875
1.9112499,7.881711959838867,-3.801992416381836,4.659116744995117,-8.270263671875,-3.7994384765625,-4.608154296875
1.9137499,7.879317760467529,-3.7469255924224854,4.6734819412231445,-8.3770751953125,-3.7994384765625,-4.4403076171875
1.9162499,7.8745293617248535,-3.6846764087677,4.69024133682251,-8.331298828125,-3.814697265625,-4.21142578125
1.9187499,7.869740962982178,-3.6176388263702393,4.714183330535889,-8.056640625,-3.90625,-3.7689208984375
1.9212498999999998,7.860164165496826,-3.56017804145813,4.73573112487793,-7.7667236328125,-4.0130615234375,-3.23486328125
1.9237499,7.845798969268799,-3.5218706130981445,4.757278919219971,-7.3089599609375,-3.936767578125,-2.7923583984375
1.9262499,7.826645374298096,-3.5051112174987793,4.774038314819336,-6.6375732421875,-3.9825439453125,-2.3040771484375
1.9287499,7.797914981842041,-3.509899616241455,4.786009311676025,-5.828857421875,-3.875732421875,-1.7242431640625
1.9312498999999999,7.7763671875,-3.531447410583496,4.788403511047363,-4.7454833984375,-4.0130615234375,-0.946044921875
1.9337499,7.757213592529297,-3.557783842086792,4.7836151123046875,-3.6773681640625,-4.0283203125,-0.48828125
1.9362499,7.752425193786621,-3.581725835800171,4.771644115447998,-2.5787353515625,-3.9215087890625,0.18310546875
1.9387499,7.750030994415283,-3.5960910320281982,4.754884719848633,-1.40380859375,-3.90625,1.0833740234375
1.9412498999999999,7.757213592529297,-3.584120035171509,4.730942726135254,-0.3204345703125,-3.662109375,1.5716552734375
1.9437499,7.762001991271973,-3.56017804145813,4.702212333679199,0.79345703125,-3.5858154296875,2.1514892578125
1.9462499,7.754819393157959,-3.5242648124694824,4.683058738708496,1.6326904296875,-3.5552978515625,2.5787353515625
1.9487499,7.745242595672607,-3.4835634231567383,4.680664539337158,2.3345947265625,-3.4637451171875,3.23486328125
1.9512498999999999,7.738059997558594,-3.4524388313293457,4.685452938079834,3.021240234375,-3.1890869140625,3.7841796875
1.9537499,7.73087739944458,-3.426102638244629,4.702212333679199,3.7841796875,-3.143310546875,4.08935546875
1.9562499,7.73087739944458,-3.4141316413879395,4.711789131164551,4.241943359375,-3.2806396484375,4.2877197265625
1.9587499,7.733271598815918,-3.4093432426452637,4.7189717292785645,4.852294921875,-2.838134765625,4.7149658203125
1.9612498999999999,7.733271598815918,-3.4165258407592773,4.716577529907227,5.2642822265625,-2.685546875,4.69970703125
1.9637499,7.73087739944458,-3.423708438873291,4.716577529907227,5.37109375,-2.5787353515625,4.7149658203125
1.9662499,7.735665798187256,-3.4356794357299805,4.711789131164551,5.4931640625,-2.197265625,4.730224609375
1.9687499,7.735665798187256,-3.450044631958008,4.709394931793213,5.6610107421875,-2.197265625,4.913330078125
1.9712498999999999,7.747636795043945,-3.464409828186035,4.707000732421875,5.8135986328125,-2.166748046875,5.157470703125
1.9737499,7.754819393157959,-3.490746021270752,4.707000732421875,5.584716796875,-1.6021728515625,5.2490234375
1.9762499,7.771578788757324,-3.514688014984131,4.711789131164551,5.4931640625,-1.617431640625,5.126953125
1.9787499,7.793126583099365,-3.5410242080688477,4.7189717292785645,5.401611328125,-1.5716552734375,5.645751953125
1.9812499,7.817068576812744,-3.557783842086792,4.730942726135254,5.157470703125,-1.3275146484375,5.584716796875
1.9837499,7.845798969268799,-3.5697548389434814,4.738125324249268,4.7760009765625,-0.8544921875,5.2337646484375
1.9862499,7.872135162353516,-3.5745432376861572,4.7405195236206055,4.4097900390625,-0.6103515625,5.279541015625
1.9887499,7.903259754180908,-3.5721490383148193,4.728548526763916,3.90625,-0.5645751953125,5.2337646484375
1.9912499,7.927201747894287,-3.56017804145813,4.711789131164551,3.448486328125,-0.2899169921875,5.279541015625
1.9937498999999999,7.953537940979004,-3.5410242080688477,4.67827033996582,2.777099609375,0.091552734375,5.1727294921875
1.9962499,7.967903137207031,-3.5242648124694824,4.639962673187256,2.13623046875,0.3204345703125,4.8980712890625
1.9987499,7.979874134063721,-3.5170822143554688,4.60165548324585,1.5411376953125,0.4730224609375,4.852294921875
2.0012499,7.9846625328063965,-3.5218706130981445,4.570530891418457,1.068115234375,0.4119873046875,4.7760009765625
2.0037499,7.989450931549072,-3.5434184074401855,4.558559894561768,0.4730224609375,0.42724609375,4.5013427734375
2.0062499,7.994239330291748,-3.5697548389434814,4.563348293304443,0.2288818359375,0.79345703125,4.6844482421875
2.0087498999999998,7.999027729034424,-3.6104562282562256,4.575319290161133,0.0762939453125,0.823974609375,4.8370361328125
2.0112499,7.999027729034424,-3.6607344150543213,4.58968448638916,0.1068115234375,0.946044921875,4.913330078125
2.0137499,8.001421928405762,-3.711012601852417,4.6040496826171875,0.579833984375,1.190185546875,4.82177734375
2.0162499,8.010998725891113,-3.7612907886505127,4.620809078216553,1.1138916015625,1.4801025390625,5.2642822265625
2.0187499,8.032546997070312,-3.794809579849243,4.632780075073242,1.3885498046875,1.5716552734375,5.5389404296875
2.0212499,8.063671112060547,-3.8163576126098633,4.649539470672607,1.983642578125,1.9683837890625,5.7830810546875
2.0237499,8.10437297821045,-3.8163576126098633,4.654327869415283,2.7313232421875,2.0751953125,5.9967041015625
2.0262499,8.142680168151855,-3.8067808151245117,4.644751071929932,3.3416748046875,2.3040771484375,6.2103271484375
2.0287498999999998,8.17141056060791,-3.7876269817352295,4.6255974769592285,3.753662109375,2.6702880859375,6.4697265625
2.0312499,8.190564155578613,-3.756502389907837,4.599261283874512,4.39453125,2.685546875,6.8206787109375
2.0337499,8.192957878112793,-3.7277719974517822,4.5825018882751465,4.974365234375,2.5482177734375,7.171630859375
2.0362499,8.188169479370117,-3.706224203109741,4.577713489532471,5.6610107421875,2.899169921875,7.4615478515625
2.0387499,8.178592681884766,-3.687070608139038,4.584896087646484,6.5460205078125,3.0364990234375,7.7056884765625
2.0412499,8.180987358093262,-3.6798880100250244,4.599261283874512,7.4310302734375,2.7618408203125,8.026123046875
2.0437499,8.188169479370117,-3.6774938106536865,4.611232280731201,8.1787109375,2.960205078125,8.4686279296875
2.0462499,8.202534675598145,-3.6846764087677,4.627991676330566,9.0484619140625,3.0670166015625,8.7432861328125
2.0487499,8.216899871826172,-3.6990416049957275,4.637568473815918,10.07080078125,3.0670166015625,9.21630859375
2.0512498999999997,8.226476669311523,-3.713406801223755,4.6471452713012695,10.8489990234375,3.1585693359375,9.674072265625
2.0537499,8.238448143005371,-3.7253777980804443,4.649539470672607,11.65771484375,3.3721923828125,10.0555419921875
2.0562499,8.248024940490723,-3.7181951999664307,4.637568473815918,11.90185546875,3.6163330078125,10.25390625
2.0587499,8.267178535461426,-3.687070608139038,4.618414878845215,12.115478515625,3.6773681640625,10.25390625
2.0612499,8.281543731689453,-3.641580820083618,4.58968448638916,12.3748779296875,3.8909912109375,10.345458984375
2.0637499,8.29590892791748,-3.584120035171509,4.565742492675781,12.2528076171875,3.814697265625,10.101318359375
2.0662499,8.303091049194336,-3.533841609954834,4.546588897705078,12.1917724609375,3.8909912109375,9.8724365234375
2.0687499,8.307879447937012,-3.5051112174987793,4.537012100219727,11.8408203125,3.72314453125,9.6588134765625
2.0712498999999998,8.305485725402832,-3.5003228187561035,4.529829502105713,11.41357421875,3.7689208984375,9.2315673828125
2.0737499,8.300697326660156,-3.514688014984131,4.532223701477051,10.8795166015625,3.814697265625,8.6669921875
2.0762499,8.286332130432129,-3.557783842086792,4.537012100219727,10.345458984375,3.8299560546875,8.3770751953125
2.0787499,8.26478385925293,-3.603273630142212,4.541800498962402,9.5672607421875,3.84521484375,7.9345703125
2.0812499,8.2312650680542,-3.663128614425659,4.541800498962402,8.60595703125,3.7384033203125,7.3394775390625
2.0837499,8.192957878112793,-3.7158010005950928,4.534617900848389,7.720947265625,3.84521484375,7.049560546875
2.0862499,8.154650688171387,-3.7636849880218506,4.517858505249023,6.7291259765625,3.7384033203125,6.591796875
2.0887499,8.111555099487305,-3.8067808151245117,4.4939165115356445,5.6915283203125,3.814697265625,6.0272216796875
2.0912498999999998,8.073247909545898,-3.8379054069519043,4.474762916564941,4.21142578125,3.692626953125,5.279541015625
2.0937499,8.039729118347168,-3.866635799407959,4.455609321594238,2.838134765625,3.60107421875,4.913330078125
2.0962499,8.003816604614258,-3.885789394378662,4.448426723480225,1.556396484375,3.6773681640625,4.4708251953125
2.0987499,7.967903137207031,-3.9049429893493652,4.455609321594238,0.213623046875,3.7841796875,4.08935546875
2.1012499,7.927201747894287,-3.9193081855773926,4.467580318450928,-1.251220703125,3.662109375,3.5552978515625
2.1037499,7.8745293617248535,-3.928884983062744,4.501099109649658,-2.899169921875,3.5552978515625,2.9449462890625
2.1062499,7.817068576812744,-3.936067581176758,4.541800498962402,-4.2877197265625,3.631591796875,2.6397705078125
2.1087499,7.762001991271973,-3.9384617805480957,4.58968448638916,-5.859375,3.570556640625,2.44140625
2.1112499,7.709329605102539,-3.928884983062744,4.63517427444458,-7.01904296875,3.173828125,1.9378662109375
2.1137498999999997,7.6566572189331055,-3.9193081855773926,4.680664539337158,-8.2855224609375,2.99072265625,1.7852783203125
2.1162499,7.603984832763672,-3.9025487899780273,4.714183330535889,-9.8876953125,3.0059814453125,1.52587890625
2.1187499,7.556100368499756,-3.892971992492676,4.747702121734619,-11.1846923828125,2.74658203125,1.1138916015625
2.1212499,7.462726593017578,-3.8810009956359863,4.76924991607666,-13.458251953125,2.3040771484375,1.0833740234375
2.1237499,7.462726593017578,-3.8810009956359863,4.76924991607666,-13.458251953125,2.3040771484375,1.0833740234375
2.1262499,7.383718013763428,-3.8714241981506348,4.757278919219971,-15.899658203125,2.227783203125,0.8544921875
2.1287499,7.383718013763428,-3.8714241981506348,4.757278919219971,-15.899658203125,2.227783203125,0.8544921875
2.1312499,7.314286231994629,-3.861847400665283,4.750096321105957,-18.218994140625,1.7852783203125,0.9307861328125
2.1337498999999998,7.314286231994629,-3.861847400665283,4.750096321105957,-18.218994140625,1.7852783203125,0.9307861328125
2.1362499,7.242460250854492,-3.8570590019226074,4.764461517333984,-21.2554931640625,1.3885498046875,1.129150390625
2.1387499,7.242460250854492,-3.8570590019226074,4.764461517333984,-21.2554931640625,1.3885498046875,1.129150390625
2.1412499,7.139509677886963,-3.8786067962646484,4.797980308532715,-23.0560302734375,1.1749267578125,1.1138916015625
2.1437499,7.139509677886963,-3.8786067962646484,4.797980308532715,-23.0560302734375,1.1749267578125,1.1138916015625
2.1462499,7.007828235626221,-3.93367338180542,4.841075897216797,-24.658203125,1.0833740234375,1.3580322265625
2.1487499,7.007828235626221,-3.93367338180542,4.841075897216797,-24.658203125,1.0833740234375,1.3580322265625
2.1512499,6.959944248199463,-4.019864559173584,4.884171485900879,-24.5819091796875,0.9002685546875,1.800537109375
2.1537498999999998,6.959944248199463,-4.019864559173584,4.884171485900879,-24.5819091796875,0.9002685546875,1.800537109375
2.1562499,7.115567684173584,-4.072536945343018,4.917690277099609,-24.6429443359375,0.701904296875,2.4261474609375
2.1587499,7.115567684173584,-4.072536945343018,4.917690277099609,-24.6429443359375,0.701904296875,2.4261474609375
2.1612499,7.292738437652588,-4.031835556030273,4.965574264526367,-25.4974365234375,1.03759765625,2.899169921875
2.1637499,7.292738437652588,-4.031835556030273,4.965574264526367,-25.4974365234375,1.03759765625,2.899169921875
2.1662499,7.307103633880615,-3.93367338180542,5.044582843780518,-25.87890625,0.946044921875,3.2196044921875
2.1687499,7.307103633880615,-3.93367338180542,5.044582843780518,-25.87890625,0.946044921875,3.2196044921875
2.1712499,7.252037048339844,-3.8163576126098633,5.128379821777344,-26.275634765625,1.0223388671875,2.8076171875
2.1737499,7.252037048339844,-3.8163576126098633,5.128379821777344,-26.275634765625,1.0223388671875,2.8076171875
2.1762499,7.19936466217041,-3.7445313930511475,5.188235282897949,-26.85546875,0.701904296875,2.0751953125
2.1787499,7.19936466217041,-3.7445313930511475,5.188235282897949,-26.85546875,0.701904296875,2.0751953125
2.1812499,7.12035608291626,-3.7876269817352295,5.233725070953369,-27.2216796875,0.4425048828125,1.6632080078125
2.1837499,7.12035608291626,-3.7876269817352295,5.233725070953369,-27.2216796875,0.4425048828125,1.6632080078125
2.1862499,7.058106422424316,-3.9193081855773926,5.305551052093506,-26.763916015625,-0.2593994140625,1.1749267578125
2.1887499,7.058106422424316,-3.9193081855773926,5.305551052093506,-26.763916015625,-0.2593994140625,1.1749267578125
2.1912499,7.022193431854248,-3.995922565460205,5.39174222946167,-26.55029296875,-0.7171630859375,-0.213623046875
2.1937499,7.022193431854248,-3.995922565460205,5.39174222946167,-26.55029296875,-0.7171630859375,-0.213623046875
2.1962498999999998,6.900089263916016,-4.05817174911499,5.461174011230469,-26.1993408203125,-0.91552734375,-0.5035400390625
2.1987499,6.900089263916016,-4.05817174911499,5.461174011230469,-26.1993408203125,-0.91552734375,-0.5035400390625
2.2012499,6.845022678375244,-4.127603530883789,5.506663799285889,-25.5279541015625,-1.7547607421875,-0.885009765625
2.2037499,6.845022678375244,-4.127603530883789,5.506663799285889,-25.5279541015625,-1.7547607421875,-0.885009765625
2.2062499,6.885724067687988,-4.084507942199707,5.523423194885254,-25.390625,-2.4871826171875,0.3814697265625
2.2087499,6.885724067687988,-4.084507942199707,5.523423194885254,-25.390625,-2.4871826171875,0.3814697265625
2.2112499,6.818686485290527,-3.8810009956359863,5.5329999923706055,-25.543212890625,-2.5634765625,-0.335693359375
2.2137499,6.818686485290527,-3.8810009956359863,5.5329999923706055,-25.543212890625,-2.5634765625,-0.335693359375
2.2162498999999998,6.710947513580322,-3.6296098232269287,5.499481201171875,-25.8941650390625,-2.5787353515625,-1.52587890625
2.2187499,6.710947513580322,-3.6296098232269287,5.499481201171875,-25.8941650390625,-2.5787353515625,-1.52587890625
2.2212499,6.756437301635742,-3.5889084339141846,5.365406036376953,-25.1007080078125,-2.50244140625,-2.8228759765625
2.2237499,6.756437301635742,-3.5889084339141846,5.365406036376953,-25.1007080078125,-2.50244140625,-2.8228759765625
2.2262499,6.950367450714111,-3.93367338180542,5.130774021148682,-23.3306884765625,-3.0670166015625,-3.7994384765625
2.2287499,6.950367450714111,-3.93367338180542,5.130774021148682,-23.3306884765625,-3.0670166015625,-3.7994384765625
2.2312499,6.931213855743408,-4.606443881988525,4.98472785949707,-15.655517578125,-4.2877197265625,-4.8828125
2.2337499,6.931213855743408,-4.606443881988525,4.98472785949707,-15.655517578125,-4.2877197265625,-4.8828125
2.2362499,6.744466304779053,-5.12119722366333,5.1595048904418945,-10.07080078125,-5.2490234375,-4.1656494140625
2.2387499,6.744466304779053,-5.12119722366333,5.1595048904418945,-10.07080078125,-5.2490234375,-4.1656494140625
2.2412499,6.761225700378418,-5.128379821777344,5.540182590484619,-5.1422119140625,-4.82177734375,-3.7078857421875
2.2437499,6.761225700378418,-5.128379821777344,5.540182590484619,-5.1422119140625,-4.82177734375,-3.7078857421875
2.2462499,6.988674640655518,-4.867412090301514,5.825092792510986,-0.3509521484375,-3.448486328125,-3.5400390625
2.2487499,6.988674640655518,-4.867412090301514,5.825092792510986,-0.3509521484375,-3.448486328125,-3.5400390625
2.2512499,7.242460250854492,-4.599261283874512,5.839457988739014,4.3792724609375,-2.227783203125,-3.60107421875
2.2537499,7.242460250854492,-4.599261283874512,5.839457988739014,4.3792724609375,-2.227783203125,-3.60107421875
2.2562499,7.42681360244751,-4.369418144226074,5.623979568481445,8.0718994140625,-1.15966796875,-4.241943359375
2.2587498999999998,7.42681360244751,-4.369418144226074,5.623979568481445,8.0718994140625,-1.15966796875,-4.241943359375
2.2612499,7.536946773529053,-4.170699596405029,5.336675643920898,10.7269287109375,-0.0762939453125,-5.157470703125
2.2637499,7.536946773529053,-4.170699596405029,5.336675643920898,10.7269287109375,-0.0762939453125,-5.157470703125
2.2662499,7.577648162841797,-4.034229755401611,5.082890033721924,12.664794921875,0.9765625,-6.34765625
2.2687499,7.577648162841797,-4.034229755401611,5.082890033721924,12.664794921875,0.9765625,-6.34765625
2.2712499,7.5632829666137695,-3.9480385780334473,4.90571928024292,14.129638671875,1.495361328125,-7.415771484375
2.2737499,7.5632829666137695,-3.9480385780334473,4.90571928024292,14.129638671875,1.495361328125,-7.415771484375
2.2762499,7.546523571014404,-3.8738183975219727,4.778826713562012,14.7705078125,2.349853515625,-8.6212158203125
2.2787498999999998,7.546523571014404,-3.8738183975219727,4.778826713562012,14.7705078125,2.349853515625,-8.6212158203125
2.2812499,7.5632829666137695,-3.7900211811065674,4.654327869415283,14.6636962890625,3.143310546875,-9.8724365234375
2.2837499,7.5632829666137695,-3.7900211811065674,4.654327869415283,14.6636962890625,3.143310546875,-9.8724365234375
2.2862499,7.599195957183838,-3.6846764087677,4.558559894561768,14.251708984375,3.9215087890625,-11.29150390625
2.2887499,7.599195957183838,-3.6846764087677,4.558559894561768,14.251708984375,3.9215087890625,-11.29150390625
2.2912499,7.632715225219727,-3.5913026332855225,4.503493309020996,13.0615234375,4.69970703125,-12.8021240234375
2.2937499,7.632715225219727,-3.5913026332855225,4.503493309020996,13.0615234375,4.69970703125,-12.8021240234375
2.2962499,7.654263019561768,-3.5434184074401855,4.479551315307617,12.0086669921875,5.7373046875,-14.5111083984375
2.2987499,7.654263019561768,-3.5434184074401855,4.479551315307617,12.0086669921875,5.7373046875,-14.5111083984375
2.3012499,7.675810813903809,-3.56017804145813,4.467580318450928,10.8642578125,6.3018798828125,-15.7318115234375
2.3037499,7.675810813903809,-3.56017804145813,4.467580318450928,10.8642578125,6.3018798828125,-15.7318115234375
2.3062499,7.704541206359863,-3.627215623855591,4.438849925994873,9.94873046875,7.38525390625,-16.5557861328125
2.3087499,7.716512203216553,-3.6583402156829834,4.41969633102417,9.5672607421875,7.843017578125,-16.815185546875
2.3112499,7.723694801330566,-3.6822822093963623,4.400542736053467,9.185791015625,8.1634521484375,-17.1051025390625
2.3137499,7.735665798187256,-3.6846764087677,4.3861775398254395,8.72802734375,8.392333984375,-17.4713134765625
2.3162499,7.752425193786621,-3.6750996112823486,4.371812343597412,8.36181640625,8.97216796875,-17.8985595703125
2.3187499,7.773972988128662,-3.6607344150543213,4.352658748626709,7.9345703125,9.368896484375,-18.341064453125
2.3212498999999998,7.7883381843566895,-3.6511576175689697,4.338293552398682,7.8277587890625,9.8724365234375,-18.6614990234375
2.3237499,7.790732383728027,-3.643975019454956,4.32871675491333,7.3699951171875,10.1776123046875,-18.9361572265625
2.3262499,7.790732383728027,-3.6367924213409424,4.32871675491333,7.1868896484375,10.406494140625,-19.3023681640625
2.3287499,7.785943984985352,-3.627215623855591,4.343081951141357,6.6680908203125,10.650634765625,-19.7906494140625
2.3312499,7.790732383728027,-3.620033025741577,4.3622355461120605,6.53076171875,10.9710693359375,-19.775390625
2.3337499,7.797914981842041,-3.627215623855591,4.381389141082764,6.6375732421875,11.260986328125,-20.0653076171875
2.3362499,7.805097579956055,-3.648763418197632,4.390965938568115,6.7596435546875,11.3677978515625,-20.3857421875
2.3387499,7.807491779327393,-3.6798880100250244,4.393360137939453,6.9427490234375,11.688232421875,-20.721435546875
2.3412498999999998,7.814674377441406,-3.713406801223755,4.395754337310791,7.2021484375,11.7645263671875,-20.6756591796875
2.3437499,7.826645374298096,-3.73016619682312,4.405331134796143,7.62939453125,12.054443359375,-20.5078125
2.3462499,7.8529815673828125,-3.737348794937134,4.417302131652832,8.1024169921875,12.3138427734375,-20.6146240234375
2.3487499,7.884106159210205,-3.734954595565796,4.436455726623535,8.5601806640625,12.5579833984375,-20.5841064453125
2.3512499,7.920019149780273,-3.73016619682312,4.4532151222229,9.124755859375,12.6800537109375,-20.538330078125
2.3537499,7.953537940979004,-3.7229835987091064,4.467580318450928,9.9029541015625,13.1072998046875,-20.4620361328125
2.3562499,7.982268333435059,-3.7253777980804443,4.486733913421631,10.7269287109375,13.397216796875,-20.2789306640625
2.3587499,8.001421928405762,-3.7229835987091064,4.501099109649658,11.7645263671875,13.397216796875,-20.1416015625
2.3612499,8.020575523376465,-3.7229835987091064,4.527435302734375,12.542724609375,13.61083984375,-19.8822021484375
2.3637499,8.027758598327637,-3.7253777980804443,4.54419469833374,13.2904052734375,14.0228271484375,-19.5770263671875
2.3662499,8.039729118347168,-3.7158010005950928,4.565742492675781,14.190673828125,14.2059326171875,-19.500732421875
2.3687499,8.04691219329834,-3.7014358043670654,4.5825018882751465,14.984130859375,14.2669677734375,-19.10400390625
2.3712499,8.058882713317871,-3.6727054119110107,4.6040496826171875,15.472412109375,14.46533203125,-18.7225341796875
2.3737499,8.066065788269043,-3.6343982219696045,4.613626480102539,16.17431640625,14.70947265625,-18.4173583984375
2.3762499,8.078036308288574,-3.584120035171509,4.620809078216553,16.9525146484375,14.7857666015625,-18.06640625
2.3787499,8.085219383239746,-3.531447410583496,4.618414878845215,17.5628662109375,15.0604248046875,-17.730712890625
2.3812499,8.092401504516602,-3.466804027557373,4.613626480102539,17.547607421875,15.07568359375,-17.822265625
2.3837498999999998,8.094796180725098,-3.399766445159912,4.613626480102539,17.791748046875,15.0146484375,-17.425537109375
2.3862499,8.097189903259277,-3.332728862762451,4.627991676330566,17.5933837890625,15.045166015625,-17.27294921875
2.3887499,8.097189903259277,-3.268085241317749,4.649539470672607,17.5933837890625,15.07568359375,-17.0440673828125
2.3912499,8.099584579467773,-3.2106244564056396,4.680664539337158,17.7001953125,15.2435302734375,-16.90673828125
2.3937499,8.099584579467773,-3.162740468978882,4.709394931793213,17.4102783203125,15.1214599609375,-16.9677734375
2.3962499,8.10437297821045,-3.117250680923462,4.733336925506592,17.39501953125,15.1214599609375,-16.8914794921875
2.3987499,8.109161376953125,-3.0765492916107178,4.742913722991943,17.4102783203125,15.1824951171875,-16.90673828125
2.4012499,8.118738174438477,-3.0358476638793945,4.750096321105957,17.39501953125,15.045166015625,-16.7694091796875
2.4037498999999998,8.133103370666504,-3.002328872680664,4.757278919219971,17.1051025390625,14.892578125,-16.6168212890625
2.4062499,8.147468566894531,-2.9735984802246094,4.764461517333984,16.7388916015625,14.8468017578125,-16.8609619140625
2.4087499,8.161833763122559,-2.96162748336792,4.774038314819336,17.1966552734375,14.6026611328125,-16.4794921875
2.4112499,8.17141056060791,-2.956839084625244,4.78122091293335,17.4560546875,14.5263671875,-16.3726806640625
2.4137499,8.178592681884766,-2.96162748336792,4.790797710418701,17.5018310546875,14.2974853515625,-16.05224609375
2.4162499,8.178592681884766,-2.964021682739258,4.797980308532715,17.8680419921875,14.007568359375,-15.68603515625
2.4187499,8.178592681884766,-2.964021682739258,4.807557106018066,17.974853515625,13.7939453125,-15.7470703125
2.4212499,8.178592681884766,-2.9496564865112305,4.821922302246094,18.1732177734375,13.702392578125,-15.5487060546875
2.4237499,8.183381080627441,-2.9233202934265137,4.831499099731445,18.0816650390625,13.671875,-15.3045654296875
2.4262499,8.185775756835938,-2.8802247047424316,4.850652694702148,18.1427001953125,13.2293701171875,-15.045166015625
2.4287499,8.190564155578613,-2.8347349166870117,4.865017890930176,18.646240234375,13.1378173828125,-14.862060546875
2.4312499,8.195352554321289,-2.786850690841675,4.884171485900879,18.707275390625,13.031005859375,-14.678955078125
2.4337499,8.195352554321289,-2.7437551021575928,4.900930881500244,18.585205078125,12.847900390625,-14.6942138671875
2.4362499,8.195352554321289,-2.7078421115875244,4.912901878356934,18.7835693359375,12.51220703125,-14.6026611328125
2.4387499,8.190564155578613,-2.6839001178741455,4.920084476470947,18.829345703125,12.3291015625,-14.6331787109375
2.4412499,8.183381080627441,-2.6647465229034424,4.929661273956299,18.6920166015625,12.1002197265625,-14.5263671875
2.4437499,8.17141056060791,-2.655169725418091,4.934449672698975,18.7225341796875,11.8865966796875,-14.404296875
2.4462498999999998,8.157045364379883,-2.652775526046753,4.934449672698975,18.9056396484375,11.627197265625,-14.373779296875
2.4487499,8.142680168151855,-2.655169725418091,4.929661273956299,18.9666748046875,11.4288330078125,-14.1143798828125
2.4512499,8.121131896972656,-2.6647465229034424,4.927267074584961,19.134521484375,11.41357421875,-13.9007568359375
2.4537499,8.101978302001953,-2.669534921646118,4.929661273956299,19.287109375,10.9100341796875,-13.824462890625
2.4562499,8.070854187011719,-2.669534921646118,4.944026470184326,19.3939208984375,10.6201171875,-13.5040283203125
2.4587499,8.044517517089844,-2.6647465229034424,4.965574264526367,19.134521484375,10.4827880859375,-13.4124755859375
2.4612499,8.015787124633789,-2.650381326675415,4.98472785949707,19.5465087890625,9.9029541015625,-13.12255859375
2.4637499,7.996633529663086,-2.631227731704712,4.99669885635376,19.561767578125,9.7198486328125,-13.0157470703125
2.4662498999999998,7.989450931549072,-2.612074136734009,5.0014872550964355,19.7906494140625,9.58251953125,-13.0615234375
2.4687499,7.996633529663086,-2.5905263423919678,5.0014872550964355,19.9432373046875,9.246826171875,-13.031005859375
2.4712499,8.018181800842285,-2.5713725090026855,4.999093055725098,19.83642578125,9.033203125,-12.8936767578125
2.4737499,8.04930591583252,-2.5498247146606445,4.989516258239746,19.9432373046875,8.8348388671875,-12.6800537109375
2.4762499,8.094796180725098,-2.5234885215759277,4.975151062011719,19.6380615234375,8.6212158203125,-12.664794921875
2.4787499,8.13789176940918,-2.4875755310058594,4.960785865783691,19.6685791015625,8.2855224609375,-12.7716064453125
2.4812499,8.190564155578613,-2.4420857429504395,4.95120906829834,19.59228515625,8.11767578125,-12.75634765625
2.4837499,8.243236541748047,-2.389413356781006,4.948814868927002,19.3939208984375,7.904052734375,-12.725830078125
2.4862499,8.303091049194336,-2.3319525718688965,4.955997467041016,18.9971923828125,7.87353515625,-12.7716064453125
2.4887499,8.367734909057617,-2.274491548538208,4.970362663269043,18.73779296875,7.720947265625,-12.9241943359375
2.4912499,8.434772491455078,-2.2218191623687744,4.994304656982422,18.402099609375,7.568359375,-12.9241943359375
2.4937499,8.489839553833008,-2.183511972427368,5.018246650695801,18.1884765625,7.2784423828125,-13.092041015625
2.4962499,8.537723541259766,-2.1571757793426514,5.039794445037842,18.00537109375,7.14111328125,-13.2293701171875
2.4987499,8.573636054992676,-2.1475989818573,5.058948040008545,17.547607421875,7.32421875,-13.2293701171875
2.5012499,8.604761123657227,-2.1499931812286377,5.063736438751221,17.242431640625,7.354736328125,-13.336181640625
2.5037499,8.62630844116211,-2.161964178085327,5.066130638122559,17.2119140625,6.9122314453125,-13.36669921875
2.5062499,8.643068313598633,-2.1787235736846924,5.063736438751221,16.845703125,6.6986083984375,-13.3056640625
2.5087498999999998,8.65743350982666,-2.1930887699127197,5.063736438751221,16.2506103515625,6.500244140625,-13.3514404296875
2.5112499,8.669404029846191,-2.1954829692840576,5.063736438751221,15.80810546875,6.4849853515625,-13.24462890625
2.5137499,8.674192428588867,-2.185906171798706,5.061342239379883,15.7470703125,6.3323974609375,-13.641357421875
2.5162499,8.678980827331543,-2.164358377456665,5.051765441894531,15.5181884765625,6.0272216796875,-13.916015625
2.5187499,8.674192428588867,-2.140416383743286,5.023035049438477,14.923095703125,5.5999755859375,-13.9617919921875
2.5212499,8.667010307312012,-2.121262788772583,4.991910457611084,14.6636962890625,5.523681640625,-14.16015625
2.5237499,8.664615631103516,-2.1116859912872314,4.95120906829834,14.3890380859375,5.2337646484375,-14.404296875
2.5262499,8.664615631103516,-2.1140801906585693,4.920084476470947,14.0533447265625,5.0201416015625,-14.7247314453125
2.5287498999999998,8.667010307312012,-2.118868589401245,4.888959884643555,13.458251953125,4.608154296875,-14.9383544921875
2.5312499,8.671798706054688,-2.1332337856292725,4.874594688415527,13.031005859375,4.1656494140625,-15.0909423828125
2.5337499,8.671798706054688,-2.1475989818573,4.857835292816162,12.7105712890625,3.8909912109375,-15.2435302734375
2.5362499,8.667010307312012,-2.1715409755706787,4.850652694702148,12.3443603515625,3.5400390625,-15.2740478515625
2.5387499,8.662221908569336,-2.1978771686553955,4.845864295959473,11.9476318359375,3.1280517578125,-15.2435302734375
2.5412499,8.647856712341309,-2.229001760482788,4.841075897216797,11.688232421875,2.9144287109375,-15.411376953125
2.5437499,8.643068313598633,-2.2457611560821533,4.845864295959473,11.2762451171875,2.44140625,-15.533447265625
2.5462499,8.635885238647461,-2.2577321529388428,4.8482584953308105,10.986328125,2.0599365234375,-15.655517578125
2.5487499,8.635885238647461,-2.252943754196167,4.8482584953308105,10.6658935546875,1.6326904296875,-15.68603515625
2.5512499,8.635885238647461,-2.2457611560821533,4.850652694702148,10.528564453125,1.1749267578125,-15.7470703125
2.5537499,8.638279914855957,-2.233790159225464,4.8482584953308105,10.3302001953125,0.8392333984375,-15.8843994140625
2.5562499,8.640673637390137,-2.2218191623687744,4.850652694702148,10.1165771484375,0.42724609375,-16.204833984375
2.5587499,8.645462036132812,-2.207453966140747,4.853046894073486,9.94873046875,0.091552734375,-16.2353515625
2.5612499,8.655038833618164,-2.205059766769409,4.850652694702148,10.1776123046875,-0.274658203125,-16.41845703125
2.5637499,8.65982723236084,-2.205059766769409,4.8482584953308105,10.0860595703125,-0.7781982421875,-16.265869140625
2.5662499,8.664615631103516,-2.212242364883423,4.8482584953308105,10.040283203125,-1.1444091796875,-16.41845703125
2.5687499,8.664615631103516,-2.2194249629974365,4.843470096588135,9.979248046875,-1.4801025390625,-16.29638671875
2.5712498999999998,8.669404029846191,-2.2194249629974365,4.841075897216797,9.6588134765625,-1.8463134765625,-16.326904296875
2.5737499,8.671798706054688,-2.2170307636260986,4.831499099731445,9.4146728515625,-2.227783203125,-16.4642333984375
2.5762499,8.681375503540039,-2.205059766769409,4.81473970413208,9.033203125,-2.6397705078125,-16.4337158203125
2.5787499,8.69334602355957,-2.188300371170044,4.793191909790039,9.002685546875,-2.6702880859375,-16.4947509765625
2.5812499,8.702922821044922,-2.164358377456665,4.76924991607666,8.544921875,-3.082275390625,-16.4337158203125
2.5837499,8.719682693481445,-2.1380221843719482,4.747702121734619,8.11767578125,-3.41796875,-16.41845703125
2.5862499,8.731653213500977,-2.1045033931732178,4.73573112487793,7.87353515625,-3.7384033203125,-16.6015625
2.5887499,8.743624687194824,-2.070984363555908,4.73573112487793,7.5836181640625,-4.0435791015625,-16.6778564453125
2.5912498999999998,8.75080680847168,-2.0422539710998535,4.745307922363281,7.1563720703125,-4.486083984375,-16.998291015625
