# Time (seconds),Accel_X,Accel_Y,Accel_Z,Gyro_X,Gyro_Y,Gyro_Z
0.0012499,3.1866824626922607,-4.350264549255371,8.281543731689453,18.310546875,0.335693359375,-25.32958984375
0.0037499,3.1938650608062744,-4.304774761199951,8.257601737976074,18.5546875,0.9765625,-25.4364013671875
0.0062499,3.177105665206909,-4.113238334655762,8.276755332946777,13.5040283203125,3.7841796875,-26.91650390625
0.0087499,3.004723072052002,-3.88818359375,8.255207061767578,6.65283203125,3.47900390625,-26.519775390625
0.0112499,2.894589900970459,-3.732560396194458,8.2312650680542,6.103515625,0.640869140625,-25.9246826171875
0.0137499,2.8203697204589844,-3.6846764087677,8.070854187011719,11.8865966796875,-0.1678466796875,-23.86474609375
0.016249899999999998,2.6862943172454834,-3.8522706031799316,7.989450931549072,18.8446044921875,-2.7008056640625,-23.5748291015625
0.0187499,2.5953147411346436,-4.120420932769775,8.20732307434082,17.88330078125,-4.913330078125,-25.45166015625
0.021249900000000002,2.315192937850952,-4.359841346740723,8.595184326171875,11.9171142578125,-5.18798828125,-24.383544921875
0.023749899999999997,2.056619167327881,-4.537012100219727,9.117119789123535,6.0272216796875,-0.42724609375,-23.2086181640625
0.0262499,1.7286136150360107,-4.5825018882751465,9.526528358459473,3.082275390625,3.72314453125,-21.66748046875
0.028749900000000002,1.5538369417190552,-4.627991676330566,9.57201862335205,5.8135986328125,0.91552734375,-19.4091796875
0.031249899999999997,1.5131354331970215,-4.714183330535889,9.442731857299805,9.796142578125,-4.913330078125,-17.27294921875
0.0337499,1.7166426181793213,-4.9368438720703125,9.191340446472168,14.6942138671875,-6.9122314453125,-15.80810546875
0.0362499,1.9704279899597168,-5.264849662780762,9.074024200439453,17.791748046875,-5.340576171875,-14.4500732421875
0.0387499,2.1739351749420166,-5.640739440917969,9.172186851501465,17.7001953125,-3.7841796875,-13.48876953125
0.0412499,2.209848165512085,-5.92325496673584,9.521739959716797,21.1181640625,-6.4849853515625,-13.4124755859375
0.0437499,2.051830768585205,-6.0190229415893555,9.974244117736816,24.96337890625,-9.033203125,-12.3748779296875
0.0462499,1.7908629179000854,-5.87776517868042,10.424354553222656,27.64892578125,-8.3770751953125,-10.43701171875
0.0487499,1.4437036514282227,-5.56173038482666,10.709263801574707,29.9224853515625,-9.2926025390625,-8.148193359375
0.0512499,1.1252747774124146,-5.185841083526611,10.793061256408691,34.5458984375,-9.979248046875,-7.3089599609375
0.053749899999999996,0.8571242094039917,-4.867412090301514,10.742782592773438,38.7420654296875,-11.29150390625,-7.0953369140625
0.0562499,0.6224924325942993,-4.623203277587891,10.668562889099121,41.351318359375,-11.993408203125,-6.5460205078125
0.0587499,0.4165911078453064,-4.479551315307617,10.589553833007812,44.769287109375,-10.7879638671875,-7.4462890625
0.061249899999999996,0.1867477297782898,-4.369418144226074,10.553641319274902,50.4150390625,-10.955810546875,-9.5062255859375
0.0637499,-0.05985504388809204,-4.23773717880249,10.529699325561523,56.4117431640625,-12.4969482421875,-10.345458984375
0.0662499,-0.272938996553421,-4.079719543457031,10.539276123046875,60.577392578125,-14.923095703125,-9.918212890625
0.0687499,-0.43335050344467163,-3.9001545906066895,10.596736907958984,60.9893798828125,-16.876220703125,-7.965087890625
0.0712499,-0.5506663918495178,-3.732560396194458,10.690110206604004,59.173583984375,-14.8162841796875,-6.8817138671875
0.0737499,-0.6368576288223267,-3.622427225112915,10.723628997802734,58.746337890625,-13.427734375,-7.4005126953125
0.0762499,-0.6991068720817566,-3.552995204925537,10.702081680297852,59.3719482421875,-16.66259765625,-7.904052734375
0.0787499,-0.6943184733390808,-3.5434184074401855,10.57040023803711,58.65478515625,-22.2930908203125,-7.720947265625
0.0812499,-0.5099649429321289,-3.5242648124694824,10.431536674499512,56.9610595703125,-24.4140625,-7.5531005859375
0.0837499,-0.21787235140800476,-3.5027170181274414,10.326191902160645,54.168701171875,-26.9927978515625,-7.0343017578125
0.0862499,0.12210428714752197,-3.4308910369873047,10.261548042297363,53.466796875,-28.717041015625,-7.3699951171875
0.0887499,0.35673606395721436,-3.2968156337738037,10.29746150970459,50.811767578125,-24.7955322265625,-8.9111328125
0.0912499,0.3471592366695404,-3.093308687210083,10.314221382141113,44.5709228515625,-20.1263427734375,-10.406494140625
0.0937499,0.13168109953403473,-2.889801502227783,10.254365921020508,40.58837890625,-17.547607421875,-11.2152099609375
0.0962499,-0.2322375625371933,-2.7892448902130127,10.029311180114746,38.63525390625,-18.8446044921875,-11.260986328125
0.0987499,-0.5626373887062073,-2.8802247047424316,9.619902610778809,38.482666015625,-21.66748046875,-10.19287109375
0.1012499,-0.7541735172271729,-3.1244332790374756,9.14585018157959,37.3382568359375,-24.10888671875,-8.514404296875
0.1037499,-0.7781155705451965,-3.4404678344726562,8.7484130859375,35.3851318359375,-24.627685546875,-8.3770751953125
0.1062499,-0.6560112833976746,-3.670311212539673,8.53532886505127,29.6630859375,-21.1181640625,-8.575439453125
0.1087499,-0.4596867263317108,-3.732560396194458,8.497021675109863,23.468017578125,-17.8985595703125,-8.3770751953125
0.1112499,-0.26815059781074524,-3.641580820083618,8.53532886505127,18.37158203125,-15.2587890625,-7.2021484375
0.1137499,-0.1364694982767105,-3.450044631958008,8.51138687133789,14.434814453125,-12.9241943359375,-6.0577392578125
0.1162499,-0.09576806426048279,-3.2585084438323975,8.358158111572266,10.9100341796875,-11.6119384765625,-5.1422119140625
0.1187499,-0.13168109953403473,-3.112462282180786,8.073247909545898,6.9122314453125,-10.833740234375,-5.0201416015625
0.1212499,-0.22026655077934265,-3.0406360626220703,7.745242595672607,3.1890869140625,-12.7716064453125,-4.486083984375
0.1237499,-0.29209262132644653,-3.0190882682800293,7.448361396789551,-0.244140625,-14.9078369140625,-3.7078857421875
0.1262499,-0.3232172429561615,-2.999934673309326,7.264008045196533,-2.5482177734375,-16.4031982421875,-3.1585693359375
0.1287499,-0.3256114423274994,-2.959233283996582,7.180211067199707,-3.173828125,-17.1356201171875,-3.0975341796875
0.1312499,-0.3208230137825012,-2.9017724990844727,7.1706342697143555,-2.3193359375,-17.669677734375,-3.60107421875
0.1337499,-0.3447650372982025,-2.8562827110290527,7.19936466217041,-0.7476806640625,-18.6614990234375,-4.364013671875
0.1362499,-0.40222588181495667,-2.873042106628418,7.216124057769775,2.13623046875,-21.026611328125,-5.6304931640625
0.1387499,-0.45010992884635925,-3.004723072052002,7.240066051483154,5.859375,-24.3988037109375,-6.5765380859375
0.1412499,-0.49799394607543945,-3.2585084438323975,7.297526836395264,10.0860595703125,-27.64892578125,-7.3089599609375
0.1437499,-0.42616790533065796,-3.5960910320281982,7.522581577301025,13.885498046875,-28.1524658203125,-8.6212158203125
0.1462499,-0.3256114423274994,-3.9887399673461914,7.884106159210205,15.9912109375,-26.580810546875,-8.2244873046875
0.1487499,-0.16998831927776337,-4.371812343597412,8.403648376464844,20.111083984375,-24.7039794921875,-8.0413818359375
0.1512499,-0.0071826050989329815,-4.683058738708496,8.920795440673828,24.6124267578125,-23.3917236328125,-8.1329345703125
0.1537499,0.07900865375995636,-4.896142482757568,9.308655738830566,28.7322998046875,-23.345947265625,-7.415771484375
0.1562499,0.1149216815829277,-4.970362663269043,9.50737476348877,32.3638916015625,-22.8118896484375,-6.53076171875
0.1587499,0.07900865375995636,-4.900930881500244,9.50737476348877,34.6221923828125,-22.7813720703125,-5.5694580078125
0.1612499,0.0071826050989329815,-4.738125324249268,9.404424667358398,36.773681640625,-24.0936279296875,-4.425048828125
0.1637499,-0.08140286058187485,-4.520252704620361,9.277531623840332,38.5894775390625,-23.895263671875,-3.4942626953125
0.1662499,-0.1604115068912506,-4.290409564971924,9.20091724395752,41.56494140625,-22.430419921875,-3.7078857421875
0.1687499,-0.26336219906806946,-4.048594951629639,9.165003776550293,46.7071533203125,-19.59228515625,-4.0283203125
0.1712499,-0.37828385829925537,-3.778050184249878,9.188945770263672,51.4678955078125,-16.998291015625,-4.57763671875
0.1737499,-0.5291185975074768,-3.4596214294433594,9.244012832641602,54.0771484375,-16.1285400390625,-4.6234130859375
0.17624990000000001,-0.6488286852836609,-3.134010076522827,9.301473617553711,55.5572509765625,-16.6778564453125,-4.3792724609375
0.1787499,-0.6871358752250671,-2.8131868839263916,9.368511199951172,55.17578125,-17.242431640625,-3.875732421875
0.1812499,-0.6416460275650024,-2.535459518432617,9.435548782348633,53.192138671875,-17.2271728515625,-2.6397705078125
0.1837499,-0.5195417404174805,-2.276885747909546,9.452308654785156,51.2542724609375,-14.7705078125,-1.9073486328125
0.1862499,-0.36152446269989014,-2.0446481704711914,9.445125579833984,49.4537353515625,-11.9781494140625,-1.9989013671875
0.1887499,-0.2059013396501541,-1.8148049116134644,9.406818389892578,46.905517578125,-11.871337890625,-1.6632080078125
0.1912499,-0.06464344263076782,-1.6041151285171509,9.327810287475586,45.2880859375,-11.53564453125,-1.251220703125
0.1937499,0.07182604819536209,-1.4628572463989258,9.229647636413574,42.9840087890625,-10.0555419921875,-1.5869140625
0.1962499,0.1628057211637497,-1.3742717504501343,9.105149269104004,40.34423828125,-9.246826171875,-1.52587890625
0.1987499,0.2322375625371933,-1.3646949529647827,8.96149730682373,38.2537841796875,-9.246826171875,-1.7547607421875
0.2012499,0.27054479718208313,-1.403002142906189,8.813055992126465,35.9344482421875,-10.1165771484375,-1.40380859375
0.2037499,0.31124621629714966,-1.482010841369629,8.669404029846191,33.9508056640625,-9.4146728515625,-1.2054443359375
0.2062499,0.35434186458587646,-1.5921441316604614,8.525752067565918,31.951904296875,-8.5601806640625,-0.6866455078125
0.20874990000000002,0.3878606855869293,-1.7621324062347412,8.38449478149414,30.548095703125,-7.2174072265625,-0.091552734375
0.2112499,0.40701428055763245,-1.987187385559082,8.269572257995605,29.5867919921875,-6.4697265625,0.6866455078125
0.2137499,0.395043283700943,-2.252943754196167,8.178592681884766,28.6712646484375,-6.9427490234375,2.4261474609375
0.2162499,0.3878606855869293,-2.518700122833252,8.099584579467773,26.4434814453125,-5.5389404296875,3.6468505859375
0.2187499,0.3734954595565796,-2.741360902786255,8.010998725891113,23.895263671875,-4.4097900390625,5.1422119140625
0.2212499,0.38067805767059326,-2.940079689025879,7.898471355438232,21.9879150390625,-3.8604736328125,7.049560546875
0.2237499,0.4381389021873474,-3.0765492916107178,7.800309181213379,22.5372314453125,-4.39453125,8.6517333984375
0.2262499,0.524330198764801,-3.2369606494903564,7.785943984985352,24.35302734375,-5.859375,9.5977783203125
0.2287499,0.6655880808830261,-3.380612850189209,7.869740962982178,25.32958984375,-3.143310546875,9.27734375
0.2312499,0.8068459630012512,-3.550601005554199,8.08282470703125,27.862548828125,-1.1138916015625,9.1705322265625
0.2337499,0.9169792532920837,-3.754108190536499,8.382100105285645,32.1044921875,-0.48828125,9.3841552734375
0.2362499,0.9840168952941895,-3.9647979736328125,8.738836288452148,35.491943359375,1.5411376953125,9.2926025390625
0.23874990000000001,0.9600749015808105,-4.151545524597168,9.095572471618652,38.482666015625,2.3651123046875,9.185791015625
0.2412499,0.8475474119186401,-4.266467571258545,9.378087997436523,40.3900146484375,4.94384765625,8.6822509765625
0.2437499,0.6177040338516235,-4.285621166229248,9.526528358459473,42.8314208984375,7.14111328125,8.30078125
0.2462499,0.3423708379268646,-4.230554580688477,9.5624418258667,45.95947265625,6.89697265625,8.6669921875
0.2487499,0.08858546614646912,-4.0964789390563965,9.555258750915527,49.3011474609375,4.4403076171875,8.6669921875
0.2512499,-0.08140286058187485,-3.9217023849487305,9.57441234588623,50.9796142578125,3.7841796875,8.6212158203125
0.25374990000000003,-0.12928688526153564,-3.73016619682312,9.651026725769043,50.262451171875,5.9051513671875,8.392333984375
0.25624990000000003,-0.0694318488240242,-3.512293815612793,9.816226959228516,50.9490966796875,6.0272216796875,7.9803466796875
0.25874990000000003,0.026336219161748886,-3.313575267791748,9.99339771270752,51.7730712890625,5.279541015625,7.50732421875
0.26124990000000003,0.14365209639072418,-3.1507694721221924,10.170568466186523,49.6978759765625,7.3394775390625,6.9580078125
0.26374990000000004,0.2298433631658554,-3.0358476638793945,10.307038307189941,48.0499267578125,7.720947265625,6.5460205078125
0.26624990000000004,0.2825157940387726,-2.9735984802246094,10.38604736328125,46.966552734375,7.476806640625,6.2103271484375
0.26874990000000004,0.3016694188117981,-2.9281086921691895,10.445901870727539,44.677734375,8.0718994140625,6.1492919921875
0.27124990000000004,0.2944868206977844,-2.8874073028564453,10.481815338134766,41.351318359375,7.75146484375,6.65283203125
0.27374990000000005,0.29209262132644653,-2.832340717315674,10.488997459411621,37.65869140625,8.30078125,6.744384765625
0.27624990000000005,0.3016694188117981,-2.765302896499634,10.460267066955566,33.905029296875,8.72802734375,6.77490234375
0.27874990000000005,0.33039984107017517,-2.7030537128448486,10.378864288330078,31.0516357421875,8.72802734375,6.866455078125
0.28124990000000005,0.38307225704193115,-2.6360161304473877,10.266336441040039,27.7862548828125,8.8043212890625,6.561279296875
0.28374990000000005,0.47165772318840027,-2.5737667083740234,10.132261276245117,24.8870849609375,9.2926025390625,6.2103271484375
0.28624990000000006,0.5650315880775452,-2.5091233253479004,9.99100399017334,22.186279296875,9.674072265625,5.584716796875
0.28874990000000006,0.6607996821403503,-2.4588451385498047,9.821015357971191,19.3023681640625,9.9945068359375,5.1727294921875
0.2912499,0.7422025203704834,-2.4133553504943848,9.639056205749512,16.448974609375,10.25390625,4.2266845703125
0.2937499,0.7948749661445618,-2.3726539611816406,9.44752025604248,13.916015625,10.498046875,4.0130615234375
0.2962499,0.828393816947937,-2.341529369354248,9.23443603515625,11.016845703125,10.7879638671875,3.997802734375
0.2987499,0.8475474119186401,-2.315192937850952,8.999804496765137,8.1787109375,11.41357421875,3.23486328125
0.3012499,0.8690952062606812,-2.3032219409942627,8.743624687194824,6.591796875,11.7034912109375,2.6092529296875
0.3037499,0.8978256583213806,-2.2912509441375732,8.487444877624512,4.8675537109375,11.9171142578125,2.227783203125
0.3062499,0.9433154463768005,-2.276885747909546,8.259995460510254,3.4027099609375,12.2222900390625,1.52587890625
0.3087499,1.0007762908935547,-2.252943754196167,8.090007781982422,2.471923828125,12.9241943359375,0.5645751953125
0.3112499,1.0821791887283325,-2.2625205516815186,7.948749542236328,1.0223388671875,13.97705078125,-0.8544921875
0.3137499,1.1755530834197998,-2.319981336593628,7.848193168640137,0.2899169921875,14.404296875,-1.46484375
0.31624990000000003,1.2713210582733154,-2.473210334777832,7.771578788757324,1.3885498046875,14.46533203125,-1.6937255859375
0.31874990000000003,1.3623007535934448,-2.717418909072876,7.714118003845215,2.532958984375,14.801025390625,-2.13623046875
0.32124990000000003,1.436521053314209,-3.002328872680664,7.6997528076171875,3.41796875,14.9078369140625,-2.349853515625
0.32374990000000003,1.4676456451416016,-3.268085241317749,7.740454196929932,4.21142578125,15.3350830078125,-1.922607421875
0.32624990000000004,1.4700398445129395,-3.466804027557373,7.805097579956055,4.974365234375,15.4876708984375,-0.9918212890625
0.32874990000000004,1.4532804489135742,-3.5434184074401855,7.891288757324219,5.6915283203125,15.1824951171875,-0.213623046875
0.33124990000000004,1.4389152526855469,-3.5218706130981445,7.960720539093018,5.5084228515625,14.6942138671875,0.274658203125
0.33374990000000004,1.4413094520568848,-3.4165258407592773,8.032546997070312,4.8675537109375,14.9383544921875,0.640869140625
0.33624990000000005,1.4748282432556152,-3.270479440689087,8.111555099487305,3.631591796875,14.7857666015625,0.9765625
0.33874990000000005,1.5298948287963867,-3.1196448802948,8.20732307434082,2.0904541015625,15.3045654296875,1.1138916015625
0.34124990000000005,1.6112977266311646,-2.9879636764526367,8.29830265045166,1.251220703125,15.380859375,1.007080078125
0.34374990000000005,1.702277421951294,-2.894589900970459,8.377311706542969,0.6256103515625,15.6402587890625,0.7171630859375
0.34624990000000005,1.7908629179000854,-2.8562827110290527,8.401253700256348,-0.0762939453125,16.632080078125,0.30517578125
0.34874990000000006,1.8914192914962769,-2.8610711097717285,8.396465301513672,0.3814697265625,16.357421875,-0.18310546875
0.35124990000000006,1.9800047874450684,-2.9017724990844727,8.398859977722168,-0.762939453125,16.66259765625,0.1678466796875
0.3537499,2.0901381969451904,-2.9496564865112305,8.4108304977417,-2.410888671875,16.5863037109375,0.579833984375
0.3562499,2.207453966140747,-2.985569477081299,8.465897560119629,-5.0506591796875,16.3726806640625,1.0528564453125
0.3587499,2.31758713722229,-2.9951462745666504,8.592789649963379,-6.8206787109375,16.8914794921875,1.28173828125
0.3612499,2.4013843536376953,-2.9975404739379883,8.743624687194824,-9.124755859375,17.0440673828125,1.678466796875
0.3637499,2.4133553504943848,-2.959233283996582,8.904036521911621,-11.322021484375,18.9361572265625,1.4495849609375
0.3662499,2.410961151123047,-2.913743495941162,9.028534889221191,-14.7247314453125,20.1263427734375,1.312255859375
0.3687499,2.3343467712402344,-2.8610711097717285,9.083600997924805,-15.9759521484375,20.2789306640625,1.434326171875
0.3712499,2.274491548538208,-2.827552318572998,9.097966194152832,-15.838623046875,20.111083984375,1.1138916015625
0.3737499,2.22660756111145,-2.829946517944336,9.121908187866211,-16.9677734375,19.3939208984375,0.91552734375
0.3762499,2.1930887699127197,-2.894589900970459,9.20091724395752,-19.3328857421875,19.1650390625,1.2664794921875
0.37874990000000003,2.185906171798706,-3.00711727142334,9.313444137573242,-20.294189453125,19.805908203125,1.4190673828125
0.38124990000000003,2.1954829692840576,-3.141192674636841,9.48343276977539,-20.6146240234375,20.7977294921875,1.312255859375
0.38374990000000003,2.1811177730560303,-3.294421434402466,9.627084732055664,-20.4620361328125,20.8282470703125,1.617431640625
0.38624990000000003,2.188300371170044,-3.4141316413879395,9.765948295593262,-18.402099609375,21.4996337890625,1.4495849609375
0.38874990000000004,2.1595699787139893,-3.507505416870117,9.892841339111328,-16.7083740234375,21.575927734375,1.6632080078125
0.39124990000000004,2.1380221843719482,-3.5482068061828613,9.962273597717285,-16.54052734375,21.7132568359375,2.288818359375
0.39374990000000004,2.123656988143921,-3.5482068061828613,10.017339706420898,-15.106201171875,21.5301513671875,1.861572265625
0.39624990000000004,2.094926595687866,-3.4979286193847656,10.055646896362305,-13.275146484375,21.2860107421875,1.8463134765625
0.39874990000000005,2.1045033931732178,-3.4117374420166016,10.089165687561035,-12.39013671875,21.17919921875,1.9073486328125
0.40124990000000005,2.118868589401245,-3.2776620388031006,10.199298858642578,-12.1307373046875,20.5535888671875,1.8768310546875
0.40374990000000005,2.164358377456665,-3.138798475265503,10.24239444732666,-9.5672607421875,18.0816650390625,1.9378662109375
0.40624990000000005,2.188300371170044,-2.9975404739379883,10.378864288330078,-10.9100341796875,19.256591796875,2.25830078125
0.40874990000000005,2.1499931812286377,-2.8778305053710938,10.393229484558105,-11.383056640625,23.2086181640625,1.953125
0.41124990000000006,2.0398597717285156,-2.8107926845550537,10.424354553222656,-9.3841552734375,22.705078125,1.4190673828125
0.41374990000000006,1.8315643072128296,-2.765302896499634,10.400412559509277,-6.16455078125,22.216796875,0.9002685546875
0.41624990000000006,1.5825673341751099,-2.734178304672241,10.371682167053223,-4.21142578125,22.03369140625,0.7171630859375
0.4187499,1.3239935636520386,-2.7030537128448486,10.333374977111816,-3.326416015625,21.9573974609375,0.3662109375
0.4212499,1.1180921792984009,-2.6599581241607666,10.314221382141113,-1.739501953125,21.8658447265625,-0.0762939453125
0.4237499,0.933738648891449,-2.6001031398773193,10.273519515991211,0.5340576171875,21.484375,-0.3509521484375
0.4262499,0.8164227604866028,-2.5234885215759277,10.24000072479248,1.15966796875,22.430419921875,-0.9765625
0.4287499,0.7134721279144287,-2.427720546722412,10.218452453613281,1.5106201171875,23.468017578125,-1.6021728515625
0.4312499,0.608127236366272,-2.341529369354248,10.216058731079102,4.3182373046875,23.98681640625,-2.3651123046875
0.4337499,0.5482721924781799,-2.2649147510528564,10.26394271850586,6.53076171875,23.6358642578125,-3.692626953125
0.4362499,0.49799394607543945,-2.2218191623687744,10.350133895874023,7.26318359375,24.9786376953125,-4.241943359375
0.4387499,0.4884171485900879,-2.212242364883423,10.433931350708008,9.063720703125,26.5045166015625,-4.6844482421875
0.44124990000000003,0.5051765441894531,-2.209848165512085,10.496180534362793,10.2996826171875,26.55029296875,-4.6539306640625
0.44374990000000003,0.5339069962501526,-2.2170307636260986,10.524910926818848,10.0555419921875,26.9012451171875,-4.5928955078125
0.44624990000000003,0.545877993106842,-2.231395959854126,10.517727851867676,9.2010498046875,27.557373046875,-4.1351318359375
0.44874990000000003,0.5650315880775452,-2.2625205516815186,10.493785858154297,8.4686279296875,27.89306640625,-3.6468505859375
0.45124990000000004,0.6129156351089478,-2.363077163696289,10.460267066955566,5.0811767578125,26.8707275390625,-2.2735595703125
0.45374990000000004,0.6129156351089478,-2.363077163696289,10.460267066955566,5.0811767578125,26.8707275390625,-2.2735595703125
0.45624990000000004,0.7469909191131592,-2.451662540435791,10.431536674499512,2.0294189453125,27.2369384765625,-0.6866455078125
0.45874990000000004,0.7469909191131592,-2.451662540435791,10.431536674499512,2.0294189453125,27.2369384765625,-0.6866455078125
0.46124990000000005,0.8667010068893433,-2.434903144836426,10.340557098388672,-2.5482177734375,28.13720703125,0.1373291015625
0.46374990000000005,0.8667010068893433,-2.434903144836426,10.340557098388672,-2.5482177734375,28.13720703125,0.1373291015625
0.46624990000000005,0.8786720037460327,-2.3965959548950195,10.160991668701172,-4.2572021484375,28.1524658203125,0.42724609375
0.46874990000000005,0.8786720037460327,-2.3965959548950195,10.160991668701172,-4.2572021484375,28.1524658203125,0.42724609375
0.47124990000000005,0.8762778043746948,-2.5234885215759277,9.998186111450195,-4.7607421875,27.984619140625,0.0152587890625
0.47374990000000006,0.8762778043746948,-2.5234885215759277,9.998186111450195,-4.7607421875,27.984619140625,0.0152587890625
0.47624990000000006,0.9576807022094727,-2.87064790725708,9.986215591430664,-3.23486328125,27.9083251953125,-0.213623046875
0.47874990000000006,0.9576807022094727,-2.87064790725708,9.986215591430664,-3.23486328125,27.9083251953125,-0.213623046875
0.4812499,1.0654197931289673,-3.361459255218506,10.062829971313477,-0.335693359375,28.0914306640625,-0.3662109375
0.4837499,1.0654197931289673,-3.361459255218506,10.062829971313477,-0.335693359375,28.0914306640625,-0.3662109375
0.4862499,1.0773907899856567,-3.84269380569458,10.067618370056152,1.7242431640625,29.23583984375,1.2359619140625
0.4887499,1.0773907899856567,-3.84269380569458,10.067618370056152,1.7242431640625,29.23583984375,1.2359619140625
0.4912499,1.0821791887283325,-4.127603530883789,10.110713958740234,6.500244140625,26.2451171875,3.0975341796875
0.4937499,1.0821791887283325,-4.127603530883789,10.110713958740234,6.500244140625,26.2451171875,3.0975341796875
0.4962499,1.3479355573654175,-4.127603530883789,10.393229484558105,10.9710693359375,26.1077880859375,4.5623779296875
0.4987499,1.3479355573654175,-4.127603530883789,10.393229484558105,10.9710693359375,26.1077880859375,4.5623779296875
0.5012499,1.6831238269805908,-3.9815573692321777,10.769119262695312,13.763427734375,27.801513671875,6.2255859375
0.5037499000000001,1.6831238269805908,-3.9815573692321777,10.769119262695312,13.763427734375,27.801513671875,6.2255859375
0.5062499,1.778891921043396,-3.794809579849243,10.934319496154785,17.3492431640625,25.7415771484375,7.0037841796875
0.5087499000000001,1.778891921043396,-3.794809579849243,10.934319496154785,17.3492431640625,25.7415771484375,7.0037841796875
0.5112499,1.8626888990402222,-3.4572272300720215,10.94150161743164,23.529052734375,22.27783203125,6.744384765625
0.5137499,1.8626888990402222,-3.4572272300720215,10.94150161743164,23.529052734375,22.27783203125,6.744384765625
0.5162499,1.8914192914962769,-2.853888511657715,10.92953109741211,26.885986328125,22.1099853515625,5.4779052734375
0.5187499,1.8914192914962769,-2.853888511657715,10.92953109741211,26.885986328125,22.1099853515625,5.4779052734375
0.5212499,1.7334020137786865,-2.1380221843719482,10.90798282623291,31.005859375,18.6309814453125,5.2947998046875
0.5237499,1.7334020137786865,-2.1380221843719482,10.90798282623291,31.005859375,18.6309814453125,5.2947998046875
0.5262499,1.5729905366897583,-1.6352397203445435,11.058817863464355,34.1033935546875,17.7764892578125,3.7689208984375
0.5287499,1.5729905366897583,-1.6352397203445435,11.058817863464355,34.1033935546875,17.7764892578125,3.7689208984375
0.5312499,1.2258312702178955,-1.3910311460494995,11.441889762878418,28.656005859375,23.8800048828125,1.7852783203125
0.5337499,1.2258312702178955,-1.3910311460494995,11.441889762878418,28.656005859375,23.8800048828125,1.7852783203125
0.5362499000000001,0.6368576288223267,-1.37906014919281,11.525687217712402,24.1241455078125,28.7628173828125,-0.9613037109375
0.5387499,0.6368576288223267,-1.37906014919281,11.525687217712402,24.1241455078125,28.7628173828125,-0.9613037109375
0.5412499000000001,0.12210428714752197,-1.5753847360610962,10.975020408630371,22.613525390625,30.3192138671875,-3.021240234375
0.5437499,0.12210428714752197,-1.5753847360610962,10.975020408630371,22.613525390625,30.3192138671875,-3.021240234375
0.5462499000000001,0.14365209639072418,-1.8842366933822632,10.20887565612793,21.087646484375,29.449462890625,-3.2806396484375
0.5487499,0.14365209639072418,-1.8842366933822632,10.20887565612793,21.087646484375,29.449462890625,-3.2806396484375
0.5512499000000001,0.689530074596405,-2.3127987384796143,9.622296333312988,22.9339599609375,29.5867919921875,-3.875732421875
0.5537499,0.689530074596405,-2.3127987384796143,9.622296333312988,22.9339599609375,29.5867919921875,-3.875732421875
0.5562499000000001,1.213860273361206,-2.7222073078155518,9.150638580322266,27.069091796875,27.923583984375,-4.8370361328125
0.5587499,1.213860273361206,-2.7222073078155518,9.150638580322266,27.069091796875,27.923583984375,-4.8370361328125
0.5612499000000001,1.3934253454208374,-2.829946517944336,8.688557624816895,28.076171875,25.1922607421875,-4.57763671875
0.5637499,1.3934253454208374,-2.829946517944336,8.688557624816895,28.076171875,25.1922607421875,-4.57763671875
0.5662499000000001,1.2042834758758545,-2.6168625354766846,8.322244644165039,26.7333984375,21.6217041015625,-2.86865234375
0.5687499,1.2042834758758545,-2.6168625354766846,8.322244644165039,26.7333984375,21.6217041015625,-2.86865234375
0.5712499000000001,0.828393816947937,-2.190694570541382,8.219294548034668,19.073486328125,18.9361572265625,-0.9918212890625
0.5737499,0.828393816947937,-2.190694570541382,8.219294548034668,19.073486328125,18.9361572265625,-0.9918212890625
0.5762499000000001,0.667982280254364,-1.9081788063049316,8.415618896484375,9.5062255859375,21.1639404296875,-0.9307861328125
0.5787499,0.667982280254364,-1.9081788063049316,8.415618896484375,9.5062255859375,21.1639404296875,-0.9307861328125
0.5812499,0.8978256583213806,-2.252943754196167,8.683769226074219,6.3018798828125,24.0936279296875,-1.6632080078125
0.5837499,0.8978256583213806,-2.252943754196167,8.683769226074219,6.3018798828125,24.0936279296875,-1.6632080078125
0.5862499,1.1803414821624756,-3.138798475265503,8.820239067077637,5.0048828125,26.2908935546875,-0.79345703125
0.5887499,1.1803414821624756,-3.138798475265503,8.820239067077637,5.0048828125,26.2908935546875,-0.79345703125
0.5912499,1.3311761617660522,-4.141968727111816,8.786720275878906,8.2855224609375,25.7110595703125,0.1678466796875
0.5937499,1.3311761617660522,-4.141968727111816,8.786720275878906,8.2855224609375,25.7110595703125,0.1678466796875
0.5962499,1.4437036514282227,-4.90571928024292,8.793902397155762,16.3116455078125,24.139404296875,1.4801025390625
0.5987499000000001,1.4437036514282227,-4.90571928024292,8.793902397155762,16.3116455078125,24.139404296875,1.4801025390625
0.6012499,1.5059528350830078,-5.238513469696045,8.973467826843262,21.8963623046875,24.47509765625,2.38037109375
0.6037499000000001,1.5059528350830078,-5.238513469696045,8.973467826843262,21.8963623046875,24.47509765625,2.38037109375
0.6062499,1.381454348564148,-5.2265424728393555,9.133879661560059,25.93994140625,23.345947265625,3.814697265625
0.6087499000000001,1.381454348564148,-5.2265424728393555,9.133879661560059,25.93994140625,23.345947265625,3.814697265625
0.6112499,1.1755530834197998,-5.051765441894531,9.263166427612305,30.242919921875,20.782470703125,5.2032470703125
0.6137499000000001,1.1755530834197998,-5.051765441894531,9.263166427612305,30.242919921875,20.782470703125,5.2032470703125
0.6162499,1.113303780555725,-4.699818134307861,9.481039047241211,30.94482421875,19.5465087890625,7.568359375
0.6187499000000001,1.113303780555725,-4.699818134307861,9.481039047241211,30.94482421875,19.5465087890625,7.568359375
0.6212499,1.1899182796478271,-4.1874589920043945,9.718064308166504,31.280517578125,19.622802734375,8.7432861328125
0.6237499000000001,1.1899182796478271,-4.1874589920043945,9.718064308166504,31.280517578125,19.622802734375,8.7432861328125
0.6262499,1.2737152576446533,-3.6104562282562256,9.859322547912598,29.7088623046875,20.660400390625,9.918212890625
0.6287499000000001,1.2737152576446533,-3.6104562282562256,9.859322547912598,29.7088623046875,20.660400390625,9.918212890625
0.6312499,1.290474772453308,-3.050212860107422,9.93593692779541,25.57373046875,18.798828125,10.6201171875
0.6337499000000001,1.2497732639312744,-2.8179752826690674,9.938331604003906,22.0947265625,19.71435546875,10.92529296875
0.6362499,1.1516109704971313,-2.631227731704712,9.854534149169922,18.218994140625,20.233154296875,10.9100341796875
0.6387499000000001,0.993593692779541,-2.47560453414917,9.710882186889648,15.6097412109375,20.050048828125,10.7269287109375
0.6412499,0.7876923680305481,-2.3319525718688965,9.497797966003418,14.1143798828125,18.6767578125,10.6353759765625
0.6437499,0.5793967843055725,-2.169146776199341,9.318233489990234,11.71875,18.4326171875,10.3302001953125
0.6462499,0.40462008118629456,-1.9967641830444336,9.2033109664917,9.2926025390625,18.1121826171875,10.0555419921875
0.6487499,0.29209262132644653,-1.8315643072128296,9.193734169006348,6.8359375,17.4560546875,9.6282958984375
0.6512499,0.22266076505184174,-1.7190368175506592,9.220070838928223,4.2266845703125,16.448974609375,9.429931640625
0.6537499,0.16759411990642548,-1.6687586307525635,9.246406555175781,0.7171630859375,17.2882080078125,9.429931640625
0.6562499,0.1173158809542656,-1.6903064250946045,9.217676162719727,-2.105712890625,17.76123046875,8.8043212890625
0.6587499,0.05746084079146385,-1.7477672100067139,9.153033256530762,-4.0740966796875,16.0369873046875,8.7432861328125
0.6612499000000001,-0.009576806798577309,-1.821987509727478,9.078812599182129,-5.6304931640625,15.5181884765625,8.453369140625
0.6637499,-0.08858546614646912,-1.8914192914962769,9.030928611755371,-7.75146484375,16.204833984375,7.965087890625
0.6662499000000001,-0.19393034279346466,-1.9512743949890137,8.973467826843262,-9.4146728515625,16.54052734375,6.7291259765625
0.6687499,-0.3423708379268646,-2.0231003761291504,8.9064302444458,-9.5062255859375,15.5029296875,5.55419921875
0.6712499000000001,-0.5410895943641663,-2.097320795059204,8.813055992126465,-8.3160400390625,14.0228271484375,4.4708251953125
0.6737499,-0.730231523513794,-2.1715409755706787,8.736441612243652,-6.77490234375,12.725830078125,2.9296875
0.6762499000000001,-0.8810662031173706,-2.233790159225464,8.712499618530273,-6.3018798828125,10.4827880859375,1.922607421875
0.6787499,-0.9744400978088379,-2.2433669567108154,8.765172004699707,-6.53076171875,9.1552734375,1.2359619140625
0.6812499000000001,-1.0055646896362305,-2.2146365642547607,8.863334655761719,-7.476806640625,9.09423828125,0.1678466796875
0.6837499,-1.0079588890075684,-2.1571757793426514,8.968679428100586,-7.7362060546875,8.9569091796875,-1.46484375
0.6862499000000001,-1.0271124839782715,-2.10210919380188,9.040505409240723,-8.7890625,8.30078125,-2.3651123046875
0.6887499,-1.0414776802062988,-2.0901381969451904,9.059659004211426,-9.857177734375,8.026123046875,-3.35693359375
0.6912499000000001,-1.072602391242981,-2.121262788772583,9.035717010498047,-10.8489990234375,7.75146484375,-4.0740966796875
0.6937499,-1.0797849893569946,-2.2026655673980713,8.978256225585938,-12.542724609375,7.0648193359375,-4.2724609375
0.6962499000000001,-1.0749965906143188,-2.315192937850952,8.913613319396973,-13.8702392578125,6.5765380859375,-4.2724609375
0.6987499,-1.036689281463623,-2.4229321479797363,8.851364135742188,-15.2130126953125,6.011962890625,-4.2572021484375
0.7012499000000001,-0.9911994934082031,-2.535459518432617,8.815450668334961,-16.7083740234375,5.2642822265625,-3.814697265625
0.7037499,-0.9169792532920837,-2.6408045291900635,8.803479194641113,-17.8375244140625,4.6539306640625,-3.41796875
0.7062499,-0.8331822156906128,-2.7557260990142822,8.808267593383789,-19.0887451171875,4.33349609375,-3.143310546875
0.7087499,-0.7422025203704834,-2.875436305999756,8.81784439086914,-19.927978515625,4.3182373046875,-2.99072265625
0.7112499,-0.646434485912323,-3.021482467651367,8.822632789611816,-20.2484130859375,4.364013671875,-3.0670166015625
0.7137499,-0.5674257874488831,-3.1723172664642334,8.841787338256836,-20.355224609375,3.7841796875,-2.4871826171875
0.7162499,-0.5123591423034668,-3.3303346633911133,8.87291145324707,-20.7061767578125,3.5858154296875,-2.13623046875
0.7187499,-0.4908113479614258,-3.485957622528076,8.911218643188477,-20.93505859375,4.1961669921875,-1.9683837890625
0.7212499,-0.5171475410461426,-3.620033025741577,8.96389102935791,-20.904541015625,4.2572021484375,-1.861572265625
0.7237499000000001,-0.5841852426528931,-3.7493197917938232,8.992621421813965,-20.6298828125,4.3182373046875,-1.8157958984375
0.7262499,-0.5793967843055725,-3.9001545906066895,9.023746490478516,-20.01953125,4.425048828125,-1.922607421875
0.7287499000000001,-0.5913678407669067,-3.993528366088867,9.05487060546875,-21.0113525390625,2.593994140625,-0.9002685546875
0.7312499,-0.6847416758537292,-3.9647979736328125,9.011775016784668,-15.9149169921875,9.7198486328125,-3.5400390625
0.7337499000000001,-0.9289502501487732,-3.708618402481079,9.126696586608887,-8.1329345703125,8.4228515625,-4.119873046875
0.7362499,-1.1994950771331787,-3.4596214294433594,9.119514465332031,-7.9345703125,-0.9307861328125,-4.638671875
0.7387499000000001,-1.525106430053711,-3.201047658920288,9.160215377807617,-11.29150390625,0.9307861328125,-5.9356689453125
0.7412499,-1.6950948238372803,-3.07415509223938,9.148244857788086,-14.556884765625,5.0048828125,-7.293701171875
0.7437499000000001,-1.7812861204147339,-3.0166940689086914,9.057265281677246,-16.54052734375,4.0435791015625,-6.988525390625
0.7462499,-1.8363527059555054,-2.913743495941162,8.927978515625,-15.9912109375,-0.244140625,-6.0882568359375
0.7487499000000001,-1.8722656965255737,-2.7485435009002686,8.825027465820312,-14.4195556640625,-1.9989013671875,-7.4462890625
0.7512499,-1.8531121015548706,-2.583343744277954,8.769960403442383,-12.3443603515625,-2.8839111328125,-9.3994140625
0.7537499000000001,-1.7932571172714233,-2.4420857429504395,8.827422142028809,-11.5203857421875,-4.669189453125,-10.467529296875
0.7562499,-1.678335428237915,-2.3343467712402344,9.004592895507812,-13.1378173828125,-6.4849853515625,-10.894775390625
0.7587499000000001,-1.5466543436050415,-2.231395959854126,9.308655738830566,-15.960693359375,-6.6070556640625,-11.932373046875
0.7612499,-1.4460978507995605,-2.1595699787139893,9.636661529541016,-18.157958984375,-6.1187744140625,-13.2904052734375
0.7637499000000001,-1.381454348564148,-2.123656988143921,9.909601211547852,-20.08056640625,-6.6680908203125,-13.9923095703125
0.7662499,-1.3766659498214722,-2.1068975925445557,10.108319282531738,-22.6898193359375,-8.60595703125,-14.312744140625
0.7687499000000001,-1.381454348564148,-2.1308395862579346,10.218452453613281,-24.3377685546875,-10.25390625,-14.5416259765625
0.7712499,-1.3431471586227417,-2.1499931812286377,10.278307914733887,-26.6571044921875,-10.0555419921875,-14.6484375
0.7737499,-1.280897855758667,-2.190694570541382,10.323798179626465,-28.594970703125,-9.6435546875,-14.7552490234375
0.7762499,-1.158793568611145,-2.250549554824829,10.35252857208252,-30.9295654296875,-10.345458984375,-14.5416259765625
0.7787499,-1.0247182846069336,-2.346317768096924,10.378864288330078,-33.0047607421875,-10.4827880859375,-14.46533203125
0.7812499,-0.8786720037460327,-2.454056739807129,10.395624160766602,-35.0799560546875,-9.796142578125,-14.2822265625
0.7837499,-0.7326257228851318,-2.585737943649292,10.374075889587402,-37.0635986328125,-9.521484375,-13.6566162109375
0.7862499000000001,-0.5889736413955688,-2.7222073078155518,10.357316970825195,-38.9251708984375,-10.2386474609375,-12.5579833984375
0.7887499,-0.5027823448181152,-2.8419175148010254,10.314221382141113,-40.2984619140625,-10.528564453125,-11.7950439453125
0.7912499000000001,-0.4141969084739685,-2.985569477081299,10.256759643554688,-41.1834716796875,-11.29150390625,-10.6658935546875
0.7937499,-0.33518823981285095,-3.1004912853240967,10.228029251098633,-42.96875,-11.383056640625,-9.6588134765625
0.7962499000000001,-0.27054479718208313,-3.2178070545196533,10.220847129821777,-43.609619140625,-9.857177734375,-9.4451904296875
0.7987499,-0.21547815203666687,-3.3063924312591553,10.216058731079102,-44.1436767578125,-8.48388671875,-8.941650390625
0.8012499000000001,-0.19871874153614044,-3.3925838470458984,10.204087257385254,-44.403076171875,-8.48388671875,-7.7972412109375
0.8037499,-0.19153612852096558,-3.4763808250427246,10.153809547424316,-44.98291015625,-8.8043212890625,-6.6375732421875
0.8062499000000001,-0.1843535304069519,-3.555389642715454,10.096348762512207,-45.83740234375,-8.4991455078125,-6.28662109375
0.8087499,-0.1628057211637497,-3.6343982219696045,10.02691650390625,-46.32568359375,-6.3323974609375,-5.7525634765625
0.8112499000000001,-0.12210428714752197,-3.691859006881714,9.967061996459961,-47.4700927734375,-5.18798828125,-4.7607421875
0.8137499,-0.13407529890537262,-3.7158010005950928,9.911994934082031,-48.492431640625,-4.791259765625,-3.753662109375
0.8162499000000001,-0.1867477297782898,-3.734954595565796,9.775525093078613,-48.431396484375,-5.889892578125,-2.685546875
0.8187499,-0.24181437492370605,-3.7612907886505127,9.576807022094727,-47.882080078125,-8.1787109375,-2.01416015625
0.8212499000000001,-0.3280056416988373,-3.8091750144958496,9.32302188873291,-48.553466796875,-6.866455078125,-1.434326171875
0.8237499,-0.395043283700943,-3.8379054069519043,9.016563415527344,-48.492431640625,-4.39453125,-0.4425048828125
0.8262499000000001,-0.44771572947502136,-3.840299606323242,8.7484130859375,-45.95947265625,-5.1727294921875,0.1068115234375
0.8287499,-0.4812345504760742,-3.804386615753174,8.578424453735352,-42.694091796875,-5.9661865234375,0.1068115234375
0.8312499000000001,-0.5051765441894531,-3.7421371936798096,8.518569946289062,-39.703369140625,-7.1868896484375,0.1068115234375
0.8337499,-0.47644615173339844,-3.754108190536499,8.547300338745117,-37.4603271484375,-7.7056884765625,1.15966796875
0.8362499,-0.3998316824436188,-3.8067808151245117,8.647856712341309,-38.9556884765625,-7.232666015625,2.5787353515625
0.8387499,-0.2944868206977844,-3.890577793121338,8.757989883422852,-39.85595703125,-5.8441162109375,3.1890869140625
0.8412499,-0.16519992053508759,-3.9671921730041504,8.841787338256836,-39.5355224609375,-4.33349609375,3.387451171875
0.8437499,-0.05267243832349777,-3.9839515686035156,8.916007041931152,-39.36767578125,-3.2958984375,3.997802734375
0.8462499,0.026336219161748886,-3.9600095748901367,8.927978515625,-39.0625,-2.8839111328125,4.8980712890625
0.8487499000000001,0.06224924325942993,-3.892971992492676,8.908824920654297,-38.1011962890625,-2.3956298828125,5.6304931640625
0.8512499,0.08619125932455063,-3.8139634132385254,8.87051773071289,-36.3311767578125,-1.4495849609375,5.2947998046875
0.8537499000000001,0.10534487664699554,-3.708618402481079,8.860940933227539,-33.5235595703125,-1.5106201171875,5.4779052734375
0.8562499,0.12449848651885986,-3.5960910320281982,8.925583839416504,-30.364990234375,-1.861572265625,6.011962890625
0.8587499000000001,0.1628057211637497,-3.466804027557373,9.078812599182129,-28.3660888671875,-2.044677734375,6.2255859375
0.8612499,0.2082955539226532,-3.3446998596191406,9.332598686218262,-27.0843505859375,-1.800537109375,6.7901611328125
0.8637499000000001,0.2944868206977844,-3.2393548488616943,9.66299819946289,-25.7568359375,-1.007080078125,7.0648193359375
0.8662499,0.37828385829925537,-3.1435868740081787,10.04846477508545,-24.6124267578125,1.2359619140625,7.3089599609375
0.8687499000000001,0.48602294921875,-3.07415509223938,10.424354553222656,-22.15576171875,2.9296875,6.988525390625
0.8712499,0.5602431893348694,-3.00711727142334,10.757147789001465,-19.775390625,4.1656494140625,6.4239501953125
0.8737499000000001,0.586579442024231,-2.9305028915405273,10.984597206115723,-17.76123046875,6.6070556640625,6.4544677734375
0.8762499,0.5913678407669067,-2.868253707885742,11.113883972167969,-15.869140625,7.3699951171875,6.3934326171875
0.8787499000000001,0.5530605912208557,-2.801215887069702,11.152191162109375,-14.7857666015625,8.087158203125,6.5155029296875
0.8812499,0.4908113479614258,-2.7772738933563232,11.12346076965332,-13.5650634765625,9.3841552734375,6.805419921875
0.8837499000000001,0.4213795065879822,-2.7700912952423096,11.073183059692383,-13.427734375,10.5133056640625,7.3394775390625
0.8862499,0.30885201692581177,-2.8347349166870117,10.994174003601074,-12.5579833984375,10.711669921875,7.5531005859375
0.8887499000000001,0.1867477297782898,-2.9448680877685547,10.917559623718262,-10.833740234375,11.6119384765625,7.8887939453125
0.8912499,0.07182604819536209,-3.0861260890960693,10.831368446350098,-8.453369140625,11.9171142578125,7.7667236328125
0.8937499000000001,-0.016759412363171577,-3.2345664501190186,10.718840599060059,-5.1727294921875,12.1917724609375,7.110595703125
0.8962499,-0.06703764945268631,-3.318363666534424,10.587160110473633,-1.8768310546875,13.00048828125,6.0882568359375
0.8987499,-0.05985504388809204,-3.2848446369171143,10.431536674499512,0,13.5955810546875,5.8135986328125
0.9012499,-0.035913024097681046,-3.095702886581421,10.259154319763184,0.091552734375,13.5345458984375,5.9051513671875
0.9037499,0.011971008032560349,-2.762908697128296,10.08198356628418,-1.556396484375,13.8092041015625,5.9814453125
0.9062499,0.0454898327589035,-2.3918075561523438,9.895236015319824,-5.3253173828125,14.556884765625,6.195068359375
0.9087499,0.07422025501728058,-2.0925323963165283,9.744400978088379,-9.6435546875,14.923095703125,7.7667236328125
0.9112499000000001,0,-1.941697597503662,9.624691009521484,-13.36669921875,13.36669921875,9.70458984375
0.9137499,-0.06224924325942993,-1.987187385559082,9.459490776062012,-18.218994140625,15.2130126953125,9.5062255859375
0.9162499000000001,-0.17956513166427612,-2.169146776199341,9.32541561126709,-22.125244140625,16.0980224609375,9.3231201171875
0.9187499,-0.2585737705230713,-2.432508945465088,9.150638580322266,-22.3388671875,14.0533447265625,9.21630859375
0.9212499000000001,-0.304063618183136,-2.7437551021575928,8.956708908081055,-22.5982666015625,12.5885009765625,8.4381103515625
0.9237499,-0.3471592366695404,-3.028665065765381,8.803479194641113,-24.47509765625,14.4195556640625,8.3160400390625
0.9262499000000001,-0.38067805767059326,-3.2752678394317627,8.69095230102539,-24.6429443359375,13.6566162109375,8.23974609375
0.9287499,-0.4357447028160095,-3.4835634231567383,8.609549522399902,-22.9034423828125,12.26806640625,7.598876953125
0.9312499000000001,-0.48602294921875,-3.6607344150543213,8.5903959274292,-21.881103515625,13.031005859375,7.2479248046875
0.9337499,-0.5147533416748047,-3.8594532012939453,8.59997272491455,-20.81298828125,12.786865234375,6.8359375
0.9362499000000001,-0.5770025849342346,-4.082113742828369,8.614337921142578,-18.157958984375,13.3514404296875,6.317138671875
0.9387499,-0.6368576288223267,-4.311957359313965,8.604761123657227,-15.8233642578125,14.129638671875,6.2255859375
0.9412499000000001,-0.706289529800415,-4.532223701477051,8.561665534973145,-13.00048828125,13.7481689453125,5.7830810546875
0.9437499,-0.7709329724311829,-4.692635536193848,8.518569946289062,-10.8642578125,13.7481689453125,5.889892578125
0.9462499000000001,-0.7972691655158997,-4.788403511047363,8.463502883911133,-9.5672607421875,14.3585205078125,6.1187744140625
0.9487499,-0.790086567401886,-4.807557106018066,8.437167167663574,-8.4686279296875,14.5416259765625,6.500244140625
0.9512499000000001,-0.7374141216278076,-4.76924991607666,8.422801971435547,-7.6751708984375,14.83154296875,6.89697265625
0.9537499,-0.6703764796257019,-4.668693542480469,8.42040729522705,-7.232666015625,15.3045654296875,7.293701171875
0.9562499000000001,-0.5770025849342346,-4.534617900848389,8.451532363891602,-6.5460205078125,15.4266357421875,7.537841796875
0.9587499,-0.5219359993934631,-4.398148536682129,8.456320762634277,-5.1727294921875,15.655517578125,7.7056884765625
0.9612499,-0.45010992884635925,-4.247313976287842,8.47786808013916,-6.53076171875,17.1356201171875,8.392333984375
0.9637499,-0.42377370595932007,-4.129997730255127,8.480262756347656,-5.6610107421875,16.815185546875,8.5601806640625
0.9662499,-0.4118026793003082,-4.034229755401611,8.506598472595215,-4.0283203125,16.9219970703125,8.72802734375
0.9687499,-0.40462008118629456,-3.9624037742614746,8.564059257507324,-2.6092529296875,17.51708984375,8.9569091796875
0.9712499,-0.40222588181495667,-3.9217023849487305,8.676587104797363,-0.4425048828125,17.5323486328125,8.636474609375
0.9737499000000001,-0.3711012601852417,-3.8953661918640137,8.813055992126465,2.1209716796875,17.9443359375,8.2244873046875
0.9762499,-0.31364041566848755,-3.866635799407959,8.973467826843262,3.509521484375,18.9208984375,8.2550048828125
0.9787499000000001,-0.24181437492370605,-3.825934410095215,9.126696586608887,2.25830078125,20.477294921875,8.941650390625
0.9812499,-0.1867477297782898,-3.7612907886505127,9.275136947631836,1.6632080078125,21.759033203125,9.3231201171875
0.9837499000000001,-0.15801730751991272,-3.6727054119110107,9.394847869873047,2.7618408203125,21.8658447265625,9.27734375
0.9862499,-0.1604115068912506,-3.5865142345428467,9.48343276977539,4.8980712890625,21.7132568359375,9.3536376953125
0.9887499000000001,-0.181959331035614,-3.514688014984131,9.545681953430176,6.805419921875,21.4080810546875,9.490966796875
0.9912499,-0.1867477297782898,-3.4811692237854004,9.583989143371582,8.1939697265625,21.3775634765625,9.7808837890625
0.9937499000000001,-0.2082955539226532,-3.5003228187561035,9.607931137084961,9.4757080078125,21.820068359375,9.9639892578125
0.9962499,-0.2322375625371933,-3.5410242080688477,9.62947940826416,9.979248046875,23.0255126953125,10.07080078125
0.9987499000000001,-0.2944868206977844,-3.6080620288848877,9.653421401977539,10.3759765625,23.74267578125,10.6658935546875
1.0012499,-0.3758896589279175,-3.670311212539673,9.667786598205566,10.8184814453125,23.193359375,11.5509033203125
1.0037498999999999,-0.44532153010368347,-3.706224203109741,9.684545516967773,10.55908203125,22.8271484375,12.5579833984375
1.0062499,-0.4692635238170624,-3.7014358043670654,9.694122314453125,10.1318359375,23.2696533203125,13.18359375
1.0087499,-0.4405331015586853,-3.667917013168335,9.708487510681152,9.6588134765625,24.1546630859375,13.73291015625
1.0112499,-0.35673606395721436,-3.584120035171509,9.725247383117676,8.97216796875,25.1312255859375,14.2974853515625
1.0137498999999999,-0.2753331959247589,-3.4979286193847656,9.739612579345703,8.331298828125,26.611328125,14.22119140625
1.0162499,-0.21547815203666687,-3.406949043273926,9.715670585632324,8.7127685546875,27.40478515625,14.2059326171875
1.0187499,-0.19871874153614044,-3.359065055847168,9.622296333312988,9.4146728515625,25.9857177734375,14.2822265625
1.0212499,-0.23702596127986908,-3.3470940589904785,9.502586364746094,9.3536376953125,26.1688232421875,14.1448974609375
1.0237498999999999,-0.2992752194404602,-3.3686418533325195,9.35654067993164,8.2550048828125,26.30615234375,14.1143798828125
1.0262498999999998,-0.35434186458587646,-3.406949043273926,9.232041358947754,6.0272216796875,26.214599609375,14.1448974609375
1.0287499,-0.3926490843296051,-3.445256233215332,9.14345645904541,3.814697265625,25.482177734375,14.4195556640625
1.0312499,-0.3902548849582672,-3.464409828186035,9.097966194152832,1.800537109375,24.8260498046875,14.5721435546875
1.0337498999999999,-0.3423708379268646,-3.4811692237854004,9.090784072875977,0.030517578125,24.2767333984375,14.7705078125
1.0362498999999998,-0.26815059781074524,-3.488351821899414,9.141061782836914,-1.89208984375,24.2919921875,14.7552490234375
1.0387499,-0.1604115068912506,-3.485957622528076,9.220070838928223,-4.1046142578125,24.3682861328125,14.862060546875
1.0412499,-0.07422025501728058,-3.5051112174987793,9.299078941345215,-5.5084228515625,23.9105224609375,14.7705078125
1.0437499,-0.016759412363171577,-3.5410242080688477,9.35893440246582,-7.354736328125,24.7650146484375,15.3045654296875
1.0462498999999998,-0.0071826050989329815,-3.6320040225982666,9.370905876159668,-9.674072265625,25.3753662109375,15.68603515625
1.0487499,-0.05985504388809204,-3.7636849880218506,9.378087997436523,-11.8255615234375,26.18408203125,16.4642333984375
1.0512499,-0.1412578970193863,-3.931279182434082,9.385271072387695,-13.5650634765625,26.702880859375,17.6544189453125
1.0537499,-0.24660277366638184,-4.091690540313721,9.425971984863281,-15.106201171875,27.5115966796875,18.829345703125
1.0562498999999999,-0.3471592366695404,-4.211400985717773,9.490615844726562,-14.3890380859375,27.3895263671875,20.050048828125
1.0587499,-0.44532153010368347,-4.304774761199951,9.59596061706543,-12.39013671875,26.55029296875,21.5606689453125
1.0612499,-0.5099649429321289,-4.357447147369385,9.694122314453125,-11.0321044921875,26.7333984375,21.7742919921875
1.0637499,-0.5602431893348694,-4.417302131652832,9.84495735168457,-11.9476318359375,28.6407470703125,22.369384765625
1.0662498999999999,-0.5985504388809204,-4.458003520965576,9.995792388916016,-14.58740234375,30.45654296875,23.3154296875
1.0687499,-0.6344634294509888,-4.525041103363037,10.132261276245117,-17.08984375,32.135009765625,24.4903564453125
1.0712499,-0.6823474764823914,-4.594472885131836,10.24239444732666,-19.012451171875,33.2183837890625,26.3214111328125
1.0737499,-0.7445967197418213,-4.663905143737793,10.271124839782715,-21.0113525390625,35.125732421875,27.52685546875
1.0762498999999999,-0.8188169598579407,-4.76924991607666,10.228029251098633,-22.9339599609375,37.1551513671875,29.052734375
1.0787499,-0.9050082564353943,-4.855441093444824,10.163386344909668,-23.7579345703125,38.970947265625,30.3802490234375
1.0812499,-1.01753568649292,-4.9583916664123535,10.070012092590332,-24.0020751953125,40.313720703125,31.402587890625
1.0837499,-1.1276689767837524,-5.066130638122559,9.986215591430664,-24.0936279296875,40.6494140625,32.53173828125
1.0862498999999999,-1.2449848651885986,-5.178658485412598,9.916783332824707,-24.4140625,41.6717529296875,33.905029296875
1.0887499,-1.3431471586227417,-5.243301868438721,9.859322547912598,-25.2227783203125,43.9605712890625,35.491943359375
1.0912499,-1.4197616577148438,-5.279214859008789,9.780313491821289,-25.0701904296875,45.074462890625,36.6363525390625
1.0937499,-1.479616641998291,-5.238513469696045,9.694122314453125,-24.322509765625,45.7611083984375,38.2080078125
1.0962498999999999,-1.5203180313110352,-5.1595048904418945,9.564835548400879,-23.4375,46.417236328125,39.1082763671875
1.0987498999999998,-1.5298948287963867,-5.085284233093262,9.445125579833984,-22.6287841796875,47.943115234375,38.87939453125
1.1012499,-1.525106430053711,-4.9799394607543945,9.339780807495117,-22.5677490234375,49.0264892578125,39.0472412109375
1.1037499,-1.5322890281677246,-4.903325080871582,9.224859237670898,-22.674560546875,48.583984375,39.73388671875
1.1062499,-1.556231141090393,-4.821922302246094,9.08838939666748,-23.1170654296875,47.54638671875,40.4205322265625
1.1087498999999998,-1.6496049165725708,-4.747702121734619,8.916007041931152,-23.5595703125,47.0428466796875,40.6341552734375
1.1112499,-1.7908629179000854,-4.675876140594482,8.719682693481445,-22.9339599609375,46.9512939453125,39.61181640625
1.1137499,-1.9560627937316895,-4.639962673187256,8.537723541259766,-22.186279296875,45.83740234375,38.6505126953125
1.1162499,-2.10210919380188,-4.6255974769592285,8.367734909057617,-22.003173828125,44.1131591796875,38.1317138671875
1.1187498999999999,-2.2433669567108154,-4.630385875701904,8.202534675598145,-22.03369140625,43.853759765625,37.3687744140625
1.1212499,-2.3558945655822754,-4.649539470672607,8.010998725891113,-21.4385986328125,42.78564453125,35.736083984375
1.1237499,-2.4612393379211426,-4.618414878845215,7.848193168640137,-21.331787109375,41.290283203125,33.9813232421875
1.1262499,-2.5713725090026855,-4.496310710906982,7.704541206359863,-21.8353271484375,39.4744873046875,32.9437255859375
1.1287498999999999,-2.6575639247894287,-4.350264549255371,7.594407558441162,-22.76611328125,36.4227294921875,32.958984375
1.1312499,-2.7078421115875244,-4.168305397033691,7.5201873779296875,-25.32958984375,33.935546875,32.04345703125
1.1337499,-2.7246015071868896,-4.015076160430908,7.484274387359619,-26.1077880859375,32.5164794921875,30.853271484375
1.1362499,-2.6815059185028076,-3.928884983062744,7.491456985473633,-25.4669189453125,30.3497314453125,29.6630859375
1.1387498999999999,-2.607285737991333,-3.8546648025512695,7.570465564727783,-26.9012451171875,29.47998046875,28.2440185546875
1.1412499,-2.5019407272338867,-3.8115692138671875,7.661445617675781,-29.449462890625,29.11376953125,27.5421142578125
1.1437499,-2.4013843536376953,-3.7493197917938232,7.750030994415283,-32.684326171875,27.5115966796875,27.313232421875
1.1462499,-2.3056161403656006,-3.6774938106536865,7.769184589385986,-35.9954833984375,25.69580078125,26.4892578125
1.1487498999999999,-2.207453966140747,-3.5889084339141846,7.754819393157959,-38.57421875,23.162841796875,25.7568359375
1.1512499,-2.099714994430542,-3.5170822143554688,7.704541206359863,-40.3289794921875,21.636962890625,24.71923828125
1.1537499,-1.9752163887023926,-3.469198226928711,7.6566572189331055,-42.4957275390625,20.8892822265625,23.590087890625
1.1562499,-1.8339585065841675,-3.4787750244140625,7.623138427734375,-45.074462890625,19.8822021484375,22.5830078125
1.1587498999999999,-1.7118542194366455,-3.533841609954834,7.589619159698486,-46.875,18.829345703125,22.5067138671875
1.1612498999999998,-1.580173134803772,-3.6176388263702393,7.558494567871094,-48.248291015625,17.547607421875,22.52197265625
1.1637499,-1.482010841369629,-3.7038300037384033,7.515398979187012,-50.628662109375,16.0675048828125,21.91162109375
1.1662499,-1.400607943534851,-3.754108190536499,7.47230339050293,-52.459716796875,14.3280029296875,21.5911865234375
1.1687499,-1.3551181554794312,-3.758896589279175,7.42681360244751,-53.924560546875,13.2598876953125,20.3704833984375
1.1712498999999998,-1.3766659498214722,-3.737348794937134,7.362170219421387,-53.7872314453125,12.4053955078125,19.0582275390625
1.1737499,-1.436521053314209,-3.689464807510376,7.292738437652588,-52.4444580078125,11.1846923828125,16.54052734375
1.1762499,-1.525106430053711,-3.663128614425659,7.206547260284424,-50.140380859375,9.521484375,13.1378173828125
1.1787499,-1.5466543436050415,-3.6942532062530518,7.096413612365723,-47.4700927734375,7.1258544921875,10.43701171875
1.1812498999999999,-1.4413094520568848,-3.8163576126098633,7.062894821166992,-44.830322265625,5.06591796875,9.002685546875
1.1837499,-1.1803414821624756,-4.036623954772949,7.110779285430908,-44.891357421875,3.2196044921875,8.7432861328125
1.1862499,-0.8188169598579407,-4.355052947998047,7.2568254470825195,-44.8150634765625,2.716064453125,8.5906982421875
1.1887499,-0.4429273009300232,-4.666299343109131,7.50582218170166,-43.670654296875,3.6468505859375,8.6212158203125
1.1912498999999999,-0.10534487664699554,-4.944026470184326,7.795520782470703,-40.5426025390625,3.936767578125,8.1024169921875
1.1937499,0.15562310814857483,-5.128379821777344,8.106766700744629,-35.6292724609375,3.3416748046875,7.5225830078125
1.1962499,0.35913026332855225,-5.236119270324707,8.355764389038086,-31.5704345703125,5.06591796875,6.4544677734375
1.1987499,0.4884171485900879,-5.262455463409424,8.51138687133789,-27.7252197265625,9.09423828125,4.638671875
1.2012498999999999,0.507570743560791,-5.245696067810059,8.497021675109863,-24.505615234375,11.199951171875,3.23486328125
1.2037499,0.4429273009300232,-5.16429328918457,8.31985092163086,-22.3846435546875,12.5579833984375,2.0904541015625
1.2062499,0.22026655077934265,-5.035006046295166,8.063671112060547,-20.2484130859375,13.0767822265625,1.4495849609375
1.2087499,-0.1149216815829277,-4.831499099731445,7.778761386871338,-16.9219970703125,13.0157470703125,-0.152587890625
1.2112498999999999,-0.545877993106842,-4.58968448638916,7.522581577301025,-12.5579833984375,12.8021240234375,-2.9449462890625
1.2137499,-0.9600749015808105,-4.338293552398682,7.280767440795898,-7.4462890625,11.71875,-5.8135986328125
1.2162499,-1.3335703611373901,-4.1156325340271,7.06528902053833,-1.6632080078125,11.3372802734375,-7.781982421875
1.2187499,-1.5945383310317993,-3.9839515686035156,6.852205276489258,0.6561279296875,12.6190185546875,-9.46044921875
1.2212498999999999,-1.7980455160140991,-3.952826976776123,6.691793918609619,0.5950927734375,12.63427734375,-10.92529296875
1.2237498999999998,-2.0159177780151367,-4.003105163574219,6.581660270690918,1.15966796875,11.7950439453125,-10.711669921875
1.2262499,-2.190694570541382,-4.1156325340271,6.514622688293457,2.044677734375,9.246826171875,-9.6893310546875
1.2287499,-2.3056161403656006,-4.242525577545166,6.490680694580078,3.5552978515625,6.1798095703125,-8.5296630859375
1.2312499,-2.3127987384796143,-4.352658748626709,6.543353080749512,4.0740966796875,3.3111572265625,-6.683349609375
1.2337498999999998,-2.248155355453491,-4.398148536682129,6.607996463775635,4.1656494140625,4.302978515625,-6.6986083984375
1.2362499,-2.142810583114624,-4.400542736053467,6.689399719238281,2.9144287109375,6.072998046875,-7.354736328125
1.2387499,-2.0829553604125977,-4.326322555541992,6.754043102264404,3.753662109375,5.645751953125,-7.87353515625
1.2412499,-2.075772762298584,-4.2090067863464355,6.794744491577148,5.279541015625,4.69970703125,-8.1939697265625
1.2437498999999999,-2.169146776199341,-4.07014274597168,6.763619899749756,4.6539306640625,4.0740966796875,-8.8043212890625
1.2462499,-2.296039342880249,-3.93367338180542,6.739677906036377,2.5634765625,4.058837890625,-10.223388671875
1.2487499,-2.473210334777832,-3.8139634132385254,6.72531270980835,0.5340576171875,2.9754638671875,-9.796142578125
1.2512499,-2.647987127304077,-3.754108190536499,6.7061591148376465,-1.8310546875,1.7242431640625,-9.1552734375
1.2537498999999999,-2.7126305103302,-3.778050184249878,6.72531270980835,-4.8828125,1.1749267578125,-10.0555419921875
1.2562499,-2.7006595134735107,-3.912125587463379,6.75883150100708,-2.716064453125,-2.62451171875,-10.1470947265625
1.2587499,-2.3774423599243164,-4.079719543457031,6.811503887176514,4.913330078125,-14.3890380859375,-8.331298828125
1.2612499,-1.8962076902389526,-4.307168960571289,6.995857238769531,0.274658203125,-9.3841552734375,-13.4735107421875
1.2637498999999999,-1.2210428714752197,-4.479551315307617,7.331045627593994,-0.8544921875,-5.43212890625,-12.847900390625
1.2662499,-0.5434837937355042,-4.627991676330566,7.726089000701904,-1.5716552734375,-5.9967041015625,-11.993408203125
1.2687499,-0.014365210197865963,-4.687847137451172,8.17141056060791,-2.8533935546875,-5.8135986328125,-12.0086669921875
1.2712499,0.31842881441116333,-4.69024133682251,8.51138687133789,-4.486083984375,-2.9144287109375,-12.3291015625
1.2737498999999999,0.44532153010368347,-4.611232280731201,8.736441612243652,-7.781982421875,-1.7547607421875,-12.481689453125
1.2762499,0.31842881441116333,-4.462791919708252,8.87291145324707,-11.0931396484375,-2.25830078125,-10.3912353515625
1.2787499,0.05506663769483566,-4.3191399574279785,8.882488250732422,-12.1917724609375,-1.2664794921875,-10.25390625
1.2812499,-0.33039984107017517,-4.189853191375732,8.827422142028809,-10.223388671875,-1.800537109375,-10.650634765625
1.2837498999999999,-0.6440402865409851,-4.125209331512451,8.757989883422852,-7.0037841796875,-4.4097900390625,-9.9639892578125
1.2862498999999998,-0.8475474119186401,-4.146757125854492,8.791508674621582,-4.7454833984375,-6.2255859375,-9.3231201171875
1.2887499,-0.933738648891449,-4.2760443687438965,8.947132110595703,-0.8392333984375,-6.04248046875,-9.3536376953125
1.2912499,-0.9768342971801758,-4.4939165115356445,9.2033109664917,3.1890869140625,-3.7841796875,-10.467529296875
1.2937499,-1.0582371950149536,-4.750096321105957,9.464279174804688,6.8817138671875,-2.685546875,-11.5814208984375
1.2962498999999998,-1.1755530834197998,-4.994304656982422,9.66299819946289,11.5814208984375,-2.960205078125,-12.3443603515625
1.2987499,-1.357512354850769,-5.142745018005371,9.78989028930664,16.78466796875,-4.21142578125,-12.2833251953125
1.3012499,-1.5466543436050415,-5.183446884155273,9.873687744140625,21.54541015625,-3.021240234375,-13.031005859375
1.3037499,-1.7884687185287476,-5.094861030578613,9.962273597717285,23.6663818359375,-2.593994140625,-12.7105712890625
1.3062498999999999,-2.1116859912872314,-4.912901878356934,10.029311180114746,24.749755859375,-2.8228759765625,-12.02392578125
1.3087499,-2.715024709701538,-4.659116744995117,10.005369186401367,25.146484375,-3.7078857421875,-12.0391845703125
1.3112499,-3.2345664501190186,-4.314351558685303,9.813833236694336,21.66748046875,-6.1187744140625,-12.8021240234375
1.3137499,-3.6535518169403076,-3.794809579849243,9.612719535827637,19.04296875,-10.650634765625,-12.7410888671875
1.3162498999999999,-3.7229835987091064,-3.177105665206909,9.394847869873047,22.4151611328125,-11.0931396484375,-11.41357421875
1.3187499,-3.378218650817871,-2.4612393379211426,9.315838813781738,20.3399658203125,-6.0272216796875,-11.810302734375
1.3212499,-2.868253707885742,-1.8052281141281128,9.318233489990234,15.19775390625,-4.0130615234375,-15.8538818359375
1.3237499,-2.4444799423217773,-1.3263877630233765,9.30386734008789,15.5181884765625,-3.143310546875,-21.17919921875
1.3262498999999999,-2.183511972427368,-1.0821791887283325,9.220070838928223,20.2178955078125,-2.6397705078125,-25.543212890625
1.3287499,-2.099714994430542,-1.0630255937576294,9.026140213012695,25.482177734375,-4.5166015625,-28.778076171875
1.3312499,-2.169146776199341,-1.2713210582733154,8.791508674621582,27.5726318359375,-6.1492919921875,-30.792236328125
1.3337499,-2.22660756111145,-1.6184803247451782,8.518569946289062,26.2603759765625,-6.103515625,-31.92138671875
1.3362498999999999,-2.27209734916687,-2.3798365592956543,8.130708694458008,16.7388916015625,-8.48388671875,-33.4930419921875
1.3387499,-2.27209734916687,-2.3798365592956543,8.130708694458008,16.7388916015625,-8.48388671875,-33.4930419921875
1.3412499,-2.209848165512085,-2.7557260990142822,7.9846625328063965,4.82177734375,-6.8817138671875,-33.87451171875
1.3437499,-2.209848165512085,-2.7557260990142822,7.9846625328063965,4.82177734375,-6.8817138671875,-33.87451171875
1.3462498999999999,-2.449268341064453,-2.779668092727661,7.807491779327393,4.0740966796875,-7.904052734375,-39.48974609375
1.3487498999999998,-2.449268341064453,-2.779668092727661,7.807491779327393,4.0740966796875,-7.904052734375,-39.48974609375
1.3512499,-2.889801502227783,-3.0310592651367188,7.637503623962402,1.5411376953125,-8.7738037109375,-40.557861328125
1.3537499,-2.889801502227783,-3.0310592651367188,7.637503623962402,1.5411376953125,-8.7738037109375,-40.557861328125
1.3562499,-2.894589900970459,-3.73016619682312,7.735665798187256,-6.7291259765625,-7.110595703125,-39.703369140625
1.3587498999999998,-2.894589900970459,-3.73016619682312,7.735665798187256,-6.7291259765625,-7.110595703125,-39.703369140625
1.3612499,-2.499546527862549,-4.5394062995910645,7.9631147384643555,-18.2037353515625,-3.326416015625,-37.04833984375
1.3637499,-2.499546527862549,-4.5394062995910645,7.9631147384643555,-18.2037353515625,-3.326416015625,-37.04833984375
1.3662499,-2.27209734916687,-5.197812080383301,7.939172744750977,-24.9481201171875,-0.8392333984375,-35.64453125
1.3687498999999999,-2.27209734916687,-5.197812080383301,7.939172744750977,-24.9481201171875,-0.8392333984375,-35.64453125
1.3712499,-2.43011474609375,-5.604825973510742,7.785943984985352,-24.4903564453125,-0.946044921875,-35.4766845703125
1.3737499,-2.43011474609375,-5.604825973510742,7.785943984985352,-24.4903564453125,-0.946044921875,-35.4766845703125
1.3762499,-2.695871114730835,-5.743690013885498,7.807491779327393,-29.9530029296875,-2.0599365234375,-34.5916748046875
1.3787498999999999,-2.695871114730835,-5.743690013885498,7.807491779327393,-29.9530029296875,-2.0599365234375,-34.5916748046875
1.3812499,-2.736572504043579,-5.56173038482666,7.920019149780273,-35.2020263671875,-1.89208984375,-33.1878662109375
1.3837499,-2.736572504043579,-5.56173038482666,7.920019149780273,-35.2020263671875,-1.89208984375,-33.1878662109375
1.3862499,-2.513911724090576,-5.257667064666748,7.943961143493652,-39.093017578125,-1.9073486328125,-32.3944091796875
1.3887498999999999,-2.513911724090576,-5.257667064666748,7.943961143493652,-39.093017578125,-1.9073486328125,-32.3944091796875
1.3912499,-2.389413356781006,-5.07570743560791,7.7763671875,-39.5050048828125,-0.3662109375,-34.332275390625
1.3937499,-2.389413356781006,-5.07570743560791,7.7763671875,-39.5050048828125,-0.3662109375,-34.332275390625
1.3962499,-2.8371291160583496,-4.886565685272217,7.577648162841797,-45.562744140625,0.3204345703125,-37.0025634765625
1.3987498999999999,-2.8371291160583496,-4.886565685272217,7.577648162841797,-45.562744140625,0.3204345703125,-37.0025634765625
1.4012499,-3.514688014984131,-4.462791919708252,7.627926826477051,-45.0592041015625,-7.415771484375,-39.276123046875
1.4037499,-3.514688014984131,-4.462791919708252,7.627926826477051,-45.0592041015625,-7.415771484375,-39.276123046875
1.4062499,-3.7421371936798096,-4.0294413566589355,7.824251174926758,-51.0406494140625,-9.2010498046875,-39.8406982421875
1.4087498999999999,-3.7421371936798096,-4.0294413566589355,7.824251174926758,-51.0406494140625,-9.2010498046875,-39.8406982421875
1.4112498999999998,-3.179499864578247,-3.8283286094665527,8.159439086914062,-50.9796142578125,-12.7410888671875,-39.24560546875
1.4137499,-3.179499864578247,-3.8283286094665527,8.159439086914062,-50.9796142578125,-12.7410888671875,-39.24560546875
1.4162499,-2.6024973392486572,-4.005499362945557,8.635885238647461,-55.633544921875,-9.490966796875,-40.985107421875
1.4187499,-2.6024973392486572,-4.005499362945557,8.635885238647461,-55.633544921875,-9.490966796875,-40.985107421875
1.4212498999999998,-2.4468741416931152,-4.474762916564941,9.10993766784668,-52.06298828125,-11.04736328125,-43.0145263671875
1.4237499,-2.4468741416931152,-4.474762916564941,9.10993766784668,-52.06298828125,-11.04736328125,-43.0145263671875
1.4262499,-1.9943699836730957,-4.960785865783691,9.63187313079834,-47.7294921875,-15.07568359375,-44.61669921875
1.4287499,-1.9943699836730957,-4.960785865783691,9.63187313079834,-47.7294921875,-15.07568359375,-44.61669921875
1.4312498999999999,-1.53707754611969,-5.525817394256592,9.983820915222168,-46.3104248046875,-8.7890625,-45.013427734375
1.4337499,-1.53707754611969,-5.525817394256592,9.983820915222168,-46.3104248046875,-8.7890625,-45.013427734375
1.4362499,-1.6974890232086182,-6.189011573791504,10.103530883789062,-35.7513427734375,-7.781982421875,-44.219970703125
1.4387499,-1.6974890232086182,-6.189011573791504,10.103530883789062,-35.7513427734375,-7.781982421875,-44.219970703125
1.4412498999999999,-2.183511972427368,-6.830657482147217,10.201693534851074,-27.4200439453125,-4.5166015625,-41.2445068359375
1.4437499,-2.183511972427368,-6.830657482147217,10.201693534851074,-27.4200439453125,-4.5166015625,-41.2445068359375
1.4462499,-2.5067291259765625,-7.163451671600342,10.405200958251953,-25.177001953125,-5.859375,-39.1845703125
1.4487499,-2.5067291259765625,-7.163451671600342,10.405200958251953,-25.177001953125,-5.859375,-39.1845703125
1.4512498999999999,-2.7006595134735107,-6.9455790519714355,10.558429718017578,-23.3612060546875,-4.8828125,-39.9932861328125
1.4537499,-2.7006595134735107,-6.9455790519714355,10.558429718017578,-23.3612060546875,-4.8828125,-39.9932861328125
1.4562499,-2.896984100341797,-6.426037311553955,10.347740173339844,-20.2178955078125,-2.4261474609375,-38.4063720703125
1.4587499,-2.896984100341797,-6.426037311553955,10.347740173339844,-20.2178955078125,-2.4261474609375,-38.4063720703125
1.4612498999999999,-2.7676970958709717,-5.731719017028809,10.11789608001709,-12.0086669921875,-6.500244140625,-36.1328125
1.4637499,-2.7676970958709717,-5.731719017028809,10.11789608001709,-12.0086669921875,-6.500244140625,-36.1328125
1.4662499,-1.941697597503662,-4.98472785949707,10.314221382141113,-5.6610107421875,-9.0179443359375,-38.26904296875
1.4687499,-1.941697597503662,-4.98472785949707,10.314221382141113,-5.6610107421875,-9.0179443359375,-38.26904296875
1.4712498999999999,-1.0295066833496094,-4.534617900848389,10.56800651550293,3.326416015625,-5.0201416015625,-41.046142578125
1.4737498999999998,-1.0295066833496094,-4.534617900848389,10.56800651550293,3.326416015625,-5.0201416015625,-41.046142578125
1.4762499,-1.01753568649292,-4.323928356170654,10.445901870727539,9.7808837890625,-5.218505859375,-43.3807373046875
1.4787499,-1.01753568649292,-4.323928356170654,10.445901870727539,9.7808837890625,-5.218505859375,-43.3807373046875
1.4812499,-1.7310078144073486,-4.24970817565918,10.036493301391602,9.09423828125,-9.46044921875,-43.7469482421875
1.4837498999999998,-1.7310078144073486,-4.24970817565918,10.036493301391602,9.09423828125,-9.46044921875,-43.7469482421875
1.4862499,-2.188300371170044,-4.446032524108887,9.828198432922363,5.8746337890625,-9.490966796875,-42.2821044921875
1.4887499,-2.188300371170044,-4.446032524108887,9.828198432922363,5.8746337890625,-9.490966796875,-42.2821044921875
1.4912499,-1.9488801956176758,-4.896142482757568,10.041281700134277,4.150390625,-8.9874267578125,-40.1153564453125
1.4937498999999999,-1.9488801956176758,-4.896142482757568,10.041281700134277,4.150390625,-8.9874267578125,-40.1153564453125
1.4962499,-1.3718775510787964,-5.386953830718994,10.359710693359375,1.007080078125,-6.3629150390625,-38.0096435546875
1.4987499,-1.3718775510787964,-5.386953830718994,10.359710693359375,1.007080078125,-6.3629150390625,-38.0096435546875
1.5012499,-1.0103530883789062,-5.801150798797607,10.381258964538574,-0.3814697265625,-4.0130615234375,-35.5987548828125
1.5037498999999999,-1.0103530883789062,-5.801150798797607,10.381258964538574,-0.3814697265625,-4.0130615234375,-35.5987548828125
1.5062499,-0.9552865028381348,-6.160281181335449,10.005369186401367,0.54931640625,-1.3580322265625,-33.294677734375
1.5087499,-0.9552865028381348,-6.160281181335449,10.005369186401367,0.54931640625,-1.3580322265625,-33.294677734375
1.5112499,-0.9840168952941895,-6.445190906524658,9.519346237182617,-1.9378662109375,1.922607421875,-31.1737060546875
1.5137498999999999,-0.9840168952941895,-6.445190906524658,9.519346237182617,-1.9378662109375,1.922607421875,-31.1737060546875
1.5162499,-0.9169792532920837,-6.5912370681762695,9.210494041442871,-3.9520263671875,4.058837890625,-30.0750732421875
1.5187499,-0.8619126081466675,-6.524199485778809,9.126696586608887,-0.7781982421875,3.0517578125,-30.3192138671875
1.5212499,-0.8762778043746948,-6.31829833984375,9.050082206726074,1.3427734375,6.8817138671875,-31.1737060546875
1.5237498999999999,-1.0079588890075684,-6.009446144104004,9.014169692993164,3.3111572265625,8.941650390625,-32.562255859375
1.5262499,-1.3000515699386597,-5.710171222686768,9.045293807983398,8.23974609375,7.9498291015625,-33.660888671875
1.5287499,-1.7094600200653076,-5.51624059677124,9.165003776550293,15.0299072265625,6.53076171875,-34.4085693359375
1.5312499,-2.1116859912872314,-5.4875102043151855,9.337387084960938,22.52197265625,4.94384765625,-35.5072021484375
1.5337498999999999,-2.4612393379211426,-5.612008571624756,9.569623947143555,28.7017822265625,5.6304931640625,-36.4990234375
1.5362499,-2.650381326675415,-5.805939197540283,9.773131370544434,33.660888671875,6.16455078125,-37.750244140625
1.5387499,-2.691082715988159,-5.942408561706543,9.895236015319824,37.506103515625,6.1798095703125,-39.2608642578125
1.5412499,-2.612074136734009,-5.906495571136475,9.86650562286377,40.191650390625,7.7972412109375,-40.10009765625
1.5437499,-2.4229321479797363,-5.6455278396606445,9.643844604492188,42.6483154296875,7.0037841796875,-40.313720703125
1.5462498999999998,-2.1715409755706787,-5.202600479125977,9.165003776550293,42.9840087890625,4.119873046875,-40.283203125
1.5487499,-1.8698714971542358,-4.687847137451172,8.525752067565918,43.609619140625,2.593994140625,-41.1376953125
1.5512499,-1.5538369417190552,-4.141968727111816,7.862558364868164,42.6788330078125,3.72314453125,-43.5943603515625
1.5537499,-1.256955862045288,-3.646369218826294,7.328651428222656,39.764404296875,4.2572021484375,-46.1883544921875
1.5562498999999999,-1.05105459690094,-3.201047658920288,7.0341644287109375,34.1644287109375,2.8533935546875,-47.4853515625
1.5587499,-1.0127472877502441,-2.920926094055176,6.943184852600098,29.998779296875,2.593994140625,-48.5076904296875
1.5612499,-1.7046716213226318,-3.1507694721221924,6.904877662658691,27.496337890625,3.9520263671875,-50.079345703125
1.5637499,-2.0254945755004883,-3.445256233215332,7.079654216766357,18.2342529296875,8.2855224609375,-53.192138671875
1.5662498999999999,-2.205059766769409,-3.8379054069519043,7.295132637023926,19.6685791015625,-0.30517578125,-49.6978759765625
1.5687499,-1.7334020137786865,-3.9193081855773926,7.5968017578125,26.5350341796875,-2.1209716796875,-42.236328125
1.5712499,-0.5434837937355042,-3.6750996112823486,7.879317760467529,12.1307373046875,3.2501220703125,-42.5567626953125
1.5737499,0.6153098344802856,-3.404554843902588,7.886500358581543,5.4473876953125,2.0904541015625,-46.93603515625
1.5762498999999999,1.3431471586227417,-3.332728862762451,7.790732383728027,10.3759765625,9.9945068359375,-49.1180419921875
1.5787499,1.5442601442337036,-3.56017804145813,7.613561630249023,17.0745849609375,16.5557861328125,-48.6297607421875
1.5812499,1.256955862045288,-3.998316764831543,7.493851184844971,17.88330078125,14.892578125,-46.966552734375
1.5837499,0.6919242739677429,-4.5154643058776855,7.395689010620117,14.2974853515625,12.542724609375,-44.830322265625
1.5862498999999999,0.13407529890537262,-4.975151062011719,7.240066051483154,10.6964111328125,11.5203857421875,-41.1834716796875
1.5887499,-0.17477671802043915,-5.284003257751465,6.971915245056152,6.6375732421875,11.3983154296875,-38.9251708984375
1.5912499,-0.22505496442317963,-5.406107425689697,6.677428722381592,1.15966796875,12.1002197265625,-37.5823974609375
1.5937499,-0.07422025501728058,-5.365406036376953,6.392518520355225,-0.7476806640625,13.092041015625,-35.8428955078125
1.5962498999999999,0.14604631066322327,-5.240907669067383,6.215347766876221,-1.678466796875,13.0157470703125,-34.85107421875
1.5987499,0.363918662071228,-5.114014625549316,6.143521785736084,-2.50244140625,13.0767822265625,-34.1949462890625
1.6012499,0.4908113479614258,-5.04218864440918,6.184223175048828,-2.777099609375,13.0157470703125,-33.0963134765625
1.6037499,0.5602431893348694,-5.044582843780518,6.313509941101074,-4.2266845703125,13.7481689453125,-31.79931640625
1.6062499,0.5793967843055725,-5.116408824920654,6.528987884521484,-7.110595703125,14.83154296875,-31.036376953125
1.6087498999999998,0.5674257874488831,-5.231330871582031,6.768408298492432,-10.284423828125,15.289306640625,-29.693603515625
1.6112499,0.5506663918495178,-5.382165431976318,7.0126166343688965,-12.3291015625,15.2740478515625,-28.2440185546875
1.6137499,0.5339069962501526,-5.578489780426025,7.24485445022583,-14.312744140625,15.5792236328125,-26.947021484375
1.6162499,0.5219359993934631,-5.815515995025635,7.481880187988281,-16.937255859375,16.265869140625,-24.993896484375
1.6187498999999999,0.5147533416748047,-6.071695327758789,7.745242595672607,-19.866943359375,17.5018310546875,-22.5982666015625
1.6212499,0.5027823448181152,-6.308721542358398,8.034940719604492,-23.2391357421875,19.2413330078125,-20.44677734375
1.6237499,0.5219359993934631,-6.495469093322754,8.336610794067383,-26.4434814453125,20.8892822265625,-17.9901123046875
1.6262499,0.5147533416748047,-6.598419666290283,8.638279914855957,-27.9541015625,23.040771484375,-15.0604248046875
1.6287498999999999,0.47405192255973816,-6.6391215324401855,8.863334655761719,-29.266357421875,25.9857177734375,-13.0767822265625
1.6312499,0.40222588181495667,-6.619967937469482,9.066842079162598,-32.8826904296875,25.360107421875,-11.5814208984375
1.6337499,0.27054479718208313,-6.581660270690918,9.215282440185547,-34.393310546875,25.5584716796875,-9.9029541015625
1.6362499,0.11971008777618408,-6.54574728012085,9.39245319366455,-35.4766845703125,27.64892578125,-8.2855224609375
1.6387498999999999,-0.021547814831137657,-6.507440090179443,9.619902610778809,-37.6434326171875,28.411865234375,-6.0272216796875
1.6412499,-0.15801730751991272,-6.490680694580078,9.904812812805176,-40.22216796875,29.0374755859375,-4.0130615234375
1.6437499,-0.2992752194404602,-6.464344501495361,10.194510459899902,-42.3583984375,30.8837890625,-2.44140625
1.6462499,-0.45250412821769714,-6.426037311553955,10.448296546936035,-44.403076171875,32.1502685546875,-0.91552734375
1.6487498999999999,-0.5961562395095825,-6.368576526641846,10.620678901672363,-45.9136962890625,32.2418212890625,0.335693359375
1.6512499,-0.727837324142456,-6.299144744873047,10.704475402832031,-46.5087890625,32.470703125,2.2430419921875
1.6537499,-0.7972691655158997,-6.234501361846924,10.69489860534668,-47.0123291015625,33.3709716796875,4.08935546875
1.6562499,-0.8379706144332886,-6.191405773162842,10.606313705444336,-46.905517578125,34.48486328125,5.79833984375
1.6587498999999999,-0.8547300100326538,-6.172252178192139,10.436325073242188,-47.271728515625,35.186767578125,7.232666015625
1.6612499,-0.8882488012313843,-6.1267619132995605,10.20648193359375,-46.875,34.881591796875,7.9498291015625
1.6637499,-0.9648633003234863,-6.023811340332031,9.873687744140625,-46.8292236328125,34.210205078125,8.026123046875
1.6662499,-1.0749965906143188,-5.801150798797607,9.461885452270508,-47.119140625,32.7606201171875,7.75146484375
1.6687499,-1.2066776752471924,-5.434837818145752,8.966285705566406,-46.7071533203125,30.09033203125,6.561279296875
1.6712498999999998,-1.3048399686813354,-4.917690277099609,8.463502883911133,-45.623779296875,26.8707275390625,5.2490234375
1.6737499,-1.3670891523361206,-4.2975921630859375,7.9846625328063965,-45.7305908203125,23.651123046875,3.5858154296875
1.6762499,-1.3718775510787964,-3.648763418197632,7.575253963470459,-47.0123291015625,21.1334228515625,1.15966796875
1.6787499,-1.3455413579940796,-3.0789434909820557,7.237671852111816,-48.4466552734375,18.280029296875,-1.3275146484375
1.6812498999999999,-1.3048399686813354,-2.6862943172454834,6.964732646942139,-48.4161376953125,14.8773193359375,-3.8299560546875
1.6837499,-1.259350061416626,-2.5306711196899414,6.789956092834473,-48.03466796875,11.6729736328125,-5.5999755859375
1.6862499,-1.1994950771331787,-2.626439332962036,6.732495307922363,-47.698974609375,9.2010498046875,-6.5765380859375
1.6887499,-1.1085153818130493,-2.937685489654541,6.8043212890625,-47.8057861328125,6.103515625,-7.14111328125
1.6912498999999999,-0.9600749015808105,-3.40216064453125,6.988674640655518,-48.4771728515625,4.180908203125,-7.3699951171875
1.6937499,-0.7637503147125244,-3.9456443786621094,7.225700855255127,-48.8128662109375,2.7923583984375,-7.3394775390625
1.6962499,-0.5339069962501526,-4.484339714050293,7.491456985473633,-48.8128662109375,1.983642578125,-7.415771484375
1.6987499,-0.31364041566848755,-4.975151062011719,7.726089000701904,-48.33984375,1.3885498046875,-6.9122314453125
1.7012498999999999,-0.12928688526153564,-5.389348030090332,7.9176249504089355,-47.54638671875,0.762939453125,-6.1798095703125
1.7037499,-0.004788403399288654,-5.724536418914795,8.04691219329834,-46.0052490234375,0.640869140625,-5.401611328125
1.7062499,0.06224924325942993,-6.007051944732666,8.101978302001953,-44.2047119140625,0.579833984375,-4.4708251953125
1.7087499,0.09816227108240128,-6.236895561218262,8.111555099487305,-42.236328125,0.701904296875,-3.7994384765625
1.7112498999999999,0.090979665517807,-6.430825710296631,8.08043098449707,-39.97802734375,1.03759765625,-2.838134765625
1.7137499,0.07182604819536209,-6.588842868804932,8.039729118347168,-37.65869140625,1.739501953125,-2.0294189453125
1.7162499,0.035913024097681046,-6.708553314208984,7.996633529663086,-35.308837890625,2.3651123046875,-1.4801025390625
1.7187499,-0.009576806798577309,-6.7923502922058105,7.965508937835693,-32.9437255859375,2.532958984375,-0.4425048828125
1.7212498999999999,-0.047884032130241394,-6.840234279632568,7.955932140350342,-31.036376953125,3.0517578125,-0.0152587890625
1.7237499,-0.07661445438861847,-6.8593878746032715,7.970297336578369,-29.5562744140625,3.7841796875,0.5035400390625
1.7262499,-0.0933738648891449,-6.84981107711792,8.010998725891113,-28.289794921875,4.9591064453125,0.5340576171875
1.7287499,-0.10534487664699554,-6.828263282775879,8.092401504516602,-27.52685546875,6.134033203125,0.885009765625
1.7312499,-0.12689268589019775,-6.799532890319824,8.195352554321289,-27.34375,7.2174072265625,1.4495849609375
1.7337498999999998,-0.1604115068912506,-6.7708024978637695,8.31985092163086,-28.4881591796875,8.1024169921875,2.01416015625
1.7362499,-0.22026655077934265,-6.734889507293701,8.451532363891602,-29.449462890625,9.1094970703125,2.7008056640625
1.7387499,-0.3232172429561615,-6.691793918609619,8.549694061279297,-30.4412841796875,9.9029541015625,3.0364990234375
1.7412499,-0.4812345504760742,-6.62236213684082,8.609549522399902,-30.4107666015625,10.55908203125,3.1890869140625
1.7437498999999999,-0.7206547260284424,-6.5050458908081055,8.561665534973145,-28.961181640625,10.9405517578125,2.9144287109375
1.7462499,-1.048660397529602,-6.3302693367004395,8.422801971435547,-25.8636474609375,10.162353515625,2.3345947265625
1.7487499,-1.455674648284912,-6.0836663246154785,8.192957878112793,-22.2015380859375,8.941650390625,1.89208984375
1.7512499,-1.8818424940109253,-5.829881191253662,7.915230751037598,-18.1121826171875,7.1563720703125,1.251220703125
1.7537498999999999,-2.279279947280884,-5.552153587341309,7.694964408874512,-16.815185546875,5.55419921875,0.518798828125
1.7562499,-2.6144683361053467,-5.339069843292236,7.412448406219482,-13.702392578125,4.425048828125,0.3509521484375
1.7587499,-2.8131868839263916,-5.214571475982666,7.261613845825195,-10.833740234375,1.3885498046875,0.030517578125
1.7612499,-2.894589900970459,-5.161899089813232,7.225700855255127,-12.054443359375,-0.8087158203125,0.396728515625
1.7637498999999999,-2.8850131034851074,-5.236119270324707,7.307103633880615,-13.458251953125,-0.5035400390625,0.5645751953125
1.7662499,-2.8347349166870117,-5.348646640777588,7.570465564727783,-18.463134765625,-1.251220703125,0.885009765625
1.7687499,-2.9927520751953125,-5.453991413116455,7.726089000701904,-22.3541259765625,-0.4425048828125,1.3580322265625
1.7712499,-3.380612850189209,-5.4875102043151855,7.659051418304443,-27.862548828125,0.5645751953125,0.79345703125
1.7737498999999999,-3.691859006881714,-5.43723201751709,7.47230339050293,-37.628173828125,-2.9296875,0.0762939453125
1.7762499,-3.936067581176758,-5.343858242034912,7.46033239364624,-36.31591796875,-0.91552734375,1.4801025390625
1.7787499,-3.7445313930511475,-5.281609058380127,7.716512203216553,-29.4647216796875,-2.0751953125,3.47900390625
1.7812499,-3.1459810733795166,-5.324704647064209,8.271966934204102,-37.2161865234375,-3.3111572265625,3.3416748046875
1.7837498999999999,-2.3750481605529785,-5.509057998657227,8.848969459533691,-35.9344482421875,-1.2054443359375,1.9989013671875
1.7862499,-1.4987702369689941,-5.7556610107421875,9.160215377807617,-28.9764404296875,-3.021240234375,-0.457763671875
1.7887499,-0.7158663272857666,-6.00226354598999,9.105149269104004,-26.6571044921875,-2.0904541015625,-2.13623046875
1.7912499,-0.13407529890537262,-6.18182897567749,8.779537200927734,-24.59716796875,-0.4730224609375,-3.23486328125
1.7937499,0.19871874153614044,-6.282385349273682,8.343792915344238,-23.4222412109375,-1.6632080078125,-3.9520263671875
1.7962498999999998,0.3064578175544739,-6.3518171310424805,7.910442352294922,-24.5208740234375,-3.11279296875,-5.157470703125
1.7987499,0.2513911724090576,-6.423643112182617,7.637503623962402,-25.4669189453125,-4.913330078125,-6.65283203125
1.8012499,0.13407529890537262,-6.521805286407471,7.524975776672363,-26.641845703125,-7.2784423828125,-8.11767578125
1.8037499,0.0071826050989329815,-6.627150535583496,7.529764175415039,-26.7486572265625,-8.9111328125,-9.521484375
1.8062498999999999,-0.08140286058187485,-6.6846113204956055,7.570465564727783,-26.42822265625,-9.0179443359375,-10.7879638671875
1.8087499,-0.12689268589019775,-6.696582317352295,7.565677165985107,-26.3824462890625,-7.8582763671875,-11.5509033203125
1.8112499,-0.15322890877723694,-6.646304130554199,7.4986395835876465,-25.8636474609375,-6.89697265625,-11.077880859375
1.8137499,-0.22026655077934265,-6.562506675720215,7.402871608734131,-25.1007080078125,-5.462646484375,-10.345458984375
1.8162498999999999,-0.33997663855552673,-6.507440090179443,7.307103633880615,-25.543212890625,-3.265380859375,-9.918212890625
1.8187499,-0.507570743560791,-6.481103897094727,7.304709434509277,-26.275634765625,-3.7689208984375,-9.9639892578125
1.8212499,-0.6607996821403503,-6.490680694580078,7.400477409362793,-26.6265869140625,-5.7525634765625,-10.7574462890625
1.8237499,-0.7445967197418213,-6.538564682006836,7.568071365356445,-27.40478515625,-6.683349609375,-12.298583984375
1.8262498999999999,-0.7134721279144287,-6.619967937469482,7.738059997558594,-28.6102294921875,-4.9285888671875,-11.810302734375
1.8287499,-0.5793967843055725,-6.72531270980835,7.869740962982178,-29.8309326171875,-3.0364990234375,-11.4288330078125
1.8312499,-0.38307225704193115,-6.842628479003906,7.936778545379639,-29.8919677734375,-2.1209716796875,-10.4827880859375
1.8337499,-0.14844051003456116,-6.938396453857422,7.939172744750977,-30.1055908203125,-1.8157958984375,-8.758544921875
1.8362498999999999,0.08140286058187485,-6.998251438140869,7.922413349151611,-30.94482421875,-1.922607421875,-7.4920654296875
1.8387499,0.26096799969673157,-7.0341644287109375,7.891288757324219,-31.2957763671875,-1.0223388671875,-6.195068359375
1.8412499,0.33518823981285095,-7.062894821166992,7.903259754180908,-33.050537109375,1.556396484375,-4.913330078125
1.8437499,0.3016694188117981,-7.079654216766357,7.989450931549072,-35.5377197265625,3.5552978515625,-4.8065185546875
1.8462498999999999,0.15562310814857483,-7.067683219909668,8.161833763122559,-37.4908447265625,2.410888671875,-4.7454833984375
1.8487499,-0.019153613597154617,-6.995857238769531,8.377311706542969,-39.2608642578125,0.91552734375,-4.913330078125
1.8512499,-0.15322890877723694,-6.825869083404541,8.604761123657227,-40.5120849609375,-0.4119873046875,-4.5623779296875
1.8537499,-0.2082955539226532,-6.564900875091553,8.757989883422852,-41.168212890625,-0.30517578125,-4.2724609375
1.8562499,-0.2082955539226532,-6.200982570648193,8.813055992126465,-42.29736328125,0.335693359375,-5.2337646484375
1.8587498999999998,-0.1843535304069519,-5.748478412628174,8.762778282165527,-43.6859130859375,-0.48828125,-7.476806640625
1.8612499,-0.19153612852096558,-5.257667064666748,8.638279914855957,-45.4254150390625,-1.678466796875,-9.58251953125
1.8637499,-0.2059013396501541,-4.790797710418701,8.468291282653809,-48.614501953125,-0.18310546875,-12.1612548828125
1.8662499,-0.19153612852096558,-4.417302131652832,8.293514251708984,-51.26953125,-0.3662109375,-14.251708984375
1.8687498999999999,-0.15083470940589905,-4.197035789489746,8.147468566894531,-52.154541015625,-2.62451171875,-16.4031982421875
1.8712499,-0.15322890877723694,-4.182670593261719,8.056488990783691,-52.8411865234375,-1.77001953125,-18.7835693359375
1.8737499,-0.2322375625371933,-4.3861775398254395,8.030152320861816,-55.6182861328125,2.4566650390625,-20.3399658203125
1.8762499,-0.4165911078453064,-4.797980308532715,8.085219383239746,-58.2427978515625,3.90625,-21.270751953125
1.8787498999999999,-0.629675030708313,-5.353435039520264,8.180987358093262,-58.59375,3.47900390625,-21.087646484375
1.8812499,-0.7876923680305481,-5.91128396987915,8.257601737976074,-58.10546875,2.8076171875,-20.6451416015625
1.8837499,-0.8188169598579407,-6.358999729156494,8.255207061767578,-57.92236328125,2.044677734375,-21.5301513671875
1.8862499,-0.7445967197418213,-6.653486728668213,8.099584579467773,-56.8695068359375,1.922607421875,-22.0184326171875
1.8887498999999999,-0.5985504388809204,-6.8043212890625,7.797914981842041,-56.3812255859375,3.692626953125,-22.2015380859375
1.8912499,-0.4668693244457245,-6.907271862030029,7.400477409362793,-55.023193359375,4.8065185546875,-22.613525390625
1.8937499,-0.40222588181495667,-7.048529624938965,7.003039836883545,-52.79541015625,5.0048828125,-21.4996337890625
1.8962499,-0.42616790533065796,-7.242460250854492,6.701370716094971,-50.3692626953125,3.7994384765625,-19.6075439453125
1.8987498999999999,-0.5530605912208557,-7.486668586730957,6.54574728012085,-47.0733642578125,1.861572265625,-17.8985595703125
1.9012499,-0.7086837291717529,-7.711723804473877,6.5481414794921875,-43.7774658203125,1.2664794921875,-16.0675048828125
1.9037499,-0.871489405632019,-7.857769966125488,6.646304130554199,-40.46630859375,1.068115234375,-14.2059326171875
1.9062499,-0.993593692779541,-7.891288757324219,6.840234279632568,-36.4837646484375,1.190185546875,-13.397216796875
1.9087498999999999,-1.0342950820922852,-7.781155586242676,7.053318023681641,-31.7230224609375,0.2593994140625,-13.0157470703125
1.9112499,-1.0031704902648926,-7.546523571014404,7.266402244567871,-27.1759033203125,-0.48828125,-12.75634765625
1.9137499,-0.9097966551780701,-7.237671852111816,7.417236804962158,-23.9715576171875,0.9918212890625,-12.3291015625
1.9162499,-0.7781155705451965,-6.8809356689453125,7.496245384216309,-21.6522216796875,2.3193359375,-12.6495361328125
1.9187499,-0.6488286852836609,-6.552929878234863,7.491456985473633,-19.4854736328125,3.204345703125,-12.63427734375
1.9212498999999998,-0.7326257228851318,-6.229712963104248,7.383718013763428,-18.8446044921875,4.4403076171875,-12.0391845703125
1.9237499,-0.790086567401886,-6.050147533416748,7.058106422424316,-20.81298828125,7.4462890625,-11.65771484375
1.9262499,-0.9648633003234863,-5.916072368621826,6.950367450714111,-26.9012451171875,10.43701171875,-6.8817138671875
1.9287499,-0.9911994934082031,-5.932831764221191,6.7923502922058105,-28.5186767578125,15.68603515625,-5.401611328125
1.9312498999999999,-0.8595184087753296,-6.00226354598999,7.048529624938965,-31.1126708984375,6.134033203125,-8.453369140625
1.9337499,-0.5913678407669067,-6.1315507888793945,7.390900611877441,-31.4483642578125,0.67138671875,-8.8348388671875
1.9362499,-0.28969839215278625,-6.2201361656188965,7.752425193786621,-29.296875,6.65283203125,-11.1083984375
1.9387499,-0.0454898327589035,-6.265625953674316,7.989450931549072,-26.153564453125,8.209228515625,-12.603759765625
1.9412498999999999,0.09576806426048279,-6.260837554931641,8.058882713317871,-21.3165283203125,7.26318359375,-13.3209228515625
1.9437499,0.08619125932455063,-6.222530364990234,8.010998725891113,-20.93505859375,8.11767578125,-13.4124755859375
1.9462499,-0.05506663769483566,-6.232107162475586,7.860164165496826,-21.820068359375,9.2620849609375,-12.9547119140625
1.9487499,-0.2849099934101105,-6.323086738586426,7.659051418304443,-22.94921875,7.99560546875,-12.3748779296875
1.9512498999999999,-0.5793967843055725,-6.5050458908081055,7.445967197418213,-24.2462158203125,7.6446533203125,-11.9171142578125
1.9537499,-0.8906430602073669,-6.72531270980835,7.314286231994629,-26.0772705078125,8.60595703125,-11.4898681640625
1.9562499,-1.1994950771331787,-6.950367450714111,7.287950038909912,-26.9317626953125,8.3465576171875,-11.260986328125
1.9587499,-1.4867992401123047,-7.137115478515625,7.3669586181640625,-27.099609375,8.1329345703125,-10.528564453125
1.9612498999999999,-1.7286136150360107,-7.261613845825195,7.467514991760254,-26.42822265625,7.6904296875,-9.796142578125
1.9637499,-1.946485996246338,-7.333439826965332,7.527369976043701,-24.8260498046875,7.781982421875,-8.7890625
1.9662499,-2.118868589401245,-7.371747016906738,7.481880187988281,-23.37646484375,8.9111328125,-7.6141357421875
1.9687499,-2.2002713680267334,-7.41484260559082,7.319074630737305,-21.8353271484375,9.0179443359375,-5.8135986328125
1.9712498999999999,-2.2361843585968018,-7.489062786102295,7.168240070343018,-20.9808349609375,9.6588134765625,-3.0059814453125
1.9737499,-2.231395959854126,-7.60637903213501,6.983886241912842,-21.331787109375,13.824462890625,-0.06103515625
1.9762499,-2.2361843585968018,-7.797914981842041,6.8378400802612305,-23.3154296875,14.0380859375,0.9765625
1.9787499,-2.140416383743286,-7.99184513092041,6.756437301635742,-21.697998046875,7.415771484375,2.044677734375
1.9812499,-1.9177556037902832,-8.14028549194336,6.768408298492432,-17.6239013671875,1.953125,4.1046142578125
1.9837499,-1.5897499322891235,-8.180987358093262,6.9024834632873535,-17.0135498046875,4.9285888671875,6.3323974609375
1.9862499,-1.2282254695892334,-8.097189903259277,7.094019412994385,-14.95361328125,9.6893310546875,6.591796875
1.9887499,-1.01753568649292,-7.86734676361084,7.299921035766602,-10.3607177734375,8.30078125,6.8206787109375
1.9912499,-0.9840168952941895,-7.625532627105713,7.340622425079346,-4.08935546875,7.110595703125,6.8817138671875
1.9937498999999999,-1.070208191871643,-7.386112213134766,7.326257228851318,0.946044921875,7.1563720703125,7.3394775390625
1.9962499,-1.1803414821624756,-7.187393665313721,7.3454108238220215,2.4261474609375,6.8511962890625,8.60595703125
1.9987499,-1.3000515699386597,-7.029376029968262,7.486668586730957,-0.79345703125,7.476806640625,9.9334716796875
2.0012499,-1.403002142906189,-6.873753070831299,7.735665798187256,-5.8135986328125,9.185791015625,10.772705078125
2.0037499,-1.5155296325683594,-6.677428722381592,8.02536392211914,-8.1329345703125,10.2386474609375,11.1236572265625
2.0062499,-1.5921441316604614,-6.36378812789917,8.269572257995605,-8.7890625,8.6212158203125,10.25390625
2.0087498999999998,-1.580173134803772,-5.9519853591918945,8.44434928894043,-9.2620849609375,4.7149658203125,8.36181640625
2.0112499,-1.4844050407409668,-5.439626216888428,8.597578048706055,-8.23974609375,2.4566650390625,6.1187744140625
2.0137499,-1.3263877630233765,-4.886565685272217,8.772355079650879,-7.0648193359375,5.8441162109375,3.814697265625
2.0162499,-1.2114660739898682,-4.3861775398254395,8.89685344696045,-7.4920654296875,10.711669921875,1.5716552734375
2.0187499,-1.173158884048462,-4.043806552886963,8.944737434387207,-6.1798095703125,12.054443359375,0.274658203125
2.0212499,-1.2090718746185303,-3.9025487899780273,8.9064302444458,-3.814697265625,11.383056640625,0.1068115234375
2.0237499,-1.235408067703247,-3.9624037742614746,8.793902397155762,-2.13623046875,12.8021240234375,-0.030517578125
2.0262499,-1.192312479019165,-4.199429988861084,8.678980827331543,-0.9307861328125,13.1988525390625,-1.068115234375
2.0287498999999998,-1.115697979927063,-4.496310710906982,8.592789649963379,-0.274658203125,12.7716064453125,-2.8076171875
2.0312499,-0.9840168952941895,-4.759673118591309,8.508993148803711,0.5035400390625,14.58740234375,-4.547119140625
2.0337499,-0.8547300100326538,-5.032611846923828,8.365341186523438,1.2359619140625,17.7459716796875,-5.9967041015625
2.0362499,-0.7733271718025208,-5.22175407409668,8.164227485656738,4.241943359375,15.5181884765625,-5.1422119140625
2.0387499,-0.7182605266571045,-5.420472621917725,7.934384346008301,8.8043212890625,15.655517578125,-5.7830810546875
2.0412499,-0.790086567401886,-5.57370138168335,7.702147006988525,10.4217529296875,18.24951171875,-6.89697265625
2.0437499,-0.9145850539207458,-5.729324817657471,7.42681360244751,14.129638671875,18.5699462890625,-7.537841796875
2.0462499,-1.0654197931289673,-5.8203043937683105,7.218518257141113,16.2353515625,17.3187255859375,-7.659912109375
2.0487499,-1.213860273361206,-5.906495571136475,6.914454460144043,19.0887451171875,17.364501953125,-7.6141357421875
2.0512498999999997,-1.3192051649093628,-5.961562156677246,6.593631267547607,21.209716796875,18.9208984375,-7.8125
2.0537499,-1.3766659498214722,-6.01423454284668,6.208165168762207,25.87890625,17.578125,-7.354736328125
2.0562499,-1.4844050407409668,-6.1052141189575195,5.781997203826904,34.210205078125,18.8140869140625,-6.8359375
2.0587499,-1.556231141090393,-6.258443355560303,5.4228668212890625,38.330078125,24.5361328125,-5.8441162109375
2.0612499,-1.6352397203445435,-6.478709697723389,5.25527286529541,38.543701171875,28.1982421875,-4.669189453125
2.0637499,-1.601720929145813,-6.754043102264404,5.284003257751465,36.407470703125,28.6102294921875,-4.425048828125
2.0662499,-1.403002142906189,-7.067683219909668,5.578489780426025,36.956787109375,25.3753662109375,-3.3111572265625
2.0687499,-1.173158884048462,-7.371747016906738,5.904101371765137,38.8031005859375,21.6217041015625,-1.03759765625
2.0712498999999998,-0.9002198576927185,-7.668628215789795,6.244078159332275,35.3851318359375,27.7099609375,-0.48828125
2.0737499,-0.6919242739677429,-7.908048152923584,6.493074893951416,29.205322265625,29.693603515625,0.762939453125
2.0762499,-0.5722141861915588,-8.070854187011719,6.63433313369751,31.097412109375,27.069091796875,2.9144287109375
2.0787499,-0.42856210470199585,-8.121131896972656,6.7061591148376465,33.721923828125,28.38134765625,4.180908203125
2.0812499,-0.16519992053508759,-8.02536392211914,6.780379295349121,31.982421875,29.9072265625,5.1422119140625
2.0837499,0.10534487664699554,-7.848193168640137,6.88332986831665,30.426025390625,29.510498046875,5.0506591796875
2.0862499,0.4213795065879822,-7.60637903213501,7.0317702293396,28.9154052734375,32.4554443359375,4.0435791015625
2.0887499,0.6272808313369751,-7.422025203704834,7.201758861541748,28.656005859375,33.416748046875,3.4332275390625
2.0912498999999998,0.7374141216278076,-7.292738437652588,7.3693528175354,26.79443359375,34.8968505859375,2.2430419921875
2.0937499,0.629675030708313,-7.275979042053223,7.503427982330322,27.6641845703125,35.797119140625,3.0517578125
2.0962499,0.4596867263317108,-7.2568254470825195,7.632715225219727,25.604248046875,38.2843017578125,2.8533935546875
2.0987499,0.15322890877723694,-7.2568254470825195,7.752425193786621,22.9034423828125,35.369873046875,2.0599365234375
2.1012499,-0.1604115068912506,-7.194576263427734,7.857769966125488,19.95849609375,34.1949462890625,2.01416015625
2.1037499,-0.47165772318840027,-7.0988078117370605,7.908048152923584,17.2576904296875,33.6456298828125,1.9683837890625
2.1062499,-0.7158663272857666,-6.938396453857422,7.927201747894287,14.7247314453125,32.53173828125,0.67138671875
2.1087499,-0.9552865028381348,-6.732495307922363,7.850587368011475,14.2364501953125,32.073974609375,-0.5035400390625
2.1112499,-1.1779472827911377,-6.4834980964660645,7.773972988128662,12.359619140625,34.332275390625,-2.105712890625
2.1137498999999997,-1.3623007535934448,-6.18182897567749,7.647080421447754,9.6893310546875,32.8369140625,-4.0130615234375
2.1162499,-1.53707754611969,-5.899312973022461,7.496245384216309,8.48388671875,29.9835205078125,-5.4779052734375
2.1187499,-1.6112977266311646,-5.6455278396606445,7.3454108238220215,6.622314453125,27.7252197265625,-6.77490234375
2.1212499,-1.6065093278884888,-5.456385612487793,7.161057472229004,4.486083984375,28.1829833984375,-7.415771484375
2.1237499,-1.5466543436050415,-5.343858242034912,7.003039836883545,3.6468505859375,27.8778076171875,-8.23974609375
2.1262499,-1.4628572463989258,-5.284003257751465,6.900089263916016,1.708984375,26.79443359375,-9.70458984375
2.1287499,-1.3958195447921753,-5.262455463409424,6.845022678375244,-1.861572265625,26.092529296875,-11.9781494140625
2.1312499,-1.3670891523361206,-5.272032260894775,6.833051681518555,-3.753662109375,24.7802734375,-12.9241943359375
2.1337498999999998,-1.3742717504501343,-5.303156852722168,6.8593878746032715,-5.2642822265625,24.0631103515625,-13.6260986328125
2.1362499,-1.403002142906189,-5.353435039520264,6.890512466430664,-5.9814453125,22.4761962890625,-14.373779296875
2.1387499,-1.4484920501708984,-5.4228668212890625,6.907271862030029,-5.6610107421875,20.9197998046875,-15.5029296875
2.1412499,-1.5298948287963867,-5.506663799285889,6.897695064544678,-5.1116943359375,20.5078125,-16.448974609375
2.1437499,-1.623268723487854,-5.57370138168335,6.864176273345947,-4.7607421875,20.2789306640625,-17.364501953125
2.1462499,-1.742978811264038,-5.633556365966797,6.811503887176514,-4.8675537109375,19.8822021484375,-18.1427001953125
2.1487499,-1.8722656965255737,-5.676652431488037,6.75883150100708,-5.2947998046875,20.01953125,-19.1650390625
2.1512499,-2.0015525817871094,-5.705382823944092,6.7277069091796875,-5.4168701171875,19.7296142578125,-19.5465087890625
2.1537498999999998,-2.1547815799713135,-5.750872611999512,6.687005519866943,-5.43212890625,20.660400390625,-19.8974609375
2.1562499,-2.3271639347076416,-5.808333396911621,6.641515731811523,-4.852294921875,21.026611328125,-20.01953125
2.1587499,-2.516305923461914,-5.872976779937744,6.62236213684082,-4.638671875,21.42333984375,-20.3704833984375
2.1612499,-2.7126305103302,-5.925649166107178,6.641515731811523,-5.1727294921875,21.7742919921875,-20.111083984375
2.1637499,-2.8586769104003906,-5.96874475479126,6.698976516723633,-7.049560546875,22.1405029296875,-20.4010009765625
2.1662499,-2.9017724990844727,-5.987898349761963,6.787561893463135,-7.781982421875,20.751953125,-20.93505859375
2.1687499,-2.849100112915039,-6.011840343475342,6.904877662658691,-6.9427490234375,18.463134765625,-21.270751953125
2.1712499,-2.7557260990142822,-6.054935932159424,6.9910688400268555,-6.8817138671875,19.4854736328125,-22.2625732421875
2.1737499,-2.6671407222747803,-6.081272125244141,7.067683219909668,-5.8135986328125,20.3094482421875,-22.5982666015625
2.1762499,-2.674323320388794,-6.102819919586182,7.115567684173584,-4.82177734375,20.477294921875,-23.0255126953125
2.1787499,-2.715024709701538,-6.088454723358154,7.132327079772949,-3.6468505859375,19.134521484375,-23.6663818359375
2.1812499,-2.7676970958709717,-6.038176536560059,7.177816867828369,-3.0059814453125,17.27294921875,-23.49853515625
2.1837499,-2.80361008644104,-6.023811340332031,7.225700855255127,-3.4637451171875,18.85986328125,-23.98681640625
2.1862499,-2.8179752826690674,-6.023811340332031,7.295132637023926,-2.899169921875,20.0042724609375,-24.3682861328125
2.1887499,-2.8371291160583496,-6.074089527130127,7.402871608734131,-3.23486328125,19.1650390625,-24.139404296875
2.1912499,-2.846705913543701,-6.1267619132995605,7.524975776672363,-3.4027099609375,18.9666748046875,-23.9715576171875
2.1937499,-2.82515811920166,-6.191405773162842,7.73087739944458,-1.373291015625,15.9149169921875,-24.23095703125
2.1962498999999998,-2.7892448902130127,-6.268020153045654,7.989450931549072,-1.007080078125,16.326904296875,-24.1851806640625
2.1987499,-2.7748796939849854,-6.399701118469238,8.271966934204102,-0.2593994140625,18.218994140625,-24.169921875
2.2012499,-2.8107926845550537,-6.572083473205566,8.552088737487793,2.0294189453125,16.78466796875,-24.10888671875
2.2037499,-2.9017724990844727,-6.787561893463135,8.803479194641113,1.2359619140625,16.0675048828125,-23.284912109375
2.2062499,-3.045424461364746,-7.0126166343688965,8.959102630615234,0.274658203125,17.852783203125,-22.2930908203125
2.2087499,-3.181894063949585,-7.216124057769775,9.035717010498047,0.274658203125,16.4031982421875,-21.7132568359375
2.2112499,-3.318363666534424,-7.383718013763428,9.009381294250488,0.1678466796875,16.876220703125,-21.78955078125
2.2137499,-3.4835634231567383,-7.4986395835876465,8.913613319396973,-0.091552734375,17.791748046875,-21.78955078125
2.2162498999999998,-3.665522813796997,-7.51779317855835,8.769960403442383,-1.007080078125,18.2647705078125,-21.8353271484375
2.2187499,-3.7493197917938232,-7.419631004333496,8.650250434875488,-3.2958984375,16.7083740234375,-22.186279296875
2.2212499,-3.7277719974517822,-7.206547260284424,8.554482460021973,-5.06591796875,14.251708984375,-22.9644775390625
2.2237499,-3.529053211212158,-6.921637058258057,8.489839553833008,-5.1116943359375,13.702392578125,-24.200439453125
2.2262499,-2.935291290283203,-6.404489517211914,8.374917984008789,-3.6468505859375,13.0462646484375,-28.2440185546875
2.2287499,-2.935291290283203,-6.404489517211914,8.374917984008789,-3.6468505859375,13.0462646484375,-28.2440185546875
2.2312499,-2.8227639198303223,-6.172252178192139,8.154650688171387,-3.4942626953125,12.237548828125,-31.219482421875
2.2337499,-2.8227639198303223,-6.172252178192139,8.154650688171387,-3.4942626953125,12.237548828125,-31.219482421875
2.2362499,-3.0861260890960693,-6.098031520843506,7.920019149780273,-6.8817138671875,9.4451904296875,-31.6925048828125
2.2387499,-3.0861260890960693,-6.098031520843506,7.920019149780273,-6.8817138671875,9.4451904296875,-31.6925048828125
2.2412499,-3.045424461364746,-6.145915985107422,7.833827972412109,-9.27734375,7.232666015625,-31.951904296875
2.2437499,-3.045424461364746,-6.145915985107422,7.833827972412109,-9.27734375,7.232666015625,-31.951904296875
2.2462499,-2.5737667083740234,-6.447585105895996,7.848193168640137,-7.7362060546875,6.3629150390625,-30.8685302734375
2.2487499,-2.5737667083740234,-6.447585105895996,7.848193168640137,-7.7362060546875,6.3629150390625,-30.8685302734375
2.2512499,-2.0470423698425293,-7.015010833740234,7.886500358581543,-1.922607421875,6.9122314453125,-29.8309326171875
2.2537499,-2.0470423698425293,-7.015010833740234,7.886500358581543,-1.922607421875,6.9122314453125,-29.8309326171875
2.2562499,-2.0398597717285156,-7.536946773529053,7.879317760467529,1.0223388671875,7.2174072265625,-30.975341796875
2.2587498999999998,-2.0398597717285156,-7.536946773529053,7.879317760467529,1.0223388671875,7.2174072265625,-30.975341796875
2.2612499,-2.322375535964966,-7.570465564727783,7.773972988128662,4.1656494140625,4.4708251953125,-30.548095703125
2.2637499,-2.322375535964966,-7.570465564727783,7.773972988128662,4.1656494140625,4.4708251953125,-30.548095703125
2.2662499,-1.9967641830444336,-7.103596210479736,7.872135162353516,7.965087890625,-1.3275146484375,-30.8074951171875
2.2687499,-1.9967641830444336,-7.103596210479736,7.872135162353516,7.965087890625,-1.3275146484375,-30.8074951171875
2.2712499,-1.5059528350830078,-6.62236213684082,8.032546997070312,13.885498046875,0.823974609375,-30.548095703125
2.2737499,-1.5059528350830078,-6.62236213684082,8.032546997070312,13.885498046875,0.823974609375,-30.548095703125
2.2762499,-1.6089035272598267,-6.538564682006836,7.948749542236328,13.2904052734375,3.8909912109375,-29.7698974609375
2.2787498999999998,-1.6089035272598267,-6.538564682006836,7.948749542236328,13.2904052734375,3.8909912109375,-29.7698974609375
2.2812499,-1.091755986213684,-6.8043212890625,8.178592681884766,16.632080078125,-11.9171142578125,-25.20751953125
2.2837499,-1.091755986213684,-6.8043212890625,8.178592681884766,16.632080078125,-11.9171142578125,-25.20751953125
2.2862499,0.3423708379268646,-7.3693528175354,8.544905662536621,25.9857177734375,-13.153076171875,-25.421142578125
2.2887499,0.3423708379268646,-7.3693528175354,8.544905662536621,25.9857177734375,-13.153076171875,-25.421142578125
2.2912499,0.5961562395095825,-8.075642585754395,8.31985092163086,33.050537109375,-11.2152099609375,-26.7181396484375
2.2937499,0.5961562395095825,-8.075642585754395,8.31985092163086,33.050537109375,-11.2152099609375,-26.7181396484375
2.2962499,-1.0630255937576294,-8.190564155578613,7.953537940979004,23.37646484375,-8.1329345703125,-26.3214111328125
2.2987499,-1.0630255937576294,-8.190564155578613,7.953537940979004,23.37646484375,-8.1329345703125,-26.3214111328125
2.3012499,-2.779668092727661,-7.3023152351379395,7.979874134063721,15.9759521484375,-9.3231201171875,-23.4222412109375
2.3037499,-2.779668092727661,-7.3023152351379395,7.979874134063721,15.9759521484375,-9.3231201171875,-23.4222412109375
2.3062499,-3.1651346683502197,-6.210559368133545,8.185775756835938,12.2833251953125,-9.368896484375,-22.1405029296875
2.3087499,-3.1651346683502197,-6.210559368133545,8.185775756835938,12.2833251953125,-9.368896484375,-22.1405029296875
2.3112499,-2.9496564865112305,-5.7987565994262695,8.26478385925293,5.950927734375,-4.8828125,-26.4129638671875
2.3137499,-2.9496564865112305,-5.7987565994262695,8.26478385925293,5.950927734375,-4.8828125,-26.4129638671875
2.3162499,-2.9233202934265137,-5.674258232116699,8.238448143005371,-9.1094970703125,-0.3509521484375,-28.3660888671875
2.3187499,-2.9233202934265137,-5.674258232116699,8.238448143005371,-9.1094970703125,-0.3509521484375,-28.3660888671875
2.3212498999999998,-2.650381326675415,-4.991910457611084,8.147468566894531,-17.425537109375,-3.0059814453125,-32.2418212890625
2.3237499,-2.650381326675415,-4.991910457611084,8.147468566894531,-17.425537109375,-3.0059814453125,-32.2418212890625
2.3262499,-1.745373010635376,-4.273650169372559,7.769184589385986,-30.8685302734375,-1.556396484375,-38.1622314453125
2.3287499,-1.745373010635376,-4.273650169372559,7.769184589385986,-30.8685302734375,-1.556396484375,-38.1622314453125
2.3312499,-0.4692635238170624,-4.412513732910156,7.177816867828369,-42.8924560546875,-2.3345947265625,-41.1376953125
2.3337499,-0.4692635238170624,-4.412513732910156,7.177816867828369,-42.8924560546875,-2.3345947265625,-41.1376953125
2.3362499,0.43335050344467163,-5.245696067810059,6.5696892738342285,-55.4656982421875,-0.6866455078125,-44.12841796875
2.3387499,0.43335050344467163,-5.245696067810059,6.5696892738342285,-55.4656982421875,-0.6866455078125,-44.12841796875
2.3412498999999998,0.5003881454467773,-6.4380083084106445,6.287173748016357,-59.7686767578125,-2.25830078125,-44.097900390625
2.3437499,0.5003881454467773,-6.4380083084106445,6.287173748016357,-59.7686767578125,-2.25830078125,-44.097900390625
2.3462499,0.11013327538967133,-7.680599212646484,6.531382083892822,-53.955078125,-3.9520263671875,-42.938232421875
2.3487499,0.11013327538967133,-7.680599212646484,6.531382083892822,-53.955078125,-3.9520263671875,-42.938232421875
2.3512499,-0.35913026332855225,-8.5903959274292,6.761225700378418,-45.59326171875,-7.080078125,-42.7093505859375
2.3537499,-0.35913026332855225,-8.5903959274292,6.761225700378418,-45.59326171875,-7.080078125,-42.7093505859375
2.3562499,-0.6392518281936646,-8.875306129455566,7.024587631225586,-42.1142578125,-7.965087890625,-42.633056640625
2.3587499,-0.6392518281936646,-8.875306129455566,7.024587631225586,-42.1142578125,-7.965087890625,-42.633056640625
2.3612499,-0.5770025849342346,-8.60236644744873,7.568071365356445,-36.68212890625,-9.5977783203125,-40.679931640625
2.3637499,-0.5770025849342346,-8.60236644744873,7.568071365356445,-36.68212890625,-9.5977783203125,-40.679931640625
2.3662499,-0.36152446269989014,-8.13789176940918,7.977479934692383,-32.9742431640625,-10.498046875,-40.740966796875
2.3687499,-0.36152446269989014,-8.13789176940918,7.977479934692383,-32.9742431640625,-10.498046875,-40.740966796875
2.3712499,-0.272938996553421,-7.709329605102539,7.99184513092041,-32.989501953125,-9.7503662109375,-41.0003662109375
2.3737499,-0.272938996553421,-7.709329605102539,7.99184513092041,-32.989501953125,-9.7503662109375,-41.0003662109375
2.3762499,-0.3280056416988373,-7.328651428222656,7.723694801330566,-33.5540771484375,-9.7808837890625,-40.5120849609375
2.3787499,-0.3280056416988373,-7.328651428222656,7.723694801330566,-33.5540771484375,-9.7808837890625,-40.5120849609375
2.3812499,-0.363918662071228,-7.048529624938965,7.354987621307373,-33.111572265625,-8.819580078125,-38.7725830078125
2.3837498999999998,-0.363918662071228,-7.048529624938965,7.354987621307373,-33.111572265625,-8.819580078125,-38.7725830078125
2.3862499,-0.3974374830722809,-6.912060260772705,7.029376029968262,-32.684326171875,-9.1552734375,-38.87939453125
2.3887499,-0.3974374830722809,-6.912060260772705,7.029376029968262,-32.684326171875,-9.1552734375,-38.87939453125
2.3912499,-0.49799394607543945,-6.904877662658691,6.919242858886719,-34.1339111328125,-9.27734375,-38.4063720703125
2.3937499,-0.49799394607543945,-6.904877662658691,6.919242858886719,-34.1339111328125,-9.27734375,-38.4063720703125
2.3962499,-0.5817909836769104,-6.979097843170166,7.079654216766357,-33.7982177734375,-8.575439453125,-38.299560546875
2.3987499,-0.5817909836769104,-6.979097843170166,7.079654216766357,-33.7982177734375,-8.575439453125,-38.299560546875
2.4012499,-0.4836287498474121,-7.058106422424316,7.364564418792725,-33.2489013671875,-8.85009765625,-39.1845703125
2.4037498999999998,-0.40462008118629456,-7.103596210479736,7.4986395835876465,-33.233642578125,-9.09423828125,-39.642333984375
2.4062499,-0.395043283700943,-7.144298076629639,7.615955829620361,-32.71484375,-8.1634521484375,-40.374755859375
2.4087499,-0.4692635238170624,-7.158663272857666,7.740454196929932,-32.806396484375,-7.2784423828125,-41.015625
2.4112499,-0.629675030708313,-7.146692276000977,7.862558364868164,-33.203125,-8.1024169921875,-41.9769287109375
2.4137499,-0.8044517636299133,-7.094019412994385,7.989450931549072,-33.599853515625,-9.4757080078125,-42.90771484375
2.4162499,-0.9217676520347595,-7.0341644287109375,8.097189903259277,-34.3170166015625,-9.2315673828125,-44.0521240234375
2.4187499,-0.9840168952941895,-6.971915245056152,8.180987358093262,-35.4461669921875,-8.7890625,-45.1812744140625
2.4212499,-0.9840168952941895,-6.933608055114746,8.216899871826172,-36.1785888671875,-9.1552734375,-46.1578369140625
2.4237499,-0.9648633003234863,-6.921637058258057,8.216899871826172,-37.2772216796875,-9.6893310546875,-46.6461181640625
2.4262499,-0.9409212470054626,-6.957550048828125,8.166622161865234,-39.1082763671875,-9.33837890625,-46.8902587890625
2.4287499,-0.9217676520347595,-7.0126166343688965,8.090007781982422,-40.83251953125,-9.6282958984375,-47.6837158203125
2.4312499,-0.9241618514060974,-7.084442615509033,7.975085735321045,-42.05322265625,-10.1776123046875,-48.64501953125
2.4337499,-0.9169792532920837,-7.139509677886963,7.860164165496826,-43.060302734375,-10.406494140625,-49.4384765625
2.4362499,-0.933738648891449,-7.177816867828369,7.723694801330566,-43.3197021484375,-11.932373046875,-50.262451171875
2.4387499,-0.9528923034667969,-7.1921820640563965,7.577648162841797,-43.9300537109375,-12.75634765625,-51.4373779296875
2.4412499,-0.9959878921508789,-7.194576263427734,7.42681360244751,-45.1812744140625,-12.51220703125,-52.2613525390625
2.4437499,-1.015141487121582,-7.180211067199707,7.295132637023926,-46.4630126953125,-13.0462646484375,-53.16162109375
2.4462498999999998,-0.9720458984375,-7.151480674743652,7.1706342697143555,-47.36328125,-14.22119140625,-54.473876953125
2.4487499,-0.8331822156906128,-7.096413612365723,7.094019412994385,-48.583984375,-16.082763671875,-56.976318359375
2.4512499,-0.6392518281936646,-7.026981830596924,7.010222434997559,-49.041748046875,-17.4560546875,-60.1806640625
2.4537499,-0.33518823981285095,-6.957550048828125,6.912060260772705,-50.7965087890625,-17.608642578125,-62.92724609375
2.4562499,-0.07900865375995636,-6.943184852600098,6.809109687805176,-52.764892578125,-20.6298828125,-64.605712890625
2.4587499,0.05746084079146385,-7.022193431854248,6.761225700378418,-53.7567138671875,-20.0653076171875,-66.2994384765625
2.4612499,0.05506663769483566,-7.173028469085693,6.818686485290527,-57.0526123046875,-16.41845703125,-68.5577392578125
2.4637499,-0.07661445438861847,-7.4316020011901855,7.005434036254883,-61.1114501953125,-18.24951171875,-70.8160400390625
2.4662498999999998,-0.27054479718208313,-7.726089000701904,7.218518257141113,-62.01171875,-20.8587646484375,-71.5179443359375
2.4687499,-0.43095630407333374,-7.999027729034424,7.412448406219482,-62.56103515625,-18.6767578125,-71.502685546875
2.4712499,-0.5123591423034668,-8.224082946777344,7.467514991760254,-65.338134765625,-16.5557861328125,-71.3348388671875
2.4737499,-0.49799394607543945,-8.324639320373535,7.400477409362793,-69.5343017578125,-18.3868408203125,-71.0906982421875
2.4762499,-0.363918662071228,-8.286332130432129,7.254431247711182,-74.3560791015625,-20.660400390625,-71.1212158203125
2.4787499,-0.038307227194309235,-8.10437297821045,7.06528902053833,-79.7576904296875,-21.6217041015625,-72.0062255859375
2.4812499,0.3423708379268646,-7.812280178070068,6.931213855743408,-85.1287841796875,-25.054931640625,-74.4476318359375
2.4837499,0.6416460275650024,-7.46033239364624,6.912060260772705,-90.576171875,-26.91650390625,-79.7119140625
2.4862499,0.7350199222564697,-7.082048416137695,7.01979923248291,-97.5189208984375,-23.92578125,-86.029052734375
2.4887499,0.6057330369949341,-6.737283706665039,7.252037048339844,-103.9276123046875,-23.86474609375,-91.2322998046875
2.4912499,0.36152446269989014,-6.497863292694092,7.513004779815674,-106.781005859375,-26.4434814453125,-93.7957763671875
2.4937499,0.14365209639072418,-6.402095317840576,7.7213006019592285,-108.09326171875,-26.7333984375,-94.9554443359375
2.4962499,0.06464344263076782,-6.555324077606201,7.82185697555542,-109.19189453125,-27.069091796875,-96.25244140625
2.4987499,0.1364694982767105,-6.962338447570801,7.802703380584717,-112.1368408203125,-27.435302734375,-98.0224609375
2.5012499,0.304063618183136,-7.5632829666137695,7.7213006019592285,-116.1041259765625,-29.9835205078125,-100.03662109375
2.5037499,0.4596867263317108,-8.257601737976074,7.620744228363037,-119.7967529296875,-31.43310546875,-102.0965576171875
2.5062499,0.524330198764801,-8.899248123168945,7.558494567871094,-124.786376953125,-29.4036865234375,-103.2562255859375
2.5087498999999998,0.4884171485900879,-9.368511199951172,7.580042362213135,-130.0506591796875,-29.266357421875,-104.1717529296875
2.5112499,0.35434186458587646,-9.636661529541016,7.661445617675781,-134.2315673828125,-32.5469970703125,-104.888916015625
2.5137499,0.2082955539226532,-9.701305389404297,7.805097579956055,-138.3209228515625,-35.15625,-106.7962646484375
2.5162499,0.10295066982507706,-9.643844604492188,7.934384346008301,-142.791748046875,-35.736083984375,-109.0545654296875
2.5187499,0.08379705995321274,-9.512163162231445,8.018181800842285,-147.6287841796875,-36.6668701171875,-111.4044189453125
2.5212499,0.16759411990642548,-9.361329078674316,8.018181800842285,-151.18408203125,-39.093017578125,-113.555908203125
2.5237499,0.3471592366695404,-9.205705642700195,7.9631147384643555,-154.3731689453125,-39.6728515625,-115.72265625
2.5262499,0.6009446382522583,-9.081207275390625,7.836222171783447,-157.16552734375,-40.008544921875,-118.316650390625
2.5287498999999998,0.8427590131759644,-9.02135181427002,7.680599212646484,-161.2396240234375,-40.985107421875,-121.7498779296875
2.5312499,1.05105459690094,-9.033323287963867,7.51779317855835,-165.6951904296875,-41.7633056640625,-125.5340576171875
2.5337499,1.2114660739898682,-9.14345645904541,7.3669586181640625,-169.5404052734375,-43.304443359375,-129.0283203125
2.5362499,1.3407529592514038,-9.318233489990234,7.240066051483154,-174.13330078125,-44.2047119140625,-132.843017578125
2.5387499,1.460463047027588,-9.526528358459473,7.141903877258301,-179.8858642578125,-44.49462890625,-136.505126953125
2.5412499,1.5466543436050415,-9.763554573059082,7.048529624938965,-184.967041015625,-44.4488525390625,-139.83154296875
