# Time (seconds),Accel_X,Accel_Y,Accel_Z,Gyro_X,Gyro_Y,Gyro_Z
0.0012499,9.00005321682856,-3.6915370765161084,2.0399967005977535,-24.454239021589743,-12.695257718123312,15.472653349463306
0.0112499,8.978945287624477,-3.92082022581886,2.0025528437083273,-21.95901744658099,-12.050872289506316,14.638660822225885
0.0212499,8.97847385530532,-4.109702724100174,2.0308958967591044,-18.5021037515724,-11.555653476880629,13.932070143806163
0.0312498999999999,8.890635381146778,-4.25436066418232,2.0371728162059126,-14.398027233284456,-11.31189004932668,13.616034775461472
0.0412499,8.781945087970714,-4.350179606926432,1.9821732038208058,-10.11933676007313,-11.158731221427974,13.60159653576624
0.0512499,8.762440900788746,-4.342220759639025,1.885871468647835,-6.6166971873459755,-10.708931259940265,13.933384759117109
0.0612498999999999,8.79938457283567,-4.212733466907784,1.7825113564643347,-4.846422706134262,-9.758795982798631,13.956039002730652
0.0712499,8.785870642672197,-4.179884449935564,1.7221756568083963,-3.377774394866406,-8.662465255904385,13.396374583900881
0.0812499,8.852560072611213,-4.137376560816346,1.711751272932818,-2.2148406355463655,-7.739408465807665,12.584483335454323
0.0912499,9.037036015914078,-4.042810518212712,1.7124684099418075,-2.7335485513486417,-6.209801578315184,11.466221893557837
0.1012499,9.023660518452008,-4.072285687897017,1.7359009642414758,-3.1519248667542294,-4.705269548623851,9.88340777853262
0.1112499,8.95961212148064,-4.057659802324154,1.8046901791416845,-3.4039962239172645,-3.7704126589177793,8.016242855527892
0.1212499,9.035232436782957,-4.133874294047851,1.881616565953942,-3.7635136341802427,-2.941775936899079,6.5754068725735255
0.1312499,9.046306331328799,-4.323578282772376,1.8003128978283442,-3.4527055849031307,-2.3076509448682714,5.6934508042828735
0.1412499,9.031409226465524,-4.389916182721665,1.6647981668479503,-2.484894354690121,-2.4939053676504304,4.894212503293412
0.1512499,9.126382480758663,-4.397504532307913,1.7221903174964253,-0.6905343887229336,-2.882521686004506,4.199872393981782
0.1612499,9.230521600515555,-4.405301011546153,1.7950973675590955,1.5011956507897533,-3.3414339063765817,3.608901897910117
0.1712499,9.266402315528364,-4.419630306039785,1.7418480113331694,3.2553933581968657,-4.178427625017211,3.714197851852881
0.1812499,9.28483588298986,-4.3493783042472645,1.6346804440135903,4.210171340842115,-5.121097477259378,4.604281658592103
0.1912499,9.299939557096337,-4.09118940061946,1.4749411582053207,3.361102991102978,-6.796480120611774,5.356231727859826
0.2012499,9.349740549781385,-3.8468167086096634,1.3533548451592772,0.7766448006629275,-8.818512648353606,5.533156244368982
0.2112499,9.400642629617472,-3.6778688708298213,1.3470375181682896,-2.300448460113583,-10.399070525617757,4.796974939808486
0.2212499,9.468676608277564,-3.531069650393775,1.410992605396272,-6.0772720126720925,-11.897388733392347,3.1671361838057637
0.2312499,9.571100654038775,-3.576855864958804,1.4648690695752695,-9.880481150855612,-13.389399949958197,1.3893945030406905
0.2412499,9.566777522571213,-3.74232086974167,1.5143757665567452,-13.350281955591944,-14.403283805706629,0.06211857635077056
0.2512499,9.463002578079097,-3.8461900106670184,1.5341613610490428,-16.181451034650312,-14.92092562559379,-0.9290004100359264
0.2612499,9.370777994044147,-3.9179428588783387,1.5200041027900686,-18.20937243870689,-15.210002948701005,-2.229285981793567
0.2712499,9.291861492191845,-4.005910111659716,1.5322584146199654,-19.1721127427387,-15.664082302084651,-3.808672649594533
0.2812499,9.220788486884722,-4.110595977410729,1.5508684663850416,-19.14556899043081,-16.15459454174863,-5.34336213946434
0.2912499,9.105501870415416,-4.227598521659803,1.492213311358961,-18.200399082093917,-16.389925407909583,-6.448600674149929
0.3012499,9.002030686745854,-4.194398761661901,1.3812459911245725,-16.846170163746248,-16.3952185229688,-7.3715804728224565
0.3112499,9.00662430682879,-4.125052590326457,1.2872943669721284,-15.176779873335544,-16.522034203040274,-8.239333997912144
0.3212499,9.0309957205302,-4.136980723172104,1.2662636500479627,-13.036693624932358,-16.651996131949396,-8.73017330181809
0.3312499,9.062755587477275,-4.092100499650426,1.3093235695814716,-11.241464497318782,-16.435429618372133,-8.873958415873593
0.3412499,9.063258060077148,-4.0219690096162255,1.351907273748164,-9.265596492854435,-16.041875843821778,-8.660788458139569
0.3512499,9.0150018349346,-4.0121611814264515,1.3279384021980656,-7.219274048726596,-15.653361501967002,-8.130543197269626
0.3612499,8.969351915327692,-3.9858915925489855,1.2278954956080117,-5.655454997830602,-15.26363881676285,-7.590803220046109
0.3712499,8.912205303331378,-3.863953589391521,1.1448165184310373,-4.289547469154709,-14.996894050548098,-7.0958336439548075
0.3812499,8.89045587365712,-3.742557526036577,1.1092363819613573,-3.3275535011742177,-14.800495361802554,-6.679997710285031
0.3912499,8.854871808141679,-3.7338012378690646,1.0817415431433424,-2.4620846611294622,-14.460103417816127,-6.073066307747393
0.4012499,8.78197318179025,-3.7387486632149334,1.0196545781275652,-1.5382165440047544,-14.117253384921858,-5.150962523457404
0.4112499,8.76213029112169,-3.6307111148797375,0.938043448947769,-1.1478140790327802,-13.702517071605369,-4.35095569479172
0.4212499,8.797636933352273,-3.5148624418700534,0.8816949124953483,-1.1454230245572028,-13.493616672482739,-3.5087537706204697
0.4312499,8.809347600884486,-3.4895915532680397,0.8430498464172591,-0.9726363803197073,-13.195820120213858,-2.787686999536351
0.4412499,8.809459570119285,-3.4658030061948755,0.7917942603468945,-1.1066857245478754,-12.705093788293864,-2.156882187525776
0.4512499,8.878720853395592,-3.4384740238878218,0.7585778912464676,-1.7898393122254972,-12.057955804242717,-1.1534534930181342
0.4612499,8.941624101591277,-3.4286744585888065,0.6981133181360868,-2.9263469399648123,-11.113107925014312,0.1256189083278213
0.4712499,8.946346179364207,-3.4262361515118576,0.6395518972939067,-3.938709761519008,-10.353078028929776,1.1295893652780944
0.4812499,8.954758577101883,-3.443095782212776,0.6481222313392085,-4.547250244097875,-9.831358742649975,1.8634161723988478
0.4912499,9.008530263250314,-3.5185699719650234,0.6360784338410418,-4.673202300298506,-9.032404518401194,2.1717811594542233
0.5012499,9.028914667439956,-3.661001659585345,0.620867461835573,-4.14855305131328,-8.360293032065547,2.3782064942140955
0.5112499,8.971322814965891,-3.8478411517840616,0.6495472692005435,-2.8695994207886084,-7.9635627893433885,2.959587682268127
0.5212499,8.944135864090594,-3.952071958644511,0.6049947263734711,-1.2902735040227018,-7.739670356396857,3.7757222267479054
0.5312499,8.979162720139202,-3.970906774714908,0.5598987172830882,0.01158935193525833,-7.802788925698278,4.454742577002851
0.5412499000000001,9.023665316447685,-4.053096459669395,0.6177552147432165,1.4163793349380953,-7.737989317507332,4.933037947875203
0.5512499000000001,9.055990836476264,-4.064737144670505,0.6320274107603435,2.2572794951927815,-7.61094145128546,5.398964947913166
0.5612499000000001,9.104443628807669,-3.997986905965737,0.5698935180884483,1.720523958912284,-7.182022539430906,5.646659511176769
0.5712499000000001,9.141360222103561,-3.9584349043620204,0.4967223801198019,0.13199787600800708,-6.372738936836356,5.501792814020199
0.5812499,9.104687222647845,-3.9598906526796926,0.42628457726865615,-1.85003438553331,-5.8284167006782654,4.856265605549372
0.5912499,9.054967553304678,-3.988161240234621,0.35991631819202885,-3.799880118375061,-5.473116330014244,3.8095515242962517
0.6012499,9.044279378088397,-4.04423914104999,0.31946764379621717,-5.662003914832237,-4.959948548375554,2.5723956390002574
0.6112499,8.996810013807378,-4.1248141917493575,0.3243069257416691,-7.588651673726225,-4.556083964125937,1.450161637698734
0.6212499,8.969857493044456,-4.22015268927149,0.36663523030198525,-8.660640506054238,-4.294422103137158,0.6226626308445864
0.6312499,8.977746511494585,-4.260686184085845,0.38746556020666983,-9.031979429510418,-4.019396529167266,0.13898699476169973
0.6412499,8.94677827413525,-4.280549796304831,0.3322432112989406,-9.337638551285425,-3.9834109809826606,0.27051691616889645
0.6512499,8.873705444976004,-4.345553643166202,0.22722101314713408,-9.167250555762147,-4.366655094703793,1.00366221598643
0.6612499000000001,8.84125143895387,-4.290223434476535,0.13733523362641006,-9.247975828304774,-4.748427251200623,1.9277123195158867
0.6712499000000001,8.889530570567773,-4.104671809265947,0.09201356027870806,-10.181127466933832,-5.081310282763276,2.403866893916588
0.6812499000000001,8.914968978127439,-4.0155975891023825,0.1140783028477085,-11.277191642312832,-5.281162126237306,2.2985660444548763
0.6912499000000001,8.903522983247257,-4.060158683683193,0.15044745759806646,-12.475216264877249,-5.218800054541581,2.569067195165365
0.7012499000000001,8.931889548855999,-4.120274944254702,0.16468055532711343,-13.740929705454866,-4.909788490499186,3.2815750287380294
0.7112499,8.929593829986462,-4.146692065701949,0.17107681851218798,-14.435372035181723,-4.561951893648223,3.8903711491965356
0.7212499,8.844194232338547,-4.1989753373490215,0.13037035630872285,-14.45460810013862,-4.599826082371872,4.484190207314468
0.7312499,8.769363666594105,-4.294776890296567,0.11427841515246441,-14.267504255299698,-4.95946145995486,4.947827276940255
0.7412499,8.757157902678752,-4.33747676998836,0.11828735037720281,-14.014238641762464,-5.073938815452828,5.262096299134172
0.7512499,8.783344387272754,-4.336276745437117,0.08589203898640094,-13.874991048577998,-5.055707743886931,5.484505002635132
0.7612499,8.799693903585936,-4.329619844364567,0.06212138549367174,-14.04323560232154,-5.024377004499708,5.252539128233567
0.7712499,8.824935840007242,-4.298167353978409,0.10102169322616966,-14.569703579051227,-4.668835279370474,4.451312581302608
0.7812499,8.90259544330941,-4.294456336658877,0.15804866444292856,-15.25379268490183,-3.93249372353417,3.5929743683386453
0.7912499000000001,8.948965407290224,-4.305256685216249,0.1526006615871936,-15.756407503606875,-3.180294462348011,2.9706451050230442
0.8012499000000001,8.959089208403583,-4.244536543384995,0.10062914405610644,-16.15210923170352,-2.4342704556061827,2.2989907804796297
0.8112499000000001,8.963724837946296,-4.193163532231652,0.0999421712016916,-15.942215061731751,-1.8795249942516505,1.6502357213621144
0.8212499000000001,8.965122706296553,-4.159010156246591,0.13649873523873782,-15.262533319183364,-1.306875340527428,1.015420769988693
0.8312499000000001,8.971457875679741,-4.128655571149965,0.14433505293570426,-14.630109919145717,-0.5533720779679594,0.443196211117008
0.8412499,8.976412235845869,-4.121777524954062,0.13360255936339135,-14.087205711395082,0.08055785252808594,0.36041772447193776
0.8512499,8.984248473374723,-4.084503366912347,0.10560191854721372,-13.900807365724452,0.6305455469068452,0.720178492146587
0.8612499,8.983071057426184,-4.006484810523387,0.0818533464970278,-14.3289397391764,1.0660127457621602,1.0715143913798033
0.8712499,9.00240770103248,-3.9491897229823056,0.03327017342486974,-15.043799750600787,1.7000861793848203,0.9070948935595096
0.8812499,9.009894796412995,-3.946330810602722,-0.004996346275892337,-15.707980314495833,2.377858629750128,0.4957948186346588
0.8912499,9.012504922755639,-3.980290589997542,0.05814522272523885,-16.179339760722392,3.098934839452996,0.33824638377265615
0.9012499,8.999989348390102,-4.033133082602655,0.1090371636805992,-16.306875427722435,3.940474181969245,0.3561790495380428
0.9112499,8.964373772807207,-4.0407179538011215,0.06111609812931292,-16.125207167456836,4.570170586620914,0.5312113783982461
0.9212499,8.934223782399103,-4.055605163401723,0.01755645917511661,-15.478127558985245,4.871809758214555,0.9309285023213207
0.9312499,8.851338077154553,-4.095754812901745,0.020651042471670156,-14.518787791414187,4.8066333804501875,1.6394144828975996
0.9412499,8.74503970011064,-4.050817693546219,-0.004227677313149924,-13.879839593705448,4.61652565468841,2.362834880611265
0.9512499,8.75362970070874,-3.9089128596999605,-0.08581055751072748,-13.888009952663579,4.4554639959741955,2.7759778701478632
0.9612499,8.837425405461808,-3.8159137092315767,-0.09774357878154223,-14.415866948732866,4.297761108799542,3.1021240774385435
0.9712499,8.847914479118547,-3.8372544953909804,-0.04546333183972233,-15.853287906926964,4.76520928980432,3.9096499847622406
0.9812499,8.821438634969262,-3.8522154219624496,-0.02966007110740605,-17.511060976497685,5.493586053613075,4.841497836078712
0.9912499,8.8234532095757,-3.8243557995082247,-0.054801555491390354,-18.642709822138638,5.821100927344828,5.4754865390932235
1.0012499,8.828000977307404,-3.8729244067216873,-0.04567917344053226,-19.228242789243417,5.995707179951478,5.945646232246253
1.0112499,8.855253855301193,-3.9255120183905707,-0.0018257158198521192,-19.091781396236613,5.855440393802742,6.438427738711676
1.0212499,8.921524108716854,-3.9457324846242896,0.018369513686479585,-18.48669072969705,5.502372351414037,6.8071507157855855
1.0312499,8.972919534157832,-4.046375445832684,0.018564943638712163,-17.60529537161973,5.120634148136832,7.373313788908742
1.0412499,8.98009048739368,-4.107975995969478,-0.023561460921787618,-17.001471878145146,4.686873218451871,8.138277285967417
1.0512499,8.99328338777998,-4.076213533302721,-0.04577414268526486,-16.56414181477359,4.243102773907892,8.427371768907435
1.0612499,9.029687546310862,-4.021740019678775,-0.012566164904831163,-16.49249358026278,3.8920706450953433,8.183361555023113
1.0712499,9.125119246628271,-3.958176372760454,-0.0004767685562673483,-16.658665204619897,3.6701493250846533,7.6241187893893185
1.0812499,9.210554622906232,-3.9729278200722136,0.007437346794384107,-16.619995129441268,3.7662946547679956,6.781133286526217
1.0912499,9.206005429310366,-4.051158545048366,0.03713201911075507,-16.534347110487378,3.8877211951345347,5.867105364533929
1.1012499,9.19077289040949,-4.127014602905068,0.07020942100217566,-16.19774516928789,3.830821545892734,5.344328336597597
1.1112499,9.227653692108351,-4.200210723455982,0.09087530188028028,-15.112465888161621,3.6703252618522826,5.108490453098368
1.1212499,9.25819291502566,-4.203186239799191,0.0962393654441176,-13.818627783608088,3.6014424596481955,4.893804864768744
1.1312499,9.233119748254198,-4.138385226313877,0.05291724158408911,-13.002617175688393,3.5606371333908338,4.359278887944652
1.1412499,9.231786267579428,-4.146925374874343,0.009791784677660311,-11.777264759235516,3.450812761500235,3.4738301044332807
1.1512499,9.218658753701078,-4.21653180025789,0.060318590318530374,-10.459648165017512,3.2502646781339632,2.607026592805813
1.1612498999999998,9.173740827234296,-4.2242402207176575,0.11596331720103975,-9.587826523823143,3.1263614778556454,1.756508659962882
1.1712498999999998,9.227745817556114,-4.165005454234275,0.048545907156884255,-8.652448908878394,3.141688601360339,0.7985753546586375
1.1812499,9.193052118181297,-4.112304028891806,0.08198675763043448,-7.960846501127442,2.593067763103548,-0.35112611843545594
1.1912499,9.16696466152685,-4.090816197339117,0.30612391194169764,-7.502760518590167,2.3812687278742524,-1.4430207489150808
1.2012499,9.181826669325831,-4.03948188912094,0.3919430316019997,-6.886437387390806,2.3339848788060236,-2.494899556278633
1.2112499,9.117236390778617,-3.984265415389918,0.31726831844082387,-6.082468477736825,1.6804705350616356,-3.565672058217224
1.2212499,9.037594732480613,-3.9922610765591773,0.2379424496404604,-5.14361863068854,0.9579216074982267,-3.984024134909774
1.2312499,8.926359707137221,-3.990455870452595,0.22282290563976873,-4.615369444671825,0.1749731885231257,-4.057121164006387
1.2412499,8.86468970690362,-3.9694447567822535,0.25101637281205547,-4.39659756835435,-0.6309428763842777,-3.9897095816262604
1.2512499,8.830723513469332,-3.9060025513696215,0.22777061016725433,-4.171302082038564,-1.5484658601990549,-3.6197367335682773
1.2612499,8.754313698521095,-3.8041952611380303,0.13260596163535895,-4.127218925514818,-2.569763044737405,-3.2259341950407907
1.2712499,8.657112132573051,-3.766745708060737,0.054065768391279106,-4.1360628138272775,-3.5222007781474933,-2.840024550130841
1.2812499,8.594408448273345,-3.7853649738203523,-0.011003119711728768,-4.000783758766332,-4.324265174877162,-2.3565246453109934
1.2912499,8.597850188949248,-3.7603625738771176,-0.09043620659093703,-3.739653923206385,-5.234131774295022,-1.7990995302505501
1.3012499,8.634550905923719,-3.6979617500653976,-0.13562069513118835,-3.515118501756722,-5.830188573098033,-1.1750315815960637
1.3112499,8.676906835587229,-3.6581493390959374,-0.13710765498763802,-3.440644769193953,-5.738430552506803,-0.4230386864531214
1.3212499,8.720722098847633,-3.6526534543349665,-0.15473867145024375,-3.3963917289863117,-5.438320005271072,0.534678213701827
1.3312499,8.768276134994997,-3.6817644657548216,-0.2098458050686313,-2.962844923205658,-4.987332579345798,1.8628614901268958
1.3412499,8.791845149636048,-3.701474866652132,-0.2342439531757592,-2.3032594443882815,-4.524478357550453,3.0044702291499363
1.3512499,8.791672240038764,-3.7271429702653767,-0.24524210584266884,-1.306240427447527,-3.956557655216492,4.0707372552789725
1.3612499,8.775418722788439,-3.8150612131577955,-0.27398516314361143,0.4079858276663747,-3.307154585214341,4.923244616061374
1.3712499,8.740983636675303,-3.8958412944933096,-0.3075898185551015,2.2138611607329066,-2.884877621735647,5.595608080435248
1.3812499,8.764155699879362,-3.9952419959788656,-0.362043746605536,4.23350809226186,-2.3826225398325964,6.5785720913930765
1.3912499,8.764279884919628,-4.068076407737307,-0.38702475760762206,6.121977863016317,-1.873226671220841,7.599626915400013
1.4012499,8.737342936676763,-4.078230251065082,-0.37637681422694275,7.097941847885408,-1.3568498514215943,8.211223977505623
1.4112498999999998,8.695344380869248,-4.126143076888875,-0.4277585972625932,7.555224121891294,-1.007502969644835,8.80938231763512
1.4212498999999998,8.65203669559357,-4.245198469230306,-0.48322389315234243,8.158055282251892,-0.7468124039699932,9.288454297298378
1.4312499,8.620686254140324,-4.328194569603791,-0.49762898312190473,8.280726652511882,-0.31198255159058413,9.512031320306203
1.4412499,8.568718111467692,-4.333319138612142,-0.4896506094226362,7.833955262113735,0.1942684291546447,9.58668470096292
1.4512499,8.51876776593571,-4.369735653112154,-0.4672157426556618,7.336430071127467,0.5763488781193212,9.358551814204832
1.4612499,8.528787659111314,-4.387645162405367,-0.44174371741706253,6.369090949841198,0.9202334135594062,9.271601279943704
1.4712499,8.579254097047379,-4.427590095842628,-0.38464573989584244,5.603538052507839,1.3286546285819607,9.315676371504232
1.4812499,8.539458889737723,-4.495899773811101,-0.29408642432866605,5.083745281312604,1.806890786032396,9.35338745794883
1.4912499,8.42624950685254,-4.525353378876526,-0.2466244338226758,4.645306037630406,2.265512388229272,9.544144907656268
1.5012499,8.363719028412122,-4.548146728350218,-0.22378094081712468,4.43491903917475,2.583120357946776,9.941742558992727
1.5112499,8.342914215269499,-4.536741205117137,-0.19081748026157938,4.466140649145107,2.6693946814386305,10.222536088271399
1.5212499,8.275225690801843,-4.460403755990513,-0.15064448292359234,4.560132806016219,2.6009988450109685,10.263313010821564
1.5312499,8.180144464144004,-4.432925506573128,-0.11723366691072773,4.681361265321473,2.497789327800596,10.341828278337124
1.5412499,8.147049435426414,-4.487840817599482,-0.08346794818157338,4.575764280750327,2.2819120441413774,10.977867359348958
1.5512499,8.150899202743606,-4.47223557529512,-0.11792229368119422,3.728761363061314,2.2745400059163536,12.353055192006085
1.5612499,8.113457901869205,-4.316788074086101,-0.25271256433774303,2.081365428788232,2.3242584074082533,13.761890589274731
1.5712499,8.093499573653515,-4.172889229464361,-0.3530373772878083,-0.1804688995332756,2.0766879105313762,14.701412413133175
1.5812499,8.087260525037168,-4.136132713417076,-0.3815710317566527,-2.704598186997128,1.7095679228113048,15.423320398753102
1.5912499,8.04927218970444,-4.193588367844477,-0.3793130911676679,-5.014551417483484,1.6451492950468207,16.510422483302563
1.6012499,8.042780262998916,-4.266296281394237,-0.36222135758125845,-7.351296517411301,1.7386249648346475,18.4098743425952
1.6112499,8.055672908702698,-4.291872614150321,-0.372728994720261,-9.400328151307717,2.036909738523174,20.847292274254958
1.6212499,7.994018742399524,-4.244338266487136,-0.4558541178843949,-11.258645481205264,1.9856725915868456,23.292193344996445
1.6312499,7.889573732743794,-4.1818678706353785,-0.5701462397279543,-12.662956745196215,1.3135307849656446,25.90240430474089
1.6412499,7.8284870132976385,-4.17590252676889,-0.5895724871811951,-13.513240293771624,0.4676528814262833,28.731372822559038
1.6512499,7.74853840954046,-4.168247551865728,-0.5355350708611972,-14.994671499519631,-0.8176252102834095,32.36229684142125
1.6612499,7.576858607508371,-4.103292165240715,-0.5812436296751753,-17.225741121910286,-2.4829407633663383,36.553193132577256
1.6712498999999998,7.356554903958493,-3.9991515586047752,-0.6683000428858407,-19.82999419720202,-4.575454721858756,40.70086164008541
1.6812499,7.1274881210167385,-3.9652762548295826,-0.7073619844104669,-22.879870337021703,-7.273442272932451,45.37204048041584
1.6912499,7.005267418353526,-3.9752700075090197,-0.813458028890676,-26.484195727596433,-10.806775500781352,50.7132381808464
1.7012499,7.114048957665453,-3.88443617152104,-0.9591662865004976,-30.40861417023517,-14.93758125437916,56.06137607241351
1.7112499,7.287068670647527,-3.7974902834690294,-0.9560592528533429,-34.45877080543646,-19.2252302401479,61.23808454909075
1.7212499,7.410288623497124,-3.7551079683591384,-0.8564143806056075,-38.777112639007825,-23.52940399608076,66.66256162448686
1.7312499,7.570609816167358,-3.747084467432123,-0.7980491566399827,-43.4182005475484,-27.760738129737465,72.5360027115498
1.7412499,7.8151438323529385,-3.831151823321202,-0.8063601182980201,-48.27336815205994,-32.02454118479046,78.91434270261061
1.7512499,8.15943852203903,-3.8814425636767105,-0.8934889867803208,-53.946292170325634,-36.41457709838417,85.74043984949257
1.7612499,8.677894774000576,-3.7690297844864458,-1.0062770981327473,-59.9500709977589,-40.94094293407579,91.82036841578757
1.7712499,9.326584404411166,-3.630486840455748,-1.0727604526119876,-65.56690749367404,-46.59310187751641,96.64420228723581
1.7812499,9.89714532259221,-3.6843113337224938,-1.111746595809368,-70.06163674265152,-53.09461877274085,100.74883373318937
1.7912499,10.680953148105333,-3.844401787591869,-1.118096106492381,-73.25693239475059,-59.53813373936757,104.48816120905049
1.8012499,12.357282803302962,-3.8882087289577596,-1.0358968292041577,-75.75498203443291,-67.76303581119487,108.56409403081892
1.8112499,14.364623472063242,-3.812037625683402,-1.0704959831747378,-77.59538418228344,-77.61877516705516,112.22927070530301
1.8212499,16.140202560570682,-3.580383171853495,-1.2146075985965465,-78.79308422957551,-88.17740650870503,114.40997989424179
1.8312499,18.36535304131084,-3.09468141026885,-1.2205609443270913,-81.81004057553876,-101.49820916481791,115.13421620933804
1.8412499,21.17748900979385,-2.143381874849802,-1.2310913023776724,-89.53692300766609,-117.00075876088961,115.0070770613145
1.8512499,24.992107553130605,-0.5973481076248462,-1.5147228474135015,-100.96236013015131,-134.04806219248496,113.32936310435117
1.8612499,30.572298518949413,0.9279961270511917,-1.2824439228157907,-116.11466649527603,-151.83595950286937,110.19394679773899
1.8712499,36.23747018660893,1.7307654529484096,-0.21295371972451108,-141.26895403885575,-168.43020779677767,112.34814051060737
1.8812499,38.81612052292441,1.2388585716629912,0.40162380281316395,-179.7564849923366,-181.94818011072024,123.01942090068377
1.8912499,37.31709430623997,0.3129565817614964,0.13209454338275603,-221.26164403371672,-191.67874745875204,139.22101037272978
1.9012499,33.20282191051691,0.14700754281055356,-0.7938684169090293,-257.34997769266664,-200.19666563949806,158.4374508123592
1.9112499,28.45812417791863,-0.7363824030819813,-1.4660325832786518,-289.3004471385869,-210.90520781146756,179.1366939989212
1.9212499,23.686043876057763,-1.2251842082532034,-0.7764032353529348,-326.7483692381768,-220.48156985619164,201.1191706036486
1.9312499,16.842323712166813,-0.44517017363902633,-0.21452506098621557,-382.63857515392584,-221.1949591523004,227.84522461329811
1.9412499,6.025175093925391,0.17262801442923328,-1.4528137404279569,-456.11981635846195,-223.64884628117005,262.8605353298299
1.9512499,-5.807375918720774,1.5692729451305105,-4.255659148932717,-500.1092506198161,-230.35629301776007,292.0375454981548
1.9612499,-17.391124663049986,1.3148305614295017,-8.11305612397162,-500.8798411048253,-230.35949012218006,309.1085824976177
1.9712499,-31.773757819534477,-2.6592462796516476,-11.783534928786068,-498.57918655126866,-228.04263255696515,324.17163360051273
1.9812499,-45.91224788061324,-8.139010903341264,-15.985429086914897,-501.780574476565,-213.20214167328803,338.62476079873056
1.9912499,-50.81459346935149,-11.417535294008179,-18.4731375485569,-494.3870670501532,-170.16045652198036,339.29597228780665
2.0012499,-39.161257595823955,-10.626883784261095,-13.590020870199831,-430.1553951311486,-90.03857803208643,294.8395488815166
2.0112499,-21.746668303351377,-9.924165566517292,-3.3923896710674133,-296.3328950951834,9.078450561306767,195.02225607496032
2.0212499,-15.247997132238602,-11.590056196548508,2.495836738226265,-135.31965894470548,71.24968202697296,84.45721108975316
2.0312499,-14.29789114467084,-12.3006533828851,1.651392319716904,34.935204079583855,89.14132582673385,-15.199614576374085
2.0412499,-14.978692645568092,-11.042312290221844,-1.382330712555529,204.23345402194053,82.27442569236722,-104.67284434943701
2.0512499,-18.51982803839189,-8.261656757388156,-4.035785088622828,322.816537065399,64.94718188533598,-157.8699064750103
2.0612499,-20.551069934096528,-3.1711928446590143,-5.7329970350223,370.4921316686577,48.86577514659397,-177.02312670017432
2.0712499,-19.05447102008491,2.615564820838896,-6.386290028077457,366.3891245420391,34.171503254566275,-185.732839826476
2.0812499,-16.024887570309904,5.902492393998585,-6.817186809031815,328.1488690779128,21.713040031900956,-190.38246355909558
2.0912499,-13.46767839709554,6.440837291997835,-7.400632155700583,271.64857591923897,14.061971075215842,-188.83666724365332
2.1012499,-11.516509139294188,6.059966184566269,-7.877453236722654,209.3045882985243,10.38099093883382,-184.39121765020573
2.1112499,-9.074128012665671,5.05376945872649,-8.246826594319435,151.03356494234274,9.504549277640475,-179.47846843613905
2.1212499,-5.826860529809108,3.195214678099566,-8.493927073044956,103.47786215268727,11.030362128277746,-173.90585901064512
2.1312499,-2.5952162743015372,0.8500513729508279,-8.6032181297607,68.42188747944182,13.480269757783937,-167.14102283018914
2.1412499,0.23088434606720512,-2.202703184367009,-8.448711969539344,48.243265015269465,15.840779432248834,-157.0624818295416
2.1512499,2.584878657996879,-5.330857945957037,-7.925603820318134,39.90917875653629,19.107804847221303,-140.0547480854252
2.1612499,4.415527617187823,-6.650036468608573,-7.692318694521137,35.06020773815161,26.508071544432084,-116.50457473436238
2.1712499,5.741498941268583,-6.660922952372558,-8.027693786227323,36.22946848848192,36.021851190856225,-95.9545738222074
2.1812499,6.744512526967032,-7.07737567901177,-8.128770865339908,46.07623697320366,46.110978566763514,-82.5042910289008
2.1912499,7.963852063670271,-8.306619609250339,-7.790881559774037,64.69606283974014,58.2850105459946,-72.04752274997112
2.2012499,9.491888622836793,-10.047765568679768,-7.232077862484777,92.86741337658502,70.5289281222227,-61.916597925963565
2.2112499,10.462258923456057,-11.460275877122886,-6.7428882146646645,130.6900912610931,80.95960369528811,-51.48162845177381
2.2212499,10.412092944651146,-11.547484339877913,-7.525975305838815,175.19933605555562,86.89342187633248,-43.01745688528409
2.2312499,10.020244634532032,-10.520161919455076,-9.112347530230881,209.8840172802045,87.05422511516326,-41.16198681333542
2.2412499,9.317440740560192,-8.827170983398569,-9.88087659031664,227.98053449870594,85.96251099788613,-45.57510046162573
2.2512499,8.556557533223955,-7.038663452434288,-9.683110927122565,232.5649805779418,87.76927946681364,-54.789564964869356
2.2612499,8.550195020457187,-6.2619534611135625,-9.126688858385588,226.87741295640473,92.91251588034669,-65.66000261601734
2.2712499,9.21843825324193,-5.9757734690407425,-8.528684793675353,212.14564144221615,100.69525704064775,-74.48581480558829
2.2812499,10.046290398575296,-5.574363042140036,-7.808363821026119,189.84921254407263,109.46318563020094,-80.82818184000897
2.2912499,10.746922730034678,-5.413561646482438,-7.180537608034437,165.75394032575772,116.45677416717335,-85.65175260747002
2.3012499,11.22818921623947,-5.504038249832178,-6.899885953611744,143.64463601999088,121.93359706553038,-88.84809840750215
2.3112499,10.902656227129013,-5.386814545569918,-6.913111103341498,121.67811686845276,124.86127870182365,-90.11881558618772
2.3212499,10.016895439642889,-4.976525811521566,-7.083185168864299,100.81833188760454,124.98982282145084,-91.94617164619301
2.3312499,9.284500799849583,-4.833792122406547,-6.983031999029904,84.85988536960502,124.25399450170917,-95.00155908361175
2.3412499,8.611247325656914,-4.9469093371232935,-6.350988502925662,72.69679426722114,123.29759673665306,-97.84302469623289
2.3512499,7.933068882757972,-5.15822649755025,-5.424423886250933,64.56276414734504,121.66358396475691,-99.93159030597914
2.3612499,7.552206746734197,-5.82601337124868,-4.72467804647763,65.3285758429172,118.71011461448572,-100.84258427249931
2.3712499,7.208274198835149,-6.580526502047089,-4.463630799994036,72.85985509213471,114.03405920162,-99.8431061418317
2.3812499,6.863934968458603,-6.648975949830687,-4.440841436888414,81.34790290315715,108.9574796454701,-97.79740597644172
2.3912499,6.896870574966677,-6.537660550408168,-4.313491747498427,91.14309392245899,104.42458214528138,-95.5768351131409
2.4012499,7.080861931696433,-6.4685844139772675,-3.9111308912045524,99.5596955520441,99.83295116790703,-92.12445198585209
2.4112499,7.251846229718437,-6.098894036707503,-3.585406345767203,103.30603419989342,96.8631032341605,-88.00703117805145
2.4212499,7.385223087640628,-5.509468111778178,-3.6219271032125007,101.61868292113913,95.3100291005154,-84.54763121013059
2.4312499,7.662194970027381,-4.996503905549904,-3.831585498581718,94.89850924854197,94.84904591306112,-81.8590623199291
2.4412499,8.007888186289836,-4.680075650579542,-3.864377292576503,85.02364165416812,96.55237978851892,-79.68762712807252
2.4512499,8.119796097623148,-4.472974650545446,-3.5867975008721498,72.72990836550161,99.46902999700059,-77.66333484242358
2.4612499,8.101427423130618,-4.224347128305444,-3.181198924479028,58.35453609371757,102.1416409429238,-76.76914016762913
2.4712499,7.974083997840775,-4.024823919836713,-2.7664624172980767,44.83816648946344,103.25953333819142,-77.36014608641281
2.4812499,7.861319156582544,-4.087104911308296,-2.485305154274111,35.97153926828048,102.17581346318961,-78.43951298247407
2.4912499,7.760332852769073,-4.274092864977806,-2.33644767548721,31.635249655110993,98.31639959312182,-78.96306299301615
2.5012499,7.618543233482756,-4.513856740701547,-2.0809393919575245,31.81751097757688,91.71399754972771,-78.40394844332135
2.5112499,7.577750215747055,-4.686226681059157,-1.7072381017365792,35.60875153126972,83.16946237213538,-76.43908033637817
2.5212499,7.743932756900192,-4.673066366334755,-1.3294006051175502,40.55910160291539,73.67101223428207,-72.3291574541175
2.5312499,7.930203950494402,-4.529381588317077,-0.9593083188953789,44.70235855120585,63.64332903444384,-66.4089434141962
2.5412499,8.021137076057235,-4.273508352608632,-0.7213977251606992,47.428333021629406,53.422039175069756,-59.844739008348675
2.5512499,8.071031082064476,-3.9889666447507635,-0.6808787044751654,48.6834716605646,43.2760747717924,-53.0587832893555
2.5612499,8.123312725085272,-3.803578934295339,-0.6032905594682388,47.64261813256326,33.70311976002969,-45.738431855946445
2.5712499,8.176759220466868,-3.5396451812961423,-0.49264882499493634,43.637295563949976,25.552504525257756,-38.98791122000882
2.5812499,8.188929282578322,-3.1589595836647266,-0.4752461539439218,37.251714920017086,18.112687896271098,-33.616800390735946
2.5912499,8.272575416997043,-2.9399199092352273,-0.48336741660349225,29.344009753594367,11.387439030021058,-29.405844900186814
2.6012499,8.403611764341091,-2.8556444224999655,-0.4707172569324141,19.62955292941177,6.139182662566169,-25.886418815817837
2.6112499,8.522426093801483,-2.7761860482306404,-0.3970633546887397,8.126906533034989,2.124784063257351,-22.722838898563474
2.6212499,8.672873826168995,-2.557379592981432,-0.27641331302157357,-4.709745384395584,-0.8762798763409578,-20.996062471845114
2.6312499,8.768949142894037,-2.453016514433775,-0.14693939442107048,-18.175563486466796,-2.8862837856188057,-20.710384682757546
2.6412499,8.695434146944855,-2.8198573021216027,-0.0867389727891764,-30.068880315642456,-4.305951816358647,-20.744305804106265
2.6512499,8.538511086139017,-3.311683874546623,-0.10180586021723587,-36.52953505324543,-5.371680763423663,-20.406045654490686
2.6612499,8.483639217458888,-3.740618974941776,-0.09448378271919315,-38.79786459767489,-6.239851913755061,-18.81080368437278
2.6712499,8.512029168428832,-4.07148023894773,-0.12378607730972246,-38.843310703038746,-6.627740797120782,-16.109844825436582
2.6812499,8.486810011115509,-4.187484499724686,-0.1532524546583519,-36.91160398390902,-6.823214168442679,-13.557119125047846
2.6912499,8.512436671073342,-4.280330905697588,-0.057487475212714,-32.543821991703766,-6.742136434747932,-11.962904150655124
2.7012499,8.572627033647047,-4.471690550843713,0.03236829560557439,-25.914520638331275,-6.127210843026901,-10.694782993760384
2.7112499,8.58134137427983,-4.739829382349147,0.03857221437797332,-17.45383040045062,-5.7147842360694066,-9.043539500612221
2.7212499,8.650048916852983,-5.028864528694707,0.007555418450800303,-7.594885437898627,-5.208731611212467,-7.015228929201056
2.7312499,8.688603788839442,-5.116391485177379,-0.03216733169317073,2.4427270454576413,-4.606313306720232,-4.861602085700944
2.7412499,8.705555740431496,-5.056130993652775,-0.05152215291526777,11.700182380709412,-4.3901022398143095,-2.8183807736152855
2.7512499,8.773819185477505,-5.0341732269133646,-0.14627952896032984,19.923644384131624,-4.044117784394826,-1.1517190956912964
2.7612499,8.846504532392604,-4.996166475862555,-0.32269772739912655,26.42634445580901,-3.6513307345445267,-0.004694487785022092
2.7712499,8.933413781378125,-4.931818238318512,-0.48277215435723425,30.79978675050246,-3.067778859478449,0.44478038278132154
2.7812499,8.969502973516327,-4.810324927070159,-0.6251719281689696,33.318575066889515,-2.103157480593271,-0.07304421723865784
2.7912499,8.962799581973128,-4.61682988143855,-0.7341438621377824,33.3995335999125,-0.8412959611228082,-1.436564507403613
2.8012499,9.00933380906099,-4.352282198602529,-0.8590137458416125,30.766743246695963,0.8357147657146629,-3.499389541427847
2.8112499,9.056169242224511,-4.029461098144789,-1.0127256516518228,25.539473636378037,2.515198514796741,-6.056035090301098
2.8212499,9.130297435451505,-3.762246783710519,-1.11587379323753,17.721343474942305,4.313824930130086,-8.556390129709662
2.8312499,9.203238260603344,-3.5782266782177548,-1.215119475610529,8.612128821571087,5.913680567412756,-10.66987240035382
2.8412499,9.167755043401172,-3.4523224320386934,-1.3120630442422119,-2.615401717547992,7.328673247619191,-12.349005111356957
2.8512499,9.087716729307761,-3.485677478168914,-1.316980379869261,-14.862442123395498,8.424926569886518,-13.210980032046987
2.8612499,8.987436451521592,-3.6953129153481115,-1.176589034102678,-23.304928816874412,8.745768681524353,-13.125342671058448
2.8712499,8.883132071237469,-3.9317906567983636,-1.0062365946759662,-28.181099692197737,8.188515212292701,-12.503806716499984
2.8812499,8.814334285351467,-4.245547078755995,-0.8452358653512445,-29.330375953358356,7.166727324686919,-11.475073082108993
2.8912499,8.713430228689264,-4.5751718570093045,-0.6730558188247253,-26.39893250298591,5.530926698347527,-10.130510409743062
2.9012499,8.6051319703845,-4.819862965017853,-0.5053917435479357,-20.476942659825383,3.70903182144087,-8.176163211231747
2.9112499,8.52698436637026,-4.906781850676696,-0.3947219076100471,-13.466120462324241,1.971949126108904,-5.814338439313401
2.9212499,8.483530666819771,-4.682457796038656,-0.3825885353290463,-7.21595965312287,0.251975439913485,-3.7951769840173584
2.9312499,8.490310605083002,-4.296713260627759,-0.3975409573693076,-3.0344849734056614,-1.3722903094489471,-2.2814108547784886
2.9412499,8.503639936261495,-3.982290415932371,-0.41590736904819986,-1.7682987938224326,-2.6392144662220756,-1.1058425098615705
2.9512499,8.531980879321758,-3.8048304151303487,-0.44701157116251783,-2.838450858908051,-3.151092059612149,-0.07451110813679537
2.9612499,8.51119973182098,-3.6245738686690103,-0.4942712032720218,-5.56727860821776,-3.2921014440797296,0.5880510977462456
2.9712499,8.482387375451001,-3.523528749107617,-0.5578218932665099,-8.766607507004467,-3.2587302274556964,0.9743372752455893
2.9812499,8.484946389285,-3.568339066155654,-0.5838395225219993,-11.815258752626438,-3.0267690490752828,1.6883328585519186
2.9912499,8.430085161366405,-3.604390557797582,-0.5860308344170063,-14.389891739246501,-2.7374551646141816,2.8340596172888706
3.0012499,8.455442257920659,-3.5496264262433783,-0.6022944547152611,-16.51027689934162,-2.4163517170399795,3.9883209758844567
3.0112499,8.560133131067547,-3.518369182168598,-0.5551757616958164,-17.817027001098385,-2.138075091108606,4.847485707220414
3.0212499,8.539608706720141,-3.631039958264939,-0.5244382108165632,-18.28533406861629,-1.7971582113157643,6.003290112509061
3.0312499,8.431452093509574,-3.780519747449214,-0.583312005990864,-17.953607848095494,-1.6443512254127886,7.669133545820743
3.0412499,8.372302865045171,-3.8318463030154057,-0.6231584191015366,-16.832174019680902,-1.8785038791801498,9.668682817044953
3.0512499,8.329525249596355,-3.8701323070407976,-0.6411531114149848,-14.778610305971766,-2.513086835515825,12.295219825897908
3.0612499,8.238919834192746,-3.9940906998094405,-0.6339218066860411,-11.784325031569168,-3.6278837537018913,15.311141877364175
3.0712499,8.149831472432082,-4.068432428423534,-0.6013028794141168,-8.361630213786228,-5.108687774942913,18.21031171546865
3.0812499,8.03971364336248,-3.9632014605437695,-0.6151426695677564,-5.219663269696876,-7.210193088951404,20.950421764752654
3.0912499,7.926799345018296,-3.8164387924630194,-0.6852096807337308,-2.7891782710145114,-10.08786293246455,23.61712448496399
3.1012499,7.884702262907266,-3.740238521598969,-0.811567889014751,-1.809564517891992,-13.539736783713806,26.90466702707625
3.1112499,7.835540332667491,-3.635567955457632,-0.9394844743006625,-2.844985222319017,-16.920538843620136,30.700732310036422
3.1212499,7.754505909024565,-3.4404297214231843,-1.0191894016711744,-6.073865956236749,-19.91325984447347,34.62339690834771
3.1312499,7.625831985535439,-3.247032038181515,-1.139938867057722,-10.922325965289659,-22.432561858216157,37.981301238079105
3.1412499,7.512939732178386,-3.119797131865435,-1.3584973260558937,-16.732321602836812,-24.96860368697744,40.91077244921731
3.1512499,7.444010119274222,-3.183093866783534,-1.5204451490260937,-22.26691853059205,-27.55316060615941,44.01293316890387
3.1612499,7.330729804046404,-3.3679626057813037,-1.5184667785913422,-26.941806484692155,-29.9495547328514,47.857061187978246
3.1712499,7.282021448235439,-3.51733350668883,-1.4790699731470618,-30.842334457018197,-32.13542725068297,52.27237400633778
3.1812499,7.300074093188925,-3.6657814430118534,-1.4943039340513982,-32.60106849069035,-34.20608426447736,56.65493971030351
3.1912499,7.2812840854308,-3.844156347465194,-1.5525370265403104,-32.47535390359381,-36.42111981507063,61.142632559765644
3.2012499,7.396924561907936,-4.069617523294163,-1.56541339566267,-30.641133030773634,-38.74234734826756,65.95482294401532
3.2112499,7.607445543262657,-4.203691959027999,-1.4969049811325843,-27.316323984029815,-41.20228608010781,71.147973027313
3.2212499,7.742401924924646,-4.064306603783186,-1.4691156346681005,-24.58761571214625,-43.69564991079413,76.61950685687934
3.2312499,8.037892586064897,-3.769325997142585,-1.5399997356529702,-23.283296309262454,-46.64644456551083,82.19964631498216
3.2412499,8.495308004469104,-3.4360957580165707,-1.6351881990246813,-23.62553913132469,-50.71706413947875,87.6138622382209
3.2512499,8.791198928505395,-3.06907584095062,-1.7312908798560618,-26.244100427066904,-55.40593299171373,93.10124012419085
3.2612499,9.150810285779217,-2.743468106685815,-1.8580957669640072,-32.02947273290021,-62.05995543279768,99.94666429096169
3.2712499,9.939114623147823,-2.5574226653011354,-2.0307424425657716,-39.29279199421765,-71.30554026617735,107.15806700859098
3.2812499,11.168605539731393,-2.512509396963433,-2.241011687522981,-45.15826519934146,-81.62238070164568,112.81630855086226
3.2912499,12.819271829876794,-2.4813509183921103,-2.3527761167616794,-50.94771161757498,-93.95944184549985,117.81517074206873
3.3012499,15.006584455046378,-2.25199854633255,-2.1560166894763375,-57.86241526881721,-109.00887883477536,121.49406386844674
3.3112499,17.915278553120018,-1.7736682499029481,-2.0704674116319866,-66.30003027600355,-128.1728186096147,123.01734319089609
3.3212499,21.403455406037395,-0.7456347082164578,-2.69076322818,-77.20956550226416,-151.4078189327771,122.20269068348017
3.3312499,25.498161059567558,1.2782815314730325,-3.296388477170494,-93.04731053077109,-174.8088370334087,119.01237256291013
3.3412499,31.050033968146227,3.698488178860244,-2.930670802755845,-118.90049331979279,-195.70431310418238,115.71106491351676
3.3512499,37.37658531006307,5.795395279291464,-2.410702874620812,-157.20390821192342,-210.4568768284479,116.39938571555082
3.3612499,41.043549557664456,7.39857868417676,-1.8542462026799413,-207.76806759837467,-216.18672325410282,123.27896575231341
3.3712499,40.29870168127604,8.841675232108258,-1.0635444384256678,-272.63327188294494,-215.0830969410421,135.97128088664354
3.3812499,36.29056940111701,10.008555164598114,-1.2274521849594826,-344.4088931192567,-210.5787761428358,152.4251614160497
3.3912499,30.871364922669894,8.908196640507091,-2.438037644259553,-412.21966837280996,-206.8911293809587,174.94002125440488
3.4012499,23.882553163977494,4.44678268567266,-3.6900790968930917,-467.7220179298666,-209.88799972765648,207.97310621239535
3.4112499,13.701797963423843,-1.0240113417385137,-5.012074101746347,-497.26720313712406,-224.19055794716542,250.4753254944136
3.4212499,-0.021201733550604285,-5.2596204682318906,-6.910858658787513,-500.44314142856405,-249.9078299763435,303.5834297957877
3.4312499,-16.638926317755363,-8.243977843488299,-8.515402483472057,-499.67329694749435,-289.23993964329463,368.0528159727966
3.4412499,-33.543248283721894,-10.830272762938598,-8.792974665341385,-500.90343124480273,-330.72528795825554,429.53006523114885
3.4512499,-52.51511235475727,-11.86155846820104,-11.69721926176309,-475.57711931012676,-345.0103411839922,470.74648663793226
3.4612499,-71.8626096151013,-9.669504510823206,-21.485839437799623,-425.76932430781716,-306.61431407785886,480.1183572275719
3.4712499,-60.93910647114572,-6.023298866230416,-22.36447478030241,-395.1802658563798,-167.2554859784083,422.8889089941583
3.4812499,-23.403120449686686,-3.1832495822804607,-6.979976710563829,-374.86140429905004,34.62051791892903,279.57844223230927
3.4912499,-9.813505326838598,-5.776337348007202,6.669707436070036,-310.53529287713974,142.89294334729334,106.56598726622042
3.5012499,-8.820264497934753,-15.73868529407937,9.366350443898222,-135.81372354244795,155.36636896662165,-59.22148492742024
3.5112499,-4.37049304780996,-22.031549994056814,1.1120735608192802,120.32133343360115,147.4028774483191,-201.07278698545034
3.5212499,-11.675976943994872,-20.64282245586215,-10.1547579513566,348.83114264895346,135.63917219726468,-283.7936952565228
3.5312499,-25.784714985241717,-13.854647040787512,-13.884619582584357,472.054626898252,114.65423318332914,-297.902985034379
3.5412499,-30.66921636056718,-1.5854718879828167,-11.733828130744186,485.4019599765032,90.32816663420023,-290.73986412092063
3.5512499,-24.889178892828937,9.540062219906249,-10.356123481382946,421.3182679033068,76.03877828952704,-295.65658086601945
3.5612499,-17.077192983300762,13.033747674446005,-10.283934160981877,314.7710270123812,75.52357963032821,-299.3440160884975
3.5712499,-12.851035004045162,11.214371554390729,-10.035883287198912,201.69590934108948,81.7380364578878,-287.9367021344801
3.5812499,-10.15768464272327,8.671738861726274,-9.728575245156355,103.96415236653068,91.01151592111584,-267.82157008257514
3.5912499,-6.220393897894238,6.450833102910483,-9.403503226235499,29.656001119933837,101.89807610078994,-246.28411328375032
3.6012499,-2.5491617818610957,3.58418058904479,-9.229524537462353,-13.483539135951434,108.38400492286418,-223.25360355347104
3.6112499,0.0367288008514096,0.2017772638155601,-8.961561993817252,-26.605778921282504,110.29662669905366,-197.36541861679393
3.6212499,2.170203021007395,-2.215678035248855,-8.144181859668087,-17.72463369920555,110.13689935081248,-170.6238427153042
3.6312499,4.188332393814889,-3.8600227620294874,-7.467176604108784,6.957276932661182,106.40221828520637,-145.32308106119976
3.6412499,6.043159164970822,-5.509698040702681,-7.082422258224115,44.20470840486344,102.5456136374064,-119.19210704261123
3.6512499,6.9809241491221545,-6.285763489610706,-7.06537730454003,86.15139306269135,100.92309186107927,-91.56267146030882
3.6612499,7.8528479376960485,-5.6838373956180925,-7.253087512019464,123.51062851372524,102.51686014643614,-67.80325821568131
3.6712499,9.526738680614718,-5.053780992572678,-7.202976578007911,155.6063206387554,105.30925371736507,-48.4684483737517
3.6812499,11.783700036667614,-4.906272516729255,-7.208859448013377,185.8990793939348,108.33153289455377,-28.40201427755983
3.6912499,12.755387733023722,-4.2613970882936405,-7.609389440499745,205.2763066591163,109.79497688720497,-14.69066129482095
3.7012499,12.284548870041727,-3.4676422031503393,-8.596339770208651,214.0148597113449,108.99246414376007,-11.178165747238685
3.7112499,11.766127001049595,-3.0882851971238177,-9.5911200007345,218.26426287428208,108.9953032493498,-12.6425516278074
3.7212499,11.31117451601784,-2.5705680752291205,-9.79252927036231,212.64319513206414,110.31630257327186,-17.11656490402863
3.7312499,11.397902427953207,-2.1554013157709986,-9.452962166016494,200.45933415647212,114.69517211087766,-24.79537885463151
3.7412499,11.790050227232872,-2.258499235974106,-8.806881765110253,187.45677760979356,122.79046179272643,-35.7130257052131
3.7512499,12.015681136679625,-2.808756352480239,-7.6293776018356745,174.16233591563537,133.03544824527816,-47.40916146101908
3.7612499,12.147236671088672,-3.7898227028446376,-6.175180957145003,160.89578701362498,143.94932734118387,-55.40173542663913
3.7712499,12.006190989043006,-4.403802300744201,-5.025427829313137,148.06632691672203,152.01605842273017,-59.65979753963529
3.7812499,11.697295909580033,-4.640485038931956,-4.50021259679333,139.66128724865865,154.70663522702802,-62.34839308833553
3.7912499,11.064151811052009,-4.860649219079604,-4.432296156517291,136.41588565648465,152.0554144672071,-64.37124045301175
3.8012499,10.0988331948755,-4.7686416103825255,-4.3486357440413,133.77097659494183,146.26249897717025,-65.42684575998496
3.8112499,9.087057262577083,-4.415488891489722,-4.201631362932376,129.27589932154078,139.81122033323504,-65.31850978133544
3.8212499,8.102239205235513,-3.942611399334806,-4.019984877335678,123.00417171803795,133.111039147984,-65.96016067032087
3.8312499,7.449090659205927,-3.2353035751839343,-3.5753616151928655,114.94314945133452,126.98363803651567,-68.8756868773307
3.8412499,7.377159753530598,-3.0166770219573737,-3.006158932408415,109.44690139345984,122.1944532367185,-73.25458346543526
3.8512499,7.442044033845789,-3.4302237732508885,-2.6321333717965403,107.10471453897239,117.26150667959789,-77.16879075489598
3.8612499,7.4717908002291304,-3.8419344090094762,-2.428899964424093,107.109315668875,111.98041645742185,-79.29009019945393
3.8712499,7.549725628912804,-4.48636715865659,-2.3161389383512647,112.27165682216723,106.04421054577072,-79.33184170259202
3.8812499,7.631513879134093,-5.169741929002438,-2.177913015916235,120.05734774820749,98.11008098860694,-76.87477638682495
3.8912499,7.922291409492141,-5.414659227376264,-2.126216090364736,127.21882652847636,88.5049509149583,-70.86333650350153
3.9012499,8.126458089668878,-5.111170547057815,-2.2609105862284893,130.21163679058307,79.32322225999371,-63.7503018785768
3.9112499,8.145684656593055,-4.599560226910957,-2.3037870874016084,128.53949469695237,71.35292268437044,-57.821072776966545
3.9212499,8.311071708769292,-3.8079544805079255,-2.302805752784723,121.38072667436147,65.25726100736567,-54.54881585373662
3.9312499,8.465743927905224,-2.8198231161457663,-2.283935509170111,108.1692768185649,60.50711211272461,-55.04224589540186
3.9412499,8.758108068932872,-2.4952819206097048,-2.171257830664836,94.31462716353502,57.404300484145736,-56.58000453322419
3.9512499,8.99653886422361,-2.6015169461594576,-2.1499960536340956,79.21326723125006,55.24969104404771,-56.709776503330296
3.9612499,8.894254133098933,-2.8117843687146222,-2.1088713298587427,62.96876547667204,52.5389695892774,-54.71248067142919
3.9712499,8.626544217507645,-3.076838281304559,-2.002495976147845,49.018331602034024,49.01628275148659,-51.10263562059014
3.9812499,8.535987545307057,-3.089239946247069,-1.9310502667382576,36.71794492602542,44.4446612301016,-47.530612449944705
3.9912499,8.674773469380828,-3.2433435083941227,-1.78301640926112,27.148606135105073,39.054517159309135,-43.82867509560531
4.0012499,8.749966327745712,-3.639847076972872,-1.623767212295801,20.203031209934185,33.82643272732943,-38.88908995191925
4.0112499,8.63905691639955,-3.808771957153518,-1.5220144129178121,14.666735722280084,28.610967074494962,-33.71848051301744
4.021249900000001,8.480916164322888,-3.8568790136287503,-1.3868192270945703,11.332871649829647,23.210209783164153,-29.19252563541961
4.031249900000001,8.412435534350353,-3.8376463053787133,-1.114718870669505,9.249446956074895,18.082690237002712,-25.551610399674352
4.0412499,8.423340822574449,-3.966450409495697,-0.8343480523482503,8.616518225769735,13.683959256496832,-23.011903150629497
4.0512499,8.452626721857026,-4.190050302702005,-0.72538807310221,8.600867670501637,10.047144523355549,-21.03289775394302
4.061249900000001,8.490075192081347,-4.399564248975366,-0.7445987671003371,8.68195678402081,7.0188961294552,-19.18689403092498
4.071249900000001,8.604386750101687,-4.660662352911091,-0.7324040143723795,9.435212918563169,4.78844027684845,-16.915195802712415
4.0812499,8.764340173867598,-4.711802892983365,-0.594775727384329,9.178709761090595,3.699561639277683,-14.355626948234962
4.0912499,8.826563333678882,-4.539621442629313,-0.5321636525744479,7.756982077617594,3.7088964060143863,-12.40367056021382
4.1012499,8.845587391088458,-4.34606131378986,-0.5093541322797956,5.810396172258877,4.069637380489469,-11.584266558513537
4.111249900000001,8.869424341076996,-4.367434701223505,-0.33596214530152185,4.626267870038991,4.58825559257837,-11.70500020959394
4.1212499000000005,8.84973489136595,-4.443770482841164,-0.2317010149779187,4.521650763891943,4.863239577241804,-12.04620067260402
4.1312499,8.858731748266162,-4.469200722627725,-0.23280672280260617,5.3615341777218655,5.121879409732984,-12.40626603130815
4.1412499,8.80881480044344,-4.506893753929374,-0.1268622054974732,6.801977160817456,5.441619130746206,-12.18595210522546
4.151249900000001,8.633583809794665,-4.4498508699122175,-0.07721404839414667,7.420310698310542,5.485061059417375,-11.412619113480238
4.1612499000000005,8.484814022555694,-4.307510190149067,-0.19269260398601085,6.976214511756146,5.334998435936818,-11.365433686667824
4.1712499,8.439985019392202,-4.304583035145639,-0.317508196215737,5.851598809193508,4.616658977102603,-11.721157273319688
4.1812499,8.437009744185312,-4.3367252104490035,-0.40549641175557677,3.348554024419898,3.8656685334488814,-11.011926470235723
4.191249900000001,8.436044320292556,-4.283301927217593,-0.43978457779853236,-0.4790470780381883,3.3276380137170416,-9.633969528290658
4.2012499000000005,8.535767126062703,-4.282854506855587,-0.44396535248629926,-3.954402036308547,2.8972722150348793,-8.294967939065915
4.2112499,8.653014924585769,-4.331625478870781,-0.45711976027177714,-5.909450614725197,2.240642942906484,-6.651944706610724
4.2212499,8.601244209996006,-4.339988559845227,-0.39919849341299024,-6.651644402743561,1.0610078194697683,-4.617191729807792
4.231249900000001,8.52663301808586,-4.315494469945914,-0.39765312614451154,-6.871145302256471,0.1076217768893541,-2.5336711523965016
4.241249900000001,8.521221449893206,-4.185740630626837,-0.5405380299764287,-7.45373679708793,-0.5560277257761667,-0.9563223642024892
4.2512499,8.554407227258423,-4.0622742851123075,-0.6131034791748746,-8.538801163888154,-1.2156609873072428,0.07625264862628274
4.2612499,8.70035644966123,-4.03450414240033,-0.5502408760543521,-10.369267019449925,-1.4745320904610622,0.9633627726190561
4.271249900000001,8.857422761070216,-4.0771625220898065,-0.4539367418072879,-12.178652695971381,-0.8907142241356738,1.4279811250946042
4.281249900000001,8.924322607826184,-4.206496117207317,-0.3449795328607689,-12.355718420773194,-0.02146852300225348,1.6113015930329322
4.2912499,8.928166830967527,-4.357999916704076,-0.2371553905004969,-10.97287527549405,0.5128651311965986,1.8468039237511447
4.3012499,8.868685952839877,-4.520200327479899,-0.14741247044130118,-7.773333341792888,0.8733379781595925,2.6554531056420774
4.311249900000001,8.74127295533873,-4.637222069781613,-0.1833770005504618,-3.3516322853885026,1.2008266014013176,3.991420742412089
4.321249900000001,8.581106203234924,-4.624578160478224,-0.33448850238128713,-0.18911801542502737,0.9968250888911684,5.295501430193533
4.3312499,8.51167514693956,-4.453746924974256,-0.38126751255360214,1.4197903868891895,0.7907294884615721,6.333283520793482
4.3412499,8.583225400566091,-4.186097859680733,-0.2976131357899417,1.2303485941836168,1.2489672247765997,6.581330737627462
4.351249900000001,8.659038474680598,-4.078548913277797,-0.22730363733121306,-0.04119465510186271,1.6567094925369157,6.69717871518327
4.361249900000001,8.667142009413498,-4.118141100525389,-0.22270233331365927,-1.6825014537392498,1.8740942163519867,7.048654756678651
4.3712499000000005,8.665518023060098,-4.173747265116853,-0.24873231626667844,-3.2198737646866076,2.0979430410565816,7.21587470346368
4.3812499,8.65695921063022,-4.265989966538097,-0.2719917356781594,-4.219080816406642,2.067047868280167,7.545453626783351
4.3912499,8.623849569670352,-4.301567444720568,-0.28106111216972424,-5.212706352637213,1.4955085125639223,7.652542486821858
4.401249900000001,8.599432194639553,-4.300350228213159,-0.3142309208201522,-5.817091724424794,0.7078049735227485,7.557679701329038
4.4112499000000005,8.515472621722694,-4.389348895822434,-0.3607590498084441,-5.729730938232833,-0.17058425641602365,7.641838861422371
4.4212499,8.416978257207008,-4.548931004200622,-0.41088152880783285,-5.533737518151027,-1.4182678756981435,8.01325616667187
4.4312499,8.383927717823692,-4.612995277578501,-0.4968721438740508,-5.374448804134693,-2.7198766145877324,8.350422787206346
4.441249900000001,8.407188442040171,-4.588373863676235,-0.5740889973496353,-4.810436636641291,-3.8388966926664145,8.522007936677063
4.4512499000000005,8.528139731134278,-4.521481635819321,-0.6220275292407925,-4.430662307354988,-4.649909518729381,8.723166287071518
4.4612499,8.638587238771152,-4.4091765728818,-0.6421004795391703,-4.768748873749791,-5.018045918189854,8.761308958013775
4.4712499,8.677501432434571,-4.367995435223424,-0.6751671595844206,-5.6480071216443335,-4.817768943527032,8.972550457713192
4.481249900000001,8.71066647294088,-4.3636112943338805,-0.7551868645393763,-6.911233304340341,-4.302162641010386,9.667168992818295
4.491249900000001,8.739991015745735,-4.299437265978372,-0.8354494862409452,-8.092436262662815,-3.898133437786604,10.36949832668988
4.5012499,8.736493299646304,-4.237498889065585,-0.882417286203884,-9.582620657934106,-3.578641757258332,10.985597404690242
4.5112499,8.717989238229206,-4.298161977326338,-0.8777016256977618,-10.813377384180436,-3.2298297599122257,11.632242906354005
4.521249900000001,8.66139616739576,-4.395554209426199,-0.8481334310424514,-11.483862580251397,-3.045454419535881,12.22916629582903
4.531249900000001,8.592143132448616,-4.438282606424473,-0.8420906372040015,-11.568139101867567,-3.0772796108561082,12.743011811993494
4.5412499,8.546346858552639,-4.423921120422159,-0.8566240742930804,-11.15144178796048,-3.4666603834248972,13.15297687438695
4.5512499,8.547099677035005,-4.422236416638216,-0.811777801371159,-10.102109796884546,-4.3158685137160475,13.66134771528635
4.561249900000001,8.496290351798905,-4.43452226781461,-0.7553926509743926,-8.966371900280063,-5.488560649852553,14.84184903955042
4.571249900000001,8.346675326733553,-4.355557321331785,-0.7757675315352397,-8.528781350120891,-6.999348722883584,16.322211781853113
4.5812499,8.280126209837738,-4.235647802648156,-0.8104279370437049,-8.674115039924953,-8.98235933983197,17.86656900407717
4.5912499,8.295532054936169,-4.1348649438931595,-0.8698505462249124,-9.328051467977467,-11.192678056460501,19.55764490800324
4.601249900000001,8.215167564753182,-4.0149726618884065,-0.937623865714349,-10.850656412105039,-13.769684729066096,21.42737381545536
4.611249900000001,8.085425346194313,-3.8674023654471195,-0.9872495278284321,-13.493936666493303,-16.333209664320165,23.685459470037102
4.6212499000000005,7.966184479044663,-3.749774651385322,-1.0850408984788422,-17.009268561868073,-19.232168535964043,26.701707242333814
4.6312499,7.804134021430556,-3.7529659128511423,-1.2092364161718663,-21.029275854747958,-22.8591175004465,30.78495659403211
4.6412499,7.617848515200471,-3.8008708057142497,-1.3716591319050913,-24.871254012951727,-26.998136692988123,35.7063238665721
4.651249900000001,7.457654035659664,-3.774412817317096,-1.5598219490129586,-28.834972230616707,-31.723044316596866,41.35555250100339
4.6612499000000005,7.370275840356391,-3.6561397874556643,-1.7639195834044148,-33.63490942666419,-37.07599676206372,47.83443277452033
4.6712499,7.374226626140628,-3.5244452681698024,-1.9445886247614,-38.846044348539266,-42.69817315670688,54.33397478364528
4.6812499,7.425765154127433,-3.384510343651766,-2.040575828661298,-44.373714168755704,-48.57009334197858,60.37037146106572
4.691249900000001,7.654101862854638,-3.1805561617685143,-2.134937645121447,-50.32077022524281,-54.73300100197743,66.07827841771034
4.7012499000000005,8.12328342428406,-3.0031882481632173,-2.2303166383246014,-56.33741722529491,-61.21820296342772,71.14910014849619
4.7112499,8.571358727216358,-2.8783567587270844,-2.3016333584970874,-62.412611958561556,-67.73399151555145,75.89882223990591
4.7212499,8.957444389933586,-2.7378434644691225,-2.3779067677545185,-69.74511735769087,-75.0801731312571,81.27421472107336
4.731249900000001,9.584341971398784,-2.623981664073673,-2.5656974954508156,-77.83293635596483,-82.86211499576288,87.12402446878095
4.741249900000001,10.423402652248098,-2.5348532353916107,-2.855380977217415,-85.63479676195088,-90.15352170221261,92.84062684354551
4.7512499,11.388687998827294,-2.316522589044076,-3.0578060835656835,-93.93591351343754,-97.78352035351746,98.3088055421125
4.7612499,12.913383784100159,-1.9040697133880735,-3.117787642253138,-103.59797036379084,-105.31193969565899,102.45760461129572
4.771249900000001,15.071742251512251,-1.3566344437788793,-2.9546781773078905,-115.16249998976649,-112.85887555267222,104.49657988272546
4.781249900000001,17.329002118786757,-0.46276292327511537,-2.64753366908492,-129.5166239640578,-121.85950440120892,104.92510038487312
4.7912499,19.629994293419834,0.9943321178073027,-2.36279315336823,-147.2031736461625,-133.09849478860696,102.86719860769422
4.8012499,22.91006248189686,2.7224629901327133,-1.8610466385044195,-166.72061754738795,-144.53020227446981,98.00288460114464
4.811249900000001,27.71334085887824,4.561113927054374,-0.8138941911255969,-191.85051365131716,-154.9792298100151,92.74214152589926
4.821249900000001,33.788250655529865,5.744937966566916,0.9630328775081399,-222.4504428225825,-163.9507728781479,88.86597977934005
4.8312499,38.737697442974635,6.081308270168249,2.9138873832266725,-255.65701558269194,-170.65967177329665,88.6411821833246
4.8412499,38.16173234265249,7.012882919353493,4.027408527313864,-298.04633353884503,-179.89604562529055,96.32884908529243
4.851249900000001,32.684860401376774,8.346680346294523,3.4860181857898818,-351.8448373191912,-197.97235351212936,111.76434178499849
4.861249900000001,26.973274620968795,7.966385822118959,0.8918701335812638,-408.4806265641244,-223.738766537213,135.5926684200507
4.8712499000000005,20.78226315549497,4.761003163389174,-3.7067476024660553,-457.04143083245157,-252.3641442373671,173.47273013746727
4.8812499,11.04006663691418,-0.838668789880789,-8.485757043201977,-488.26904175702174,-290.33181665491657,220.0978418470163
4.8912499,-1.4583230334945712,-4.714400027786465,-10.763729001410976,-499.62578592310456,-338.07581974957594,265.94424016444384
4.901249900000001,-13.274790620675159,-4.102328720539176,-9.931565617622812,-499.4241206416954,-379.63611969541597,303.46245693342814
4.9112499000000005,-25.94144771507934,-2.3420692768748443,-7.266304491519663,-499.56319198018565,-400.9126291139111,325.11166649052933
4.9212499,-44.48664297588638,-3.2263904461576587,-8.806375197948725,-504.138053307632,-399.5058348242798,332.41195518409336
4.9312499,-59.784309593358564,-8.4142985053124,-18.513895983211977,-453.1686350249208,-330.82827005128365,328.39869619567634
4.941249900000001,-52.368787304845696,-10.079873387256917,-22.358321415826413,-352.761545107442,-195.81404823027285,293.47427092754367
4.9512499000000005,-26.743490100080148,-8.7621427149663,-10.724607898896311,-261.5371221554771,-57.4159292572662,217.47893244295398
4.9612499,-12.919049293753822,-12.719495099793766,1.3155495856973916,-125.14902712489422,47.04342312358407,116.66596758858195
4.9712499,-12.491914867215737,-16.759544600065116,2.819808583629337,55.93232570455864,99.75144795997996,10.147289055537508
4.981249900000001,-12.811153162818979,-16.273797008004728,-1.7986524520795817,246.7783179201351,119.15711869892534,-94.43371678846769
4.991249900000001,-16.622724545446825,-13.05928268691685,-7.024755342824087,400.1016666388522,121.0363885289602,-171.92682977168332
5.0012499,-21.813279485225294,-8.031283182140966,-9.944084262239388,475.7941668521048,116.25771781908135,-206.4410486114941
5.0112499,-23.722394860730127,-1.9395683682985765,-10.610062538654319,482.1989675077569,108.57686775585039,-216.80238503285835
5.021249900000001,-21.461506961157703,3.520970718065194,-11.244743525991492,443.0207043276564,100.25373981809857,-220.98520771147528
5.031249900000001,-16.764014063704582,6.228884532051197,-12.138640314879247,378.38772045881785,95.03556180163866,-219.74595732707513
5.0412499,-12.926922111337868,6.8944165107674396,-12.04801472774872,303.0246784839173,92.52258661408914,-212.4193945573449
5.0512499,-10.053768706063616,6.742995440558592,-10.990436639272273,229.22804012338327,92.80366576347184,-202.0977479875952
5.061249900000001,-6.628489929221661,4.936679295146503,-9.784747212233857,167.6559668757666,91.83722243488732,-188.55269527573145
5.071249900000001,-2.719073787596483,1.8293760767561182,-8.66940696131742,123.86911062727114,91.61915241772166,-171.54394927322562
5.0812499,0.04510546932259324,-0.7819864803518884,-7.98650384211085,99.17609305752534,89.34040578684514,-153.25129327665132
5.0912499,2.389493274819247,-2.8665235304971164,-7.544623082868518,91.83529343857546,83.7736377964396,-135.32737967439238
5.101249900000001,5.177465357890853,-4.858306224824728,-7.094532331826611,97.67175470986204,77.61088423456313,-115.92457461731709
5.111249900000001,7.637896930030657,-5.763428232568384,-6.928277650013961,106.12892237252203,73.9182066299662,-95.64365991512435
5.1212499000000005,9.575753139734188,-5.975035208184367,-6.982474598872919,113.24725497070862,75.25435520310121,-76.94185858660879
5.1312499,10.637936127882433,-6.200352169044984,-7.1923507004309695,119.78455810554652,81.28537543378401,-61.51855376170617
5.1412499,10.794438859613354,-6.203352819397489,-7.759537016038242,125.24836404984157,89.83836992758282,-50.13473484539681
5.151249900000001,11.27526988862207,-6.753996204198249,-8.304404130493479,133.678627262775,97.71002736805126,-43.46201976440616
5.1612499000000005,11.908497356156944,-7.535573011705719,-8.508612383351318,144.6434100895439,102.6130755321379,-40.71978236345245
5.1712499,11.921945669964,-7.67062570640148,-8.771832512858625,154.9240502359626,105.88064060226193,-40.141106989062514
5.1812499,11.546224589107446,-7.650500529240742,-8.998972935483838,165.20096374949227,109.6483676613093,-42.80172359493466
5.191249900000001,10.848745417586878,-7.753676707016921,-8.624181425321707,172.9629939945222,114.1813901134698,-48.649049334338414
5.2012499000000005,10.159954369513489,-7.610158075166092,-7.716543482367671,175.05697243244052,118.6920407975763,-55.89529907112871
5.2112499,10.192251128272614,-7.316949719789467,-6.906537568194822,171.93531205445734,124.90922029473323,-63.06134150199135
5.2212499,10.764652940164293,-7.056752211293148,-6.448907822103279,165.08359330661182,132.46223593315813,-68.18559459062165
5.231249900000001,11.323535842056655,-6.478796062616654,-6.289578686753607,156.37981325380983,139.01710491823854,-72.6674522986319
5.241249900000001,11.458916343270731,-5.968236704869781,-6.135208467759349,148.71557182876236,143.03214942789185,-77.43101810755229
5.2512499,11.090493216388323,-5.748555949362976,-5.811448534897539,141.55696037172677,144.74680749143536,-81.66871200353
5.2612499,10.382350667032048,-5.427041935239356,-5.28765619990496,132.44415928293145,144.73779928750176,-85.71289646222536
5.271249900000001,9.56567985543641,-4.950275475993963,-4.694830436775862,122.52737369800262,143.18181491425054,-91.3235026908955
5.281249900000001,8.809864223751891,-4.613873927919753,-4.1454478075840715,113.25149669485273,140.9445702821401,-98.83751161148632
5.2912499,8.041916183858511,-4.295779227052991,-3.474741666916083,102.76306340662272,138.07639814764602,-106.87458665150169
5.3012499,7.641360764592999,-4.5993987189095815,-2.8511924357383824,98.67103319011964,134.51338740683235,-113.0282617176185
5.311249900000001,7.637186668702941,-5.706061283689094,-2.4855259812358246,104.74323580991641,129.01667249154286,-115.60081429214968
5.321249900000001,7.431412343183147,-5.991938105557205,-2.1002912471449924,111.44626665001446,121.22413060119669,-115.65258571324054
5.3312499,7.157143892027986,-6.002416343279445,-1.4846754207886077,121.62355157737494,112.74646969721432,-114.19134119373153
5.3412499,7.100697584870937,-6.0388953217929195,-1.0112045034651898,134.50355823211666,103.82210572846346,-112.39811036978392
5.351249900000001,7.077135693659645,-5.61408696022357,-0.899991693941966,146.2869570010957,92.88448118259484,-108.95014165554979
5.361249900000001,7.252266813535386,-5.2451473529106885,-0.8782194686851965,153.61556162731475,82.98848384351508,-103.20461265254771
5.3712499000000005,7.478509847863067,-4.680740917122482,-0.8695724637873057,153.30690059779462,75.07144120856678,-96.65939590270385
5.3812499,7.775375852763398,-4.010212832285408,-0.9078336394516375,149.50654106649856,67.91976927217347,-89.6851677218913
5.3912499,8.129079391685748,-3.095898756945892,-0.8227033213492514,138.80958009584882,61.6693772592881,-84.74427443102732
5.401249900000001,8.106932194926951,-1.8564061714095013,-0.6228730172255634,121.28996724559295,55.85034787633863,-83.83926240808715
5.4112499000000005,8.139890523755211,-1.359855482090468,-0.5454357454916822,103.67759323835602,51.86592142144227,-84.64958319963061
5.4212499,8.188960362775575,-1.1930626869943397,-0.7524450011603177,83.7747029586374,47.44916193357913,-83.89387585475552
5.4312499,8.142284862719539,-1.208778961433971,-1.0274871959728344,63.671536612719564,42.15739913789111,-80.99750658857435
5.441249900000001,8.082328430030337,-1.4756440557538273,-1.1276385134830023,45.435926348980125,36.986566508044085,-76.4478600292781
5.4512499000000005,8.03067005101344,-1.5249353845860592,-1.112419765928328,27.700647229617374,30.946469429579377,-70.39187323846181
5.4612499,8.158048939283942,-1.4726892081891692,-0.9247723931938435,11.425455045459321,24.99075534882671,-63.48929575560603
5.4712499,8.353614091892679,-1.5578205995743946,-0.7044449681578381,-2.3320942975759715,19.78508913277274,-56.75829290716327
5.481249900000001,8.385079442117846,-1.6318363394764708,-0.7485442789148027,-13.15583379289358,14.736300076506271,-50.22564014291539
5.491249900000001,8.388950740242901,-1.857614775465403,-0.8578071993017142,-20.273144327535487,9.992172490726958,-43.32693080562978
5.5012499,8.323380218147435,-2.3287356207152876,-0.7484935067999925,-24.067705907337974,5.3701594858949635,-35.61003315085709
5.5112499,8.257104916103954,-2.8061084720012905,-0.6105385115095374,-24.739004385668206,1.2558622387400715,-27.384248355812826
5.521249900000001,8.230356585718647,-3.1015253535953318,-0.521885548269151,-22.632006894278593,-2.7963044806111146,-19.473417923791498
5.531249900000001,8.273034275568715,-3.31400235363855,-0.3547079605378703,-18.224803129585347,-6.667093471846779,-12.561060159036995
5.5412499,8.423204875408526,-3.571722167537827,-0.14954543012498184,-12.47920466837373,-9.557205808021662,-7.014211748549011
5.5512499,8.630874976088311,-3.8592201779271753,-0.01038326506144454,-5.621003633998583,-11.322291260515087,-1.9607811943317315
5.561249900000001,8.80663837604717,-3.9465988891648434,0.02446100554067752,1.3166289071096418,-12.20805331861884,3.0506909897392713
5.571249900000001,8.933124471289581,-3.761704216200108,0.03278962870080838,5.323030694315183,-12.384564629844926,6.09951688450826
5.5812499,9.057445843498115,-3.6526590351637878,0.15529907878228602,6.894568538684476,-11.908964752821557,7.4092955356974715
5.5912499,9.162400598054942,-3.5643216556825363,0.16828422746351795,6.691486783024285,-10.888656425012615,8.021093602026621
5.601249900000001,9.222400532440522,-3.354525911650596,-0.01115840873359183,4.591387201341915,-9.663134955497187,7.929220284895576
5.611249900000001,9.258701538208976,-3.2492837182482104,-0.07719136402950859,1.0520638166234,-7.92335825315684,7.09838313949881
5.6212499000000005,9.248815892202916,-3.3459710027021856,-0.08426787887094898,-3.0636230311088624,-5.906460159855743,5.997441209998526
5.6312499,9.27016212597264,-3.50119227422782,-0.17159139402270882,-6.066286945924573,-4.251574850371887,4.989204975427886
5.6412499,9.342772577357593,-3.7213465578794427,-0.12855687886322062,-7.460004327282227,-2.784074084026487,4.042796900120578
5.651249900000001,9.377806349104388,-4.031894017778808,0.005727568547207495,-7.739086539664636,-1.1132901034231126,3.6325273119053665
5.6612499000000005,9.32917251504701,-4.225998725255152,0.025867527909047,-7.1358541416481085,0.14576287350501874,3.525177371577518
5.6712499,9.233689042051054,-4.317632175906602,-0.02634652536117613,-5.559031703618944,1.0104707089156544,3.515516008214954
5.6812499,9.106168280013152,-4.380821584996744,-0.13991327478369434,-3.530133626034224,1.1116444687938167,3.9044516867035437
5.691249900000001,8.935547729863366,-4.361167504382162,-0.2050716774000826,-2.0930896946913733,0.636176345387813,4.309049356004097
5.7012499000000005,8.796634999422453,-4.309344416834255,-0.25460056834493605,-1.7504402491303024,0.17318718801316507,4.781042150338358
5.7112499,8.699646992587674,-4.229877198787939,-0.41292731341848465,-2.6269915170268803,-0.49912546991382495,5.826736030450988
5.7212499,8.627376481109094,-4.255527551386205,-0.5083940201398658,-4.009674010892178,-1.6396228085877267,6.715697497864273
5.731249900000001,8.586636536045344,-4.334659931791347,-0.5279392797615547,-5.1540209801411745,-2.956740795272118,6.711272179020563
5.741249900000001,8.615277732522243,-4.364467994841063,-0.5655946172580739,-6.265162918366757,-3.3905865980525727,6.158802197584941
5.7512499,8.651886839951505,-4.444541729354069,-0.6437110605085131,-7.222184660215028,-3.4254354112892673,5.821098533252569
5.7612499,8.673732628413893,-4.5603689527956,-0.6268381576511783,-8.407102904038489,-3.442511993270605,5.910606770117469
5.771249900000001,8.704938879592069,-4.59547118282178,-0.5743767604537449,-11.153766827384825,-2.8229800101318188,6.287734540810844
5.781249900000001,8.749498327477285,-4.582654396122077,-0.640167510095762,-13.79365743550807,-2.064900097508543,6.271562633380829
5.7912499,8.850750720941328,-4.71636865930476,-0.6494554160392542,-15.109970296259174,-1.7230905038309374,6.136090744027933
5.8012499,8.947725073566883,-4.86106650690197,-0.5691793459200246,-15.638372440178399,-1.217852787616936,6.719682479520911
5.811249900000001,8.931784177638969,-4.810210328241924,-0.5660704827345786,-15.61599029012543,-0.46732239852902513,7.277975272035797
5.821249900000001,8.924221745986305,-4.68054561163485,-0.5961780348076701,-15.33815066016183,0.13664936704732136,7.050602601564758
5.8312499,8.94274914927864,-4.575229611975919,-0.5899083589776424,-14.91308749254626,0.30778334835761006,6.238775614461483
5.8412499,8.936656985718654,-4.488475405591257,-0.5382016700029817,-14.368587357047256,0.6321294569115254,5.417317934064479
5.851249900000001,8.926515615784027,-4.408413743030554,-0.4946163205133458,-13.709776308809477,0.9389756004809363,5.013277651383119
5.861249900000001,8.946066263819747,-4.347215791645043,-0.4829660063410139,-12.858558399361119,1.0683674496538658,5.061657985074856
5.8712499000000005,8.926112931953336,-4.283565400488984,-0.44274160217387076,-11.919268687555578,0.6814864702614213,5.529841133525851
5.8812499,8.857296467537981,-4.2480323793190555,-0.40244615745463924,-10.79811469066791,0.03523827184439047,6.254357401646329
5.8912499,8.795902312949096,-4.190683538742805,-0.41801117883633065,-9.847215578039247,-0.6766638057686554,7.00623166430594
5.901249900000001,8.745806642809749,-4.169000839564663,-0.3748912906875711,-9.348490101329562,-1.540734048928007,7.732477469815605
5.9112499000000005,8.683011191916375,-4.250266577088285,-0.26722741938217526,-9.408796841435183,-2.0931743123293027,8.676697045544334
5.9212499,8.590350874724662,-4.217485670977838,-0.28404947431846406,-10.382002608287925,-2.5028862249280683,9.344089818905537
5.9312499,8.526625591659815,-4.138952025198898,-0.36849286980630036,-11.235137431083423,-3.186140919269249,9.544721963912737
5.941249900000001,8.480662136652434,-4.1773900396480785,-0.36969635243581184,-11.54934664575896,-4.164806769856254,9.765374730943472
5.9512499000000005,8.390118245939599,-4.202317275134719,-0.3839063396426578,-11.81975206311995,-5.275746332466231,10.130953647791882
5.9612499,8.320299783796946,-4.156312999709841,-0.4298432104460183,-11.856108191257775,-6.374098926628767,10.817232832966091
5.9712499,8.272179030748303,-4.06624739382749,-0.44365295595080134,-11.622837926622179,-7.574838493612474,11.96771655403412
5.981249900000001,8.19745424445636,-4.018854071999151,-0.4560655522174632,-11.232975509400026,-9.051759177624383,13.893362332837208
5.991249900000001,8.110316702355924,-4.018721403119129,-0.4908280131166944,-10.743749272173599,-10.36703104143075,16.465363332085158
6.0012499,7.980225493710096,-3.9426129947577113,-0.5613683606464086,-10.404306943107592,-11.78686179479703,19.518272228558477
6.0112499,7.863630391893633,-3.8636850248858674,-0.6203860361963776,-10.153199058596034,-13.549762036834194,22.69667521998772
6.021249900000001,7.807937243442238,-3.8380968192850924,-0.7179304616326829,-9.86949462404964,-15.606365292509839,25.631289669098678
6.031249900000001,7.702628922965451,-3.787070915155592,-0.8764086224356545,-9.580241868263874,-17.84807470414499,28.473642658364465
6.0412499,7.591698636868871,-3.7193312368434412,-1.0077044777147655,-10.125093432385457,-20.28096498692567,31.525303361017695
6.0512499,7.554102565124562,-3.68234186098429,-1.1119306128476811,-11.407608513299667,-22.704987650874614,34.88189439497451
6.061249900000001,7.5243104258611435,-3.6382302729878737,-1.1781586392063201,-13.201089625143691,-25.012289746503754,38.59796076235317
6.071249900000001,7.515105556539684,-3.601965747777766,-1.2350937143804421,-15.82233376049693,-27.109870055793973,42.734372359731246
6.0812499,7.605868832563774,-3.6153297567349205,-1.2873227751685528,-18.52455257991486,-29.112198784566544,47.094496608255675
6.0912499,7.745609886650035,-3.611554411517226,-1.368352028623823,-20.903825357787,-30.943889784388265,51.65989599847945
6.101249900000001,7.868293302218189,-3.6370316992081575,-1.4337561149516205,-22.996334748049104,-33.02092209863706,56.57662024158539
6.111249900000001,7.994932150403029,-3.716745966801883,-1.4507440700872694,-24.636786360305045,-35.32869782465733,61.25050208107836
6.1212499000000005,8.136595350680336,-3.7223556368506654,-1.4891108755692144,-25.97461686808089,-37.70847748821272,65.64352808512906
6.1312499,8.265058466796656,-3.631778690870476,-1.5800153708164375,-27.70807675147343,-40.31384601113073,70.00532326954455
6.141249900000001,8.342695713490526,-3.5722055286064904,-1.744341499339285,-29.64756319844578,-43.35209744082787,73.93804491563087
6.151249900000001,8.46344949468443,-3.5530591659031345,-1.9229948608828948,-31.763337853185728,-46.734577816404,77.36264748174011
6.1612499000000005,8.734154700839362,-3.523206912089105,-2.0619894843596285,-34.902728452528095,-50.18257899627231,80.7477722581848
6.1712499,9.147823722021823,-3.4441946640735193,-2.188379655233457,-38.95003389526028,-53.76931744860497,84.14275548964942
6.1812499,9.640486103425877,-3.24723711091556,-2.2630248864236506,-44.14659491150221,-58.466016696338684,87.09717867345627
6.191249900000001,10.184935475515053,-2.996821479514542,-2.3303600999397474,-51.00577247092325,-64.6511364201392,89.3000865324085
6.2012499000000005,10.87563829853555,-2.748985011692369,-2.573891783449564,-58.94599890618654,-71.56366561730691,90.68840853531691
6.2112499,11.921998003899485,-2.379264755967333,-2.952002230626268,-69.92452007377338,-80.00296464225363,91.74087943372271
6.2212499,13.405916968988553,-1.6259512892905243,-3.3656770769045172,-86.70497274237401,-91.22364768920151,91.39714920941391
6.231249900000001,15.47492133714276,-0.12106965394039432,-3.8392539504818863,-110.90998659713593,-105.76047838486501,87.63512647060078
6.241249900000001,18.391567542961393,2.1183465770375687,-4.268203312149061,-143.40700396936708,-121.53153744163566,80.2368835757548
6.2512499,22.239820728637078,4.445764601431028,-4.419389178069217,-184.81220542581113,-135.33141823318866,70.75893049680602
6.2612499,27.17545866692946,6.463252649902091,-3.683992829059281,-233.00689515725276,-143.54406222707533,62.00501482310101
6.271249900000001,33.46972395748365,8.1541019516569,-1.9670399809234402,-288.2438878070904,-143.08449508887114,56.37842499282171
6.281249900000001,39.247982878995565,8.802724249398448,-0.21105038791558633,-346.6866354302169,-137.29320014766378,57.468066260487205
6.2912499,40.26725987454329,8.759066464684627,1.2260381189611171,-406.3344508956391,-133.09347048942325,70.04492868970418
6.3012499,36.08851422336432,8.95051675726603,1.5741366368354037,-467.1196204585377,-136.2739336447705,89.94315082477169
6.311249900000001,30.285658640042243,8.140778859394054,0.14000287728745012,-500.0455456990458,-151.8758453559973,108.81652061472096
6.321249900000001,23.463350945499865,4.899775984521204,-2.2592209205601805,-499.80583036302687,-180.669357194498,129.71656582655112
6.3312499,13.580511198900785,-1.5348287080242806,-6.098080057474541,-500.7668661499313,-223.31800885301791,160.4390293649731
6.3412499,0.89538352670216,-8.918590138699404,-10.242319984784926,-496.5645135453052,-283.2049699916014,203.2465789636127
6.351249900000001,-10.371163679618922,-13.302059556135774,-11.4268339213184,-452.8701527760499,-345.56839098815544,254.1186164997836
6.361249900000001,-21.18331701235889,-14.832770828935795,-9.446659093701314,-386.36159978924485,-398.0604190024317,307.9136764833454
6.3712499000000005,-37.863071412523105,-12.1034790981481,-6.313962119870477,-333.3387722157751,-448.0385658759246,347.1276739120493
6.3812499,-55.117233291276115,-7.617583562616881,-9.353638581248381,-284.91689021471376,-451.88580659318086,349.8712903652654
6.391249900000001,-58.21073314734162,-6.5998559188655195,-17.452115420337766,-219.73437346235755,-345.6737024594805,318.2987312751826
6.401249900000001,-39.39738398307242,-1.3418252324846653,-16.778885799312953,-197.00385880090215,-174.35116187658923,249.9971831112414
6.4112499000000005,-17.02011149901635,4.29293300524121,-8.241713113503968,-222.45862315953877,-27.564986699813257,139.5896907416152
6.4212499,-10.523756258222264,-0.5658837405412217,-3.3285414255154078,-188.74881149798637,78.48445329064086,13.989884034504191
6.4312499,-11.874773922605895,-8.401709962671486,-3.4186993608915905,-80.31065684134819,143.6225105586227,-91.45529147273062
6.441249900000001,-14.415021731578726,-13.52900151052276,-4.605313749306486,73.03709485773655,162.89343734404773,-162.2685638679734
6.4512499000000005,-17.747676652066232,-14.792087208857026,-6.47713547533497,229.77259087953112,161.6048955327656,-193.31398559824396
6.4612499,-20.45540064279034,-10.592101714623054,-8.348225273403747,338.57964296039216,154.56730020371648,-195.03477441170102
6.4712499,-20.3783644399878,-3.928303395305409,-9.536761503163198,386.3526637032725,139.14493809425076,-187.2281164757826
6.481249900000001,-16.605398070546226,1.7249962003689694,-10.470200396052398,386.1505688803893,122.80132064484485,-181.64212274756807
6.491249900000001,-11.844317819605328,3.942900229393034,-10.514140756467212,354.8065037543627,111.9396156814864,-174.65422252532042
6.5012499,-8.898750038734025,3.8069833599569227,-9.997272846072823,306.2767217874222,102.5717697505998,-157.9756269634685
6.5112499,-6.381042603865287,4.224134955335856,-9.834164786354874,247.0526627604781,96.36262373289948,-138.07475762864473
6.521249900000001,-2.3607840453764775,4.5264510414285395,-9.59846954672821,187.20052457930066,94.74876342754646,-124.24152359620747
6.531249900000001,1.7621816866679267,3.302077435895874,-9.261351783377792,136.85015223491362,93.90718836893684,-115.13040546702555
6.5412499,4.709451624638201,0.5503786995525245,-9.269794156287928,104.72670572210268,90.51565628438888,-104.95700836437977
6.5512499,6.775524732997382,-2.3224269396007076,-9.31362434635772,89.4956474135797,85.13029172621525,-91.15704578413356
6.561249900000001,7.724313379986261,-4.197799504161965,-9.099159077453491,85.74030285581777,79.97141656582156,-78.3614901102794
6.571249900000001,8.004213389820412,-5.599714901686143,-8.60186082570155,91.57459738066669,76.15077618888212,-69.13098808042854
6.5812499,8.770981671497108,-7.069818770723853,-7.957254715726426,103.43729437702665,76.92005008748647,-59.051164500007125
6.5912499,9.18611600493668,-8.130335342264555,-7.53982355636583,118.24202654490657,81.8443697670033,-47.66186731485436
6.601249900000001,9.143217334063273,-8.272336537557862,-7.3350862647209425,135.7666079140604,87.15277225168224,-37.77128814672551
6.611249900000001,9.911206718333323,-8.321976952957543,-7.593736958662198,154.92624711886978,90.7221574885281,-33.7918210671023
6.6212499000000005,10.759863907338506,-8.522098754961021,-8.111713861274163,173.06824683715698,92.992356271822,-34.62313351380979
6.6312499,10.715577306395094,-8.081921850349756,-8.514735001426226,185.83861733627717,94.56246602893039,-36.629983798038076
6.641249900000001,10.184732767141114,-7.290956886128085,-8.854004230281998,191.63859156377902,96.97861847644273,-40.64623879939811
6.651249900000001,9.381182020244816,-6.8184522763680055,-8.719530439917621,191.47303908378973,100.34117885080563,-47.88185733146503
6.6612499000000005,8.633995089376434,-6.508377284122765,-7.993612623463593,184.7497555478587,105.10646841647389,-56.63832426972205
6.6712499,8.472770535085468,-6.160502608091566,-7.354835464803037,174.366252495161,111.43844905407326,-65.75870099947538
6.6812499,9.12333221240017,-6.029185636360489,-7.044808453028462,164.88842975808032,117.68138119868034,-74.9956596962908
6.691249900000001,10.079816162515607,-6.101345212040056,-6.8730356217885,158.05477150945595,122.40219833952656,-84.06360541875395
6.7012499000000005,10.531038797934773,-6.062203782758184,-6.659885303040147,153.0568370568909,124.23428638332011,-92.28335542141724
6.7112499,10.504511211655979,-5.827163465768897,-6.2693134711021585,148.96860608155703,123.70513211188694,-99.02077412763741
6.7212499,10.109675152055193,-5.6151379909918315,-5.818418493892783,145.7839749512005,121.40095837051106,-104.43855488314571
6.731249900000001,9.347267431716881,-5.356985110408564,-5.402704027208856,141.97129169890093,117.92194942651876,-109.63340046964842
6.741249900000001,8.480039537396063,-4.65348447842776,-4.950675445403143,135.61079768528657,113.94812089902082,-115.88156498824392
6.7512499,7.882415305468625,-3.475820881473995,-4.55731697652567,126.00201895615562,109.44680242220645,-123.84776507999145
6.7612499,7.817801182692335,-2.921326456670564,-4.03555570838872,117.4031786040956,104.59621050586696,-131.698806234326
6.771249900000001,7.992041601163763,-3.9968627793956117,-3.4195640084253087,117.09217655048141,98.84434817436644,-134.60963470955534
6.781249900000001,7.925858582692462,-4.931100035506821,-3.110035631015383,117.51129776629367,91.97450441451988,-131.33825425865274
6.7912499,7.731679855857396,-4.844262719685212,-2.9602400835621236,115.66169286034146,85.1970836994747,-123.72031133077243
6.8012499,7.53581953516989,-4.595455403196361,-2.7736171470114317,114.37095475070379,78.47275685273742,-114.48361115706227
6.811249900000001,7.251807467971833,-3.616052349295613,-2.5673140331716273,109.70518514675481,70.57084529456115,-106.978774498301
6.821249900000001,7.066927688758137,-2.582298002630195,-2.315662360330843,103.57234712329762,63.805804919559506,-103.50714556645242
6.8312499,6.901056037746668,-2.173200213413965,-2.143350721896007,97.65629398593754,58.443517859561595,-102.83276586866579
6.8412499,6.988277028023872,-2.125558564926648,-2.1332473874673927,91.77274121660159,53.80629790656099,-101.40405651597473
6.851249900000001,7.443892190023466,-2.1379163220871598,-2.0525287096551663,86.57883138751536,49.83798601512248,-97.8250462315872
6.861249900000001,7.585369902861456,-2.287636626319338,-1.7072802677112011,83.30280823838413,44.39371187136214,-92.26103038839511
6.8712499000000005,7.8691208221302285,-2.4639736607712353,-1.3680900664094298,80.35484030799147,40.570640472662895,-85.80712654067342
6.8812499,8.03365250412057,-1.8590736955804719,-1.1668158844800403,72.50798483690068,36.808948391347435,-80.54312548840403
6.891249900000001,8.11322040180555,-1.411985861113493,-0.9235204959744194,65.37945982062897,32.896941814674065,-76.72056893483004
6.901249900000001,8.349082144908868,-1.4744144660928917,-0.8557805577217819,59.31623842963487,28.975963643272983,-73.2818752578567
6.9112499000000005,8.275777884965729,-1.4395836163901998,-0.981993899986303,51.34828970658395,23.88020772108532,-68.66396135679436
6.9212499,8.289991433962944,-1.4669057508320544,-1.043719681902167,43.233746555789615,19.086870745490884,-62.865872814838994
6.9312499,8.430865223078513,-1.4482547638843037,-0.9383388686850913,34.787470644186904,14.044014200904478,-56.798058270193
6.941249900000001,8.538860896378916,-1.4433671909207433,-0.7169200439249848,25.57367375669264,9.318725617915254,-50.68058253033682
6.9512499000000005,8.829057682263903,-1.6777678300741188,-0.4976313234203528,17.81970154696822,6.4821430792276535,-44.128910299149474
6.9612499,9.004832757132645,-1.8331121303767663,-0.3704452183824438,9.697077418426435,4.074185778996214,-37.0975677189076
6.9712499,8.974531072674125,-1.9787916499889862,-0.3447036651565351,1.744914060886832,1.7625241311290376,-29.514930032860914
6.981249900000001,8.895692375392546,-2.250456925673712,-0.33434811146982774,-4.092995905526135,0.1873271596692898,-22.50806628118287
6.991249900000001,8.780193423541274,-2.4568353014663926,-0.28879061585899146,-8.780653391873146,-0.8142788885956664,-16.549227459222625
7.0012499,8.679375994781465,-2.7465653449940692,-0.23539985903202887,-11.255370150007035,-1.3003802172407875,-11.433517404903402
7.0112499,8.622335807817144,-3.2117882075319324,-0.12920460284582302,-11.006525833228261,-1.7912509077420087,-6.663151247827478
7.021249900000001,8.761965465673546,-3.623699324514654,-0.03141508923268921,-8.175422518859735,-2.352221608734192,-2.020379359738233
7.031249900000001,8.996152473307205,-3.771370052817379,0.025047758246648132,-3.8835300484854196,-2.5111329458483467,0.6162913699663399
7.0412499,9.142294431690411,-3.8349945984723584,0.06817209428955667,0.05118529258308059,-2.1195002293049185,2.267014757309688
7.0512499,9.186076193606429,-3.836924248332726,0.04312522097684938,1.6045343125537859,-0.8097504641042802,4.183252761118374
7.061249900000001,9.138084995307134,-3.6640933664676996,-0.0048097250743228065,0.32949880410945087,0.8228365634906482,5.4746116360614545
7.071249900000001,9.118572486330235,-3.4561696627430947,-0.011123824571870042,-2.5853480330786502,2.4176075619239543,5.590339225734501
7.0812499,9.169928336105281,-3.3500135007536556,-0.06532344863681833,-6.106237883119183,4.138143315769629,5.023267082656953
7.0912499,9.212807790212171,-3.3993660077614125,-0.12730602139465486,-9.883242594949795,5.708856929201582,4.809955144077498
7.101249900000001,9.203209960782969,-3.498924890933157,-0.16316926394689654,-14.297098156253023,6.952054620123863,5.5050078854697375
7.111249900000001,9.22134809030873,-3.5216446354814988,-0.22307170210031585,-19.061429195444873,8.332515150984872,6.523867956963721
7.1212499000000005,9.32350902504045,-3.612610798685324,-0.29072963457031564,-21.927609924973854,9.412639558620938,7.495347337762027
7.1312499,9.378175719894351,-3.886329800108774,-0.2767158876795833,-22.462631128877355,9.696256128662508,8.84056713457181
7.141249900000001,9.303609201273476,-4.126254600387569,-0.23494556010254047,-21.597867334715723,9.966205249574553,10.598760080792049
7.151249900000001,9.261595674377118,-4.198700492835949,-0.34468774990613377,-19.703044876112724,10.149160788454882,12.002615385231003
7.1612499000000005,9.309192634988447,-4.0856399066992966,-0.5658533753493754,-17.466009441509645,9.40446495778791,12.560613911861676
7.1712499,9.32631127042605,-3.8486496332936047,-0.7974950236065049,-15.728054624509973,7.862325696542764,12.427018990297006
7.1812499,9.315264152587446,-3.625327261389229,-0.9481438957979438,-15.402451219244497,5.766494950883094,12.309184870066762
7.191249900000001,9.285865438359577,-3.4549314955050856,-1.0387601151258807,-18.083672822716803,3.4576030921244865,12.686123153902482
7.2012499000000005,9.176390237937657,-3.2404004365056926,-1.2286061025827846,-24.091496776758017,1.1742149741709382,13.35386385402185
7.2112499,9.070239345044625,-2.9302225346210493,-1.5239722960067905,-33.01950999338333,-1.4063668107726326,13.805306620473516
7.2212499,9.05855499155233,-2.8582311726704153,-1.743922493490394,-44.764769608716385,-4.446666928123975,13.158786776461286
7.231249900000001,9.118935164315717,-3.246003719584932,-1.712937309273156,-55.145764599899806,-7.333818798020238,12.083997712874964
7.241249900000001,9.15415604753021,-3.719014148064189,-1.4575579570150594,-60.042001146139725,-9.284696137207778,11.718275266288458
7.2512499,9.129155368109126,-4.113041649515725,-1.2317895322624721,-60.90263156047154,-10.32851920103914,12.004464162360176
7.2612499,9.046343924329097,-4.400992134128608,-1.2059477018731282,-58.2516904849893,-10.806589155254816,12.428544192025988
7.271249900000001,8.92651943883912,-4.578153589502786,-1.2853572501152144,-52.77737017364251,-11.037071046537962,12.778758012958692
7.281249900000001,8.858801912487072,-4.6940815175741815,-1.3351549399228302,-45.37717644276259,-10.74599874470844,13.203557915758724
7.2912499,8.812809509267653,-4.7352876209560035,-1.3259885659743653,-37.14961386372521,-9.833642697417696,13.230692374324288
7.3012499,8.707285057274326,-4.688382073790216,-1.2929532193224227,-28.98211635977739,-8.731243726244777,12.81381567885657
7.311249900000001,8.602043359702757,-4.594191141143635,-1.2425118201141645,-21.349692244566505,-7.368700109003292,12.670830113479159
7.321249900000001,8.517075821774124,-4.443817522062456,-1.2417136278014773,-14.957683858561154,-5.923995556718522,12.882083322922133
7.3312499,8.469587460448494,-4.156973386249673,-1.303101342535136,-10.275089316903923,-4.614659629105824,13.159103411881501
7.3412499,8.434203460276931,-3.7941935365912163,-1.355836855139869,-7.857971053156517,-3.8253343995101927,13.749495479049228
7.351249900000001,8.364627303931053,-3.494092233107408,-1.395383033890953,-7.44155803194617,-3.351327484453018,14.424397491751337
7.361249900000001,8.341170168157717,-3.2803184439316833,-1.432038841229255,-8.300019349615502,-2.9263069946899436,15.300089203748731
7.3712499,8.364764786962997,-3.1278627959997207,-1.5009729842002284,-10.476967154023834,-2.839554731763962,16.855114923719878
7.3812499,8.404110104029629,-3.0810790661919754,-1.5530577570443616,-13.420425833033176,-3.0151439216780163,19.02625208746544
7.391249900000001,8.440776918658154,-3.046756120538194,-1.5393169213699522,-16.301961424622103,-3.341077494964631,21.419404687426486
7.401249900000001,8.451592509756965,-3.0147041176159237,-1.5109685892727294,-18.898260896288356,-4.1426988463076455,23.76304844643262
7.4112499,8.433454795695093,-3.1123860113949284,-1.542220733849081,-20.69621663972713,-5.673993674575608,26.56725343046298
7.4212499,8.3887607710159,-3.2281419441709156,-1.6599300623432631,-20.993283758111883,-7.767205965276055,30.017657458952645
7.4312499,8.278031463939072,-3.1941021626953696,-1.7974059441010357,-20.65893375952107,-10.809214885675619,34.25747138882383
7.441249900000001,8.1190179541519,-3.0184429885000843,-1.9367073836465305,-20.496235625084175,-14.356258041237037,38.662884185944186
7.4512499,7.981755652038095,-2.749184347681544,-2.0820474748456097,-21.368881945455815,-17.151417169464505,41.975772126470574
7.4612499,7.899047886921432,-2.5227311517694857,-2.1810543229874413,-23.30232046069128,-19.258653438497998,44.99886544000204
7.4712499,7.845450901819822,-2.358923181141488,-2.2489299320969782,-26.280249567580846,-20.976995616456296,48.17664576424749
7.481249900000001,7.916557853856504,-2.197922679779538,-2.295101185388943,-30.181675716845227,-22.701228832311152,51.89752146941893
7.491249900000001,8.117110330953258,-2.0643248885187844,-2.277615064627815,-34.479121124380256,-24.993526206779375,56.47083684046097
7.5012499,8.277769978176376,-1.9585444465222073,-2.2342809385559197,-39.092769682862645,-28.214863225244017,61.47487396096969
7.5112499,8.419435006054476,-1.8489354425077615,-2.213152010175356,-43.62286558747626,-32.84399623566424,66.24607370534052
7.521249900000001,8.70812566726771,-1.7933631123913059,-2.1825761897805154,-47.01692686917417,-39.537170625062245,70.5674401108143
7.531249900000001,9.067881846820757,-1.8390484791062183,-2.150576075633045,-48.45393191926901,-48.23589720073506,74.67743683925204
7.5412499,9.529306307065431,-1.9757721211297916,-2.143769599200604,-48.478173962094395,-58.437271207882205,79.39964992745723
7.5512499,10.347686473371425,-2.0001408320410072,-2.21562611712069,-48.64614415571098,-69.86626432574226,84.69007753545631
7.561249900000001,11.6477584162915,-1.7767911505360823,-2.383783855059765,-50.44374955229288,-82.80062045644631,89.32630465432447
7.571249900000001,13.446628041029978,-1.284231257990137,-2.548370643301599,-54.776449743856624,-96.8164218897659,92.43336704118006
7.5812499,15.630375542960982,-0.34308672662282524,-2.7582925548979906,-63.156384561342776,-111.89429644981985,93.62029476431174
7.5912499,18.232273262023533,0.9488195117502207,-2.913890584742567,-75.57806746514602,-128.88688392878296,92.60073786410554
7.601249900000001,21.438290914241094,2.473973222026672,-2.7632605808066066,-91.28361904964498,-146.50059100259912,90.05429778399973
7.611249900000001,25.029341978474644,4.066061279608107,-2.2376449933666978,-110.5176356191772,-162.65357848486042,87.91270186608766
7.6212499,29.015177782876048,5.008907540227648,-1.3378993862259017,-132.0355312486795,-176.86603630696507,89.9895427243706
7.6312499,32.84560168319509,5.128540837069873,-0.37996992764242155,-154.3716290674271,-190.02422036552545,98.04003600585494
7.641249900000001,34.51450012828041,5.249578236684063,0.515980020119669,-178.62619175855468,-202.82014567724067,112.51581586812834
7.651249900000001,33.01150819578614,5.8685090880372535,0.9046292011843965,-208.04571399600394,-212.60383010691848,133.62170251692086
7.6612499,29.7671199143932,6.370083611124985,0.7284633284296482,-246.09424679552694,-221.23854076460424,163.70568114549738
7.6712499,25.13083222839361,6.11435801017542,-0.20204516922007595,-292.30642718589166,-229.7799272004669,201.65530565620762
7.6812499,17.160574546356905,4.979172347680252,-2.3457194919471247,-345.18477519546786,-241.47462746182416,242.08597410877917
7.691249900000001,5.551241229950404,3.6257824154688683,-5.511502716749125,-414.39243407140424,-263.39723433183013,283.4459547021199
7.7012499,-6.867147369807224,0.9524289147327264,-9.238063948705543,-483.20764237358503,-291.7533145707428,326.1168116512632
7.7112499,-18.843898952889596,-3.917156627095698,-11.2543070936636,-502.97101115516307,-323.2995599371916,363.7779643069952
7.7212499,-32.87423476811227,-5.472931051732641,-9.66558201121803,-499.27452414056893,-357.9868159530403,384.42877651783726
7.731249900000001,-47.84998845031314,-3.8366674563231227,-10.447587419864636,-499.81537638466443,-368.2212777695953,373.9728369321549
7.741249900000001,-57.069985462514026,-6.079008737386702,-16.914010869455005,-499.89880512085546,-319.23291096599377,333.4173520667549
7.7512499,-51.33953994857114,-9.988691058380715,-19.286556781148192,-501.44995024455665,-220.13577242487293,271.3966796472258
7.7612499,-29.44381406804435,-10.614872682651548,-13.1532910526035,-472.00639616356875,-92.22406506986074,179.7151752265329
7.771249900000001,-12.998618964555853,-11.171575438792956,-4.841858482929043,-379.61927243119044,26.232546891098405,65.2870904129773
7.781249900000001,-9.72743800707792,-13.687274613805098,-0.024319859609343082,-235.51054808518532,109.65464853234587,-42.29613441081536
7.7912499,-10.999583932708285,-15.709639397091019,-0.32785553017536934,-52.83734550604319,162.6461537391022,-128.10719996265368
7.8012499,-15.749367843327832,-17.24295259513817,-3.4893592017630763,145.14074281944738,180.88446723633476,-182.8541151670221
7.811249900000001,-20.409879980535674,-15.65592551509067,-6.360407035591245,311.18250429157195,179.197817289586,-202.00846734264542
7.821249900000001,-22.046819728568092,-9.400374389464885,-8.424476854080508,411.26819986382856,172.1448040858737,-201.76435601318204
7.8312499,-20.93084277829439,-1.9408578442039826,-10.212450384991522,445.60040863218643,159.5642398628168,-198.79970801037607
7.8412499,-17.14350937148026,3.907796141818937,-11.547435945623132,425.53303997584237,147.98611798162892,-198.59933978509432
7.851249900000001,-12.61974421819653,6.240570107613989,-11.761260195160203,365.991805562527,139.20908472934667,-194.30183251894303
7.861249900000001,-9.215085679307737,5.82421984961535,-11.319930459530337,298.8694872141132,133.50037744309628,-181.77219567009175
7.8712499,-5.8546661068142365,5.4741224178341,-11.178588592803107,234.76298882700732,130.25420486518908,-166.2017673265029
7.8812499,-2.63078823133002,4.760228447439075,-11.318142259887013,177.4487030173572,123.15107380501364,-150.33081612256433
7.891249900000001,0.22973187845623216,3.0534755433296175,-11.092253872312556,135.24921156139436,116.37602462504475,-135.58900081799442
7.901249900000001,2.5567543929835277,1.5390302351317717,-10.410703256612909,104.73423286186915,110.22318293536564,-121.3542774049858
7.9112499,4.160616516582946,0.5263998831698543,-9.819524906384643,81.70547912525072,103.14985767501648,-107.28772236004488
7.9212499,6.150714243055202,-0.6584073418222002,-9.433648828956725,68.76463312620491,99.76936621343043,-94.65509049201145
7.931249900000001,8.755456738773045,-2.526346727814035,-8.80426217470947,66.25622643154033,104.69864087273636,-80.07781124262453
7.941249900000001,10.719066973463535,-4.119095806770203,-7.784502028281494,68.9276495044735,113.65712380047118,-60.65056559983683
7.9512499,12.112199300866628,-4.77835076993071,-7.067547943406607,74.6272373154762,120.57181180063313,-42.19940330992807
7.9612499,13.269137763297437,-5.5382400562023095,-7.054648309663788,88.3079590870516,124.97759043105673,-27.247420982333132
7.9712499,13.518102424099654,-6.387334813057026,-7.411432341431178,108.9047996988965,127.39560134226477,-15.661125607478269
7.981249900000001,12.803923054283194,-6.509425079111045,-7.814612000595083,130.6148783262541,128.24087806744743,-9.31546967671676
7.991249900000001,11.656644654515413,-6.154718972515177,-8.13238462713652,149.6746926607321,128.9003507644527,-8.019303805079295
8.0012499,10.68234101686781,-5.866056050830566,-8.288372788790932,164.48754753876796,130.74483821002096,-10.393151850609586
8.0112499,10.192498338905306,-5.739746863378357,-8.278954190757473,176.1228131805902,133.57057179264322,-15.573575078190029
8.021249899999999,10.271021492153407,-5.647196839354725,-8.010540699029475,184.88647035733842,136.36690542576991,-22.821285052087976
8.031249899999999,10.729240253819112,-5.533905570761029,-7.460616256717219,190.3274047614969,137.69807473559285,-31.717804896409117
8.0412499,11.275526229052067,-5.193492870394952,-6.854390292203991,192.75348344770296,137.49809509218102,-42.06300730703312
8.0512499,11.825573407053222,-4.576220617712704,-6.313106243755491,189.46229174300302,136.9144414578496,-54.48231489932463
8.0612499,12.004429651577446,-4.220766667810324,-5.966292247739118,180.30553702180254,137.03395802427812,-66.90067579240416
8.0712499,11.472289402745316,-4.042886712717232,-5.7842017137289385,167.0707008646227,138.05636327275909,-74.973726084884
8.0812499,10.536858448779736,-3.650492040398895,-5.529463581394238,149.53917925220867,139.96834316262982,-78.91009897010099
8.0912499,9.624009493370213,-3.2992359874533914,-5.324790749915998,129.51667220276565,142.988531972265,-80.29412618137805
8.1012499,8.93237282641904,-3.010882472475709,-5.135013656791419,108.62052155203716,146.0874811726204,-80.92027725406827
8.111249899999999,8.555607805866101,-2.6278026226260955,-4.740511339167634,89.19900435872907,148.26507875280876,-81.27712071991395
8.1212499,8.641043792819147,-2.8040701814611895,-4.194014929671781,76.91225763143498,148.97939225156313,-80.55241158104059
8.1312499,8.71133419819634,-3.5081234178609266,-3.7106423091577923,71.4921868417756,146.25142125262064,-77.57292429824685
8.1412499,8.339883741925485,-3.955317302947405,-3.2414366746867094,69.388563764331,139.69491786000486,-72.34280641967968
8.1512499,7.9418881257785685,-4.253329472077342,-2.8170798722300865,72.62123622766075,130.94114446503846,-66.8967055948062
8.1612499,7.609221925869081,-4.317921578630722,-2.5903819908748744,79.23622518761759,120.59313978322892,-63.161688818429
8.1712499,7.308451870968459,-4.129903034432721,-2.438544304874621,86.47932720304786,109.37142926322889,-61.37737286069726
8.1812499,7.091871241021384,-3.9885099490309237,-2.197002219631504,93.92596476042588,97.93449093488128,-61.02350644860555
8.191249899999999,7.135374431012159,-3.8968774083466164,-2.0333616402066967,99.77320601953376,87.43141233374642,-60.439747438774994
8.201249899999999,7.391358371957252,-3.8198789629760808,-1.971557407282791,103.00622753834638,77.26348077733236,-57.8711192393293
8.2112499,7.498161605941675,-3.8820045157211562,-1.7399883667093807,104.30222561732423,66.53732716880029,-53.14885366149068
8.2212499,8.041036332317294,-3.7774118029269297,-1.5236448033102987,100.97435455887549,58.92434815842589,-47.43828003162097
8.2312499,8.212296701706647,-3.3195392948722997,-1.2587933172416896,92.303602745379,51.128086460297524,-42.835755335494646
8.2412499,8.066892378616517,-3.0567586849920403,-1.0056460824058284,81.5305610637592,43.8699176328889,-38.736846772694
8.2512499,8.152169465664484,-2.6781761695587285,-1.0418162606726316,67.31904065805568,38.534789324664715,-35.5166560379654
8.2612499,8.093214929390776,-2.062378755720437,-1.2755460210467051,48.3344753705045,32.018750055070555,-34.51479856791089
8.271249899999999,8.22830533574604,-1.8520631954163889,-1.428573355042262,30.206383725308214,26.141370829617035,-34.59307389598257
8.281249899999999,8.388025319867857,-1.9271579175590414,-1.3287357742972965,16.015655976989876,21.479943634912107,-33.82558785031462
8.2912499,8.4836755126856,-2.020072163452726,-0.998784516942252,3.3853168204077813,17.161678420781985,-32.07957296639414
8.3012499,8.653461904959634,-2.1947251041485134,-0.651535642606028,-6.640021185056922,13.944537638856238,-30.364268639532597
8.3112499,8.788998526111364,-2.5378252999566246,-0.4591424338380049,-13.50778757218563,11.303919101769731,-28.238885935969304
8.3212499,8.885339769708965,-2.9378140358999705,-0.40220724839242106,-17.203856712913698,8.471508225832109,-25.261917066349366
8.3312499,8.983813419449119,-3.303958318908441,-0.4426733223117812,-18.113705256509455,5.903075372759303,-21.39877772056696
8.3412499,9.036410286308234,-3.6051289836516536,-0.5099750505121331,-17.03497794491131,3.8020779061878227,-17.11316072169399
8.3512499,8.937058962342618,-3.697273068735238,-0.4803870534358102,-14.632802155182624,1.8841199984583445,-13.705428211759086
8.361249899999999,8.83626759175161,-3.7918423035601414,-0.4376733017622985,-10.365289700845105,0.2758306093986485,-11.743526351807024
8.3712499,8.797028214841983,-4.008244818345572,-0.5260477942259884,-4.91997696260077,-1.0736604167691441,-9.967412255733736
8.3812499,8.744360587547725,-4.042099753275452,-0.6515344385383416,-0.014084643845191706,-2.0540182105732874,-8.010873593851324
8.3912499,8.724971052263063,-3.9068072588462837,-0.6875777723724207,3.857174785469381,-2.6629179529673586,-6.480517873884101
8.4012499,8.743410448008927,-3.857992603604828,-0.6654107514486606,6.420654618063602,-2.7818898131835135,-5.2928276675216095
8.4112499,8.721259494937748,-3.904142103461007,-0.6934307732088664,7.728793837519377,-2.515457743694498,-3.982998342230534
8.4212499,8.681077896615646,-3.915745540815008,-0.84544662091849,7.81502203202863,-2.1248475409033647,-2.4243613222096867
8.4312499,8.614070557787056,-3.833824842003847,-0.9811037911546573,6.762200710493863,-1.842271488637203,-0.9029004792971851
8.441249899999999,8.563413293700595,-3.662335944354006,-0.9506839972506138,4.588319879743533,-1.7922608233422492,0.1911402746683076
8.451249899999999,8.58855431871398,-3.549182294916106,-0.8682121266197128,2.3614755892527888,-1.6652015767409125,1.1078346846567644
8.4612499,8.578203667918364,-3.6446462361237746,-0.9052311585643121,0.21171671364683275,-1.3983082092158188,2.460571195403176
8.4712499,8.56682838526947,-3.768892903089426,-1.0690981808509092,-2.1471592010412346,-1.3096300021864955,4.557358825288935
8.4812499,8.647677744372565,-3.781847017770712,-1.100176535339009,-4.1171914635471705,-1.5154366350959894,6.305099518397902
8.4912499,8.802157557346476,-3.9326907202745582,-0.9655064753625605,-4.916535272672957,-0.928539596504228,7.077905463433061
8.5012499,8.884604290214542,-4.190688692895795,-0.8766182778377113,-4.535905916042883,-0.13738427070203862,7.914246348478579
8.5112499,8.905756334204725,-4.2821472390483,-0.8737178513651658,-3.5097792770032195,0.03930698597492457,8.931997997648676
8.521249899999999,8.88675558898293,-4.2766677815373395,-0.9207753638955387,-2.022909095902203,-0.06727159761013835,9.713897079100615
8.531249899999999,8.803000620180367,-4.275860428599404,-0.9658676024173625,-0.5531621801757521,-0.32416718501802483,10.30663107137779
8.5412499,8.707114184204215,-4.3725105873425605,-0.9982123831819897,0.424020290974954,-0.8961544431799934,11.318110235984253
8.5512499,8.570915131102776,-4.3860906839851195,-1.1234290540874654,-0.21447819960259706,-1.9337758608539442,12.28852422729866
8.5612499,8.543370191998218,-4.3017972985385295,-1.3078720782408624,-1.868062293862998,-2.8948438701201678,12.578927841214314
8.5712499,8.659387015114369,-4.2488506575608005,-1.2832093192435097,-3.4754174817424746,-3.7151046262845364,12.270744987481242
8.5812499,8.798016968614228,-4.195940554952664,-1.0572577508963705,-4.8706875687363445,-4.318777125664873,11.46978428811351
8.5912499,8.911083051555387,-4.170511631111078,-0.9952836604224193,-5.458579352600509,-4.544769241066953,10.794275515304149
8.6012499,8.907761337143928,-4.192084954288152,-1.0920695631838375,-5.50996446605123,-5.1329395961745545,10.725168952598187
8.611249899999999,8.818211792130056,-4.185601401845754,-1.1757896666688723,-5.282354427035446,-5.95161420034227,10.953137016082772
8.6212499,8.776875523831446,-4.046004651425838,-1.2456261672768203,-4.816339904425788,-6.976202134676513,11.094304979652444
8.6312499,8.83457698855121,-3.9047375448704806,-1.2169656894498098,-4.147192618527339,-7.710764562430789,11.372276748370941
8.6412499,8.864337407837223,-3.8029035879084505,-1.14116646102514,-3.5214194273187274,-8.246353576693407,11.6681311681718
8.6512499,8.822930372806805,-3.672160980734356,-1.1342021138169365,-3.2794091400572216,-9.020243599789785,12.069659307333135
8.6612499,8.818171115493163,-3.631285274852127,-1.0746508952017435,-2.427234170848857,-9.690406168302715,12.99711639183875
8.6712499,8.810135931476205,-3.6607413920996383,-0.9324266782729155,-0.781884721090855,-10.19361774261452,14.401799830341155
8.6812499,8.760733642456435,-3.6069544206082904,-0.8827308915318463,0.24884253250323238,-10.590373090461638,15.753939244727064
8.691249899999999,8.735566148134971,-3.5160501204647794,-0.9217617938826183,0.07287157371284776,-10.55241735281555,16.69268187772378
8.7012499,8.68421050878161,-3.4265170553528606,-0.8819324390689633,-1.1007950495013736,-10.45838931969802,17.50764736845727
8.7112499,8.648016784534732,-3.386671817277652,-0.776896097101971,-2.523208966195285,-10.501464716460083,18.338268953274515
8.7212499,8.608380761173274,-3.426733337701088,-0.7447780288113688,-3.518716305117705,-10.720970144816752,19.164978841567134
8.7312499,8.47562313097213,-3.5438792764429174,-0.7592726314258701,-3.860293370209503,-11.46741448517356,20.23927470592789
8.7412499,8.351568811121,-3.671806012737641,-0.767307851051079,-3.0892022889916606,-12.768196917696217,21.92876859020584
8.7512499,8.301829290786385,-3.762104343082759,-0.8049262520636228,-1.3438041194381136,-14.55661286540547,23.85657678802402
8.7612499,8.256368531453424,-3.8406043860126555,-0.8657768803824822,0.8700167937096721,-16.675270560818706,25.974180839954133
8.771249899999999,8.204573183399017,-3.8555133373691075,-0.9141789878382712,2.870663316307124,-18.98179678006557,28.09626867067612
8.781249899999999,8.173745192536261,-3.8188683777442476,-1.0029629579646393,4.627702970033723,-21.36203577225801,29.874752844944656
8.7912499,8.10834500624072,-3.767929929583313,-1.1975795036748138,5.7861666415547015,-23.974333604186906,31.786714480508593
8.8012499,7.925252230283044,-3.6874337268187403,-1.4193949801447998,5.887645368931521,-27.16195926484723,34.11828845571463
8.8112499,7.718397973341291,-3.5659262909928646,-1.6904015091254265,4.958953865509264,-31.146013147147972,36.68214747918538
8.8212499,7.642996816893585,-3.3678250477326497,-2.037348061179109,2.9032391990742394,-35.84140203271833,39.64206814156253
8.8312499,7.846682907389812,-3.133148220185535,-2.3081384174872386,-0.4384648079519161,-40.95152800584412,43.72601875268442
8.8412499,8.282310738543234,-2.8408263768698947,-2.5010198316958103,-5.632948317998376,-46.026430428789396,48.58641946860362
8.8512499,8.682486713446798,-2.447355872995412,-2.6525366010503495,-12.876920921613541,-51.07912135427217,53.50721198433049
8.861249899999999,9.08439124073632,-2.0489069301647236,-2.715961952832104,-22.29580131329465,-55.945850842721654,58.549890499371884
8.8712499,9.707432916557382,-1.7414363006195042,-2.745797312605378,-33.4961421707736,-60.92957368122995,63.574205165219496
8.8812499,10.550320915815563,-1.1190786044157397,-2.8455973893020254,-50.94402964047429,-67.75921473641863,69.35988747246064
8.8912499,11.709893408700463,0.10754699297143945,-3.043891006786688,-76.80733744640733,-75.70485979075265,74.25266422626348
8.9012499,13.399529400413916,1.6405475385785744,-3.2243645833200336,-106.30418175962978,-83.64171801959407,74.84176491824856
8.9112499,15.678492337409434,3.48635487563371,-3.317006803166806,-141.7445480506345,-93.76249312965584,72.14731698840636
8.9212499,18.930552434608263,5.361816328120801,-2.9735110803692906,-180.47595105750446,-105.93621478277116,66.06080042201266
8.9312499,23.813034161485998,7.236498588820447,-2.129053792329566,-220.33835465746296,-119.6129331060672,56.380900566399355
8.941249899999999,29.968801384454387,8.397675945967068,-0.8943887840912184,-263.591738100929,-135.48443149879392,48.022100407725205
8.9512499,35.915047393553465,7.929976564235843,0.5764232741498938,-304.62009255074133,-150.39129399067545,45.513636885734066
8.9612499,38.105733187316076,6.82248053554225,1.0979748557120668,-341.70030698915747,-162.80163672518742,49.34258717298844
8.9712499,34.929811401279615,6.020434104188105,0.9496068375282137,-377.5842117260917,-179.2012239524543,58.64556931369294
8.9812499,30.891475649586432,5.60677841329928,0.7304382127304522,-415.82678985341636,-199.15645822009594,75.27198392416415
8.9912499,27.63396330178227,4.760844962561771,-0.2995098882481606,-455.4801196304582,-219.02336908525504,99.49142000833987
9.0012499,21.764912086627902,1.9768989020567778,-2.3689494823001183,-483.1807058860076,-242.58801669029745,127.39705409588746
9.0112499,13.06836032028616,-2.3940363123682586,-4.742832146335502,-488.65850450296256,-276.90158395085643,156.57688723310451
9.0212499,3.446545376732743,-6.346522890369962,-6.566679167763384,-477.8137395887842,-320.7961884465423,188.51104414642333
9.0312499,-6.5177178569621885,-9.496852547167084,-7.883991705475802,-451.7982782176088,-363.8081124080016,221.984596450775
9.0412499,-18.59579849027587,-11.037786435916498,-7.745802272700277,-407.6435863318589,-407.6407451024419,253.54576216170477
9.0512499,-35.59557971339438,-9.071246661028196,-6.262425410347248,-358.1990228640217,-456.9222988536274,273.25895009273665
9.0612499,-51.4690847271604,-8.491673901779485,-9.307509294980356,-293.8262281971521,-466.0305613799089,278.2276831537745
9.0712499,-58.30072802729319,-11.0191619356947,-16.523806604425396,-205.47989631139853,-408.24776706058094,280.9710442350867
9.0812499,-47.83163629500371,-6.808673940619351,-18.43637943184323,-146.09694052546743,-299.3394693946474,262.48969343669506
9.0912499,-21.657034388099653,2.568135617047952,-11.500926929378839,-149.7873073160836,-134.71467872916466,175.46671180395285
9.1012499,-8.410488211008559,4.673030868061342,-3.9587704135900355,-160.62307509870064,5.552593335009694,48.04721545209364
9.1112499,-9.656751346150008,0.4955829203508627,-1.6112968923087863,-128.6887692583368,90.6347052945111,-62.0195058748202
9.1212499,-12.75352881296155,-5.087614835859461,-3.6682798988907956,-44.11915811712805,149.74424888704505,-140.21423866348925
9.1312499,-17.07429531638469,-10.09139143202717,-6.6150957958701895,74.8833577471817,170.75782122897948,-177.3084739771223
9.1412499,-19.235664274330933,-11.827391805423453,-7.629025933441128,195.38964726311653,172.41317700834742,-180.62983734158902
9.1512499,-20.11804215557797,-8.907781346601858,-7.903733280794295,283.7027498026669,166.22038880594076,-171.6461698662788
9.1612499,-19.55111409407006,-4.000531871835378,-8.8422610701308,327.3818823045304,153.858365017738,-163.587865864571
9.1712499,-16.278663275971,-0.2916144501145305,-10.002798997714102,333.64697110278166,143.67367164917295,-158.81120904637334
9.1812499,-12.664533942708964,1.0637945934676554,-10.61824513210694,317.4030887616481,134.52185613905277,-152.16891338070954
9.1912499,-10.046094165823817,1.3985328080380006,-11.01292683514315,282.14197099838117,122.10329055053279,-137.74656522540013
9.2012499,-6.676416289240337,2.148196592915521,-11.44916621380856,233.11395753938436,113.31178558451633,-120.83913671859185
9.2112499,-2.2645008257663344,2.6000674853839785,-11.348828988978232,183.00231271065388,108.63597569565235,-109.2946574664546
9.2212499,1.8323447723582516,1.4653467362733628,-10.7248002418244,143.8618341749281,103.007433863408,-102.65536739566704
9.2312499,4.88239437906486,-0.7779814366118349,-10.129959947600273,119.86524411396593,96.41856948947381,-96.15276202779947
9.2412499,7.215423558322795,-2.7619151628644296,-9.683982111278832,108.20194914150981,92.41541321147854,-87.8481508104771
9.2512499,9.295401065779501,-4.362795893411756,-9.185107708318071,107.356420811807,92.55347259032817,-77.11966134413456
9.2612499,11.195916098259588,-5.773243777157513,-8.496535484370808,114.78441711760212,97.55915002256609,-62.89766609443851
9.2712499,12.545125282202179,-6.957167610809303,-7.5407535400579375,128.4514649643395,106.87921943049489,-46.53205334596207
9.2812499,12.851663651351725,-7.614981282230171,-6.572986720371093,142.95076544547027,117.17895582005572,-31.123965682662877
9.2912499,12.547568887947415,-7.866217853439259,-6.295356450840658,159.97461558937076,122.57545181686125,-20.205270647708296
9.3012499,12.470834445371604,-7.820446788666981,-6.741145536475732,184.40111064312782,121.00799178923013,-17.257725344828568
9.3112499,12.257505023331525,-7.528768497251523,-7.185000462237767,205.3604784920072,117.42134467094182,-20.10642538280317
9.3212499,11.247430226709488,-6.785553877419656,-7.553449075592526,215.5009591944868,115.07154856661268,-23.66788370235056
9.3312499,9.842679289556818,-5.67635956064767,-7.736332983216816,215.99741441266946,113.12363639362529,-28.77240231468274
9.3412499,8.904736346566295,-4.848529586421638,-7.465461765841475,211.26452570286247,112.97642637723374,-36.347375303977266
9.3512499,8.56370804754421,-4.533170924702679,-6.965271853184446,204.6486901908474,116.36470990541686,-44.58585416227472
9.3612499,8.649821969511915,-4.632601140415234,-6.566522254238686,198.5451020291428,120.83292903460875,-51.351494530664205
9.3712499,9.362139098367349,-4.586279490984425,-6.163737569038987,192.20915307446143,123.71444487714528,-57.35134265181518
9.3812499,10.434680856889228,-4.273314935658546,-5.651676249786909,184.83620058395954,125.68101679604595,-65.11449954318121
9.3912499,11.140658533016143,-4.127998177496239,-5.125203416510697,177.21907214605918,126.38500029457663,-74.00446878933376
9.4012499,11.241022278459456,-4.178065857600134,-4.719592926267365,168.58801116281882,125.44204156028361,-81.5663030296077
9.4112499,10.738762269189195,-4.345369343174368,-4.367494237226966,159.66648435998613,123.69659113841755,-86.51232800727125
9.4212499,9.979076386259319,-4.484460632617571,-3.9087025439053065,150.81187209434486,122.69894809120392,-89.70979090969129
9.4312499,9.295733263331151,-4.147306164686883,-3.4636223065824754,140.22072392971856,123.12191129203936,-92.16751470345166
9.4412499,8.71238517951583,-3.495216745808002,-3.045773214091235,127.23555496316243,124.23943431870819,-93.97264743473688
9.4512499,8.396221399290257,-3.157976487579549,-2.562198778650148,114.2335394783537,126.0404812891511,-94.07066245846391
9.4612499,8.479948702243837,-3.7650757009269196,-2.2184994435702716,108.09759508844128,128.81615971600456,-90.90815953827092
9.4712499,8.187514371650407,-4.249782338485757,-2.061418565905477,103.17233015912585,128.83231334945256,-85.03392396950352
9.4812499,7.669168146717939,-4.013692517601375,-1.8525850848114735,98.70359121153481,124.8929334765255,-78.46240454279996
9.4912499,7.694229172320978,-3.9465090724398597,-1.5849434842359014,100.54736575891229,118.51125158365933,-73.25096770308978
9.5012499,7.764483602583271,-3.7534745466188935,-1.3338409230041837,104.43972533446036,108.45474840569527,-69.21768439781614
