# Time (seconds),Accel_X,Accel_Y,Accel_Z,Gyro_X,Gyro_Y,Gyro_Z
0.0012499,-9.770181881541824,-3.1656800303899586,-3.9892980046550806,-416.7693776419968,-41.217783758941124,110.90271680979993
0.0112499,-10.073529036329218,-5.016823326995614,-4.895189677330399,-455.11402185379313,-53.21143448750795,107.63579376499906
0.0212499,-10.244240811826822,-6.24078663691098,-5.178182767042243,-475.44394850990267,-60.93453526997548,100.26572733395862
0.0312498999999999,-10.17020411497923,-7.208167952597194,-5.151319780423268,-483.2542113848322,-63.70136602875335,88.43677158597873
0.0412499,-10.098437245803648,-7.934082178765988,-5.00183165094427,-477.8311518261817,-62.18771338629468,75.16823494118802
0.0512499,-9.895327561809841,-8.593393923375253,-4.858630236784412,-458.6961326298731,-58.693776438529966,60.29672464923749
0.0612498999999999,-9.243414392994097,-9.025529779429466,-4.660621944930243,-427.1637231113344,-54.108578124970904,43.20755157346287
0.0712499,-8.499917683496784,-9.155602101509889,-4.405929654905701,-384.6089199768824,-48.62056445552101,24.46845669846208
0.0812499,-7.97368755394593,-9.270867286016164,-4.239181977346501,-332.65082780191796,-42.23444341304216,4.64441587717581
0.0912499,-7.513930029500761,-9.432711141555027,-4.019769327242176,-272.1422470278769,-35.20329593334248,-15.530266172468298
0.1012499,-7.067966305497729,-9.637925182766713,-3.5924393928810106,-204.73870679726792,-27.88398978058081,-34.5003514590139
0.1112499,-6.912212685968729,-10.007157004589374,-3.0147771698599453,-131.53145672140892,-21.56310001187542,-50.30826626429238
0.1212499,-7.13399598373939,-10.1974715207846,-2.728821544919428,-55.935485040651756,-17.626659948000885,-62.03815456250268
0.1312499,-7.348892070159702,-9.927981085741772,-3.259639061025986,17.95028181013991,-15.234564142121176,-70.17437106017793
0.1412499,-7.434558485680308,-9.228310582057201,-4.1888809135638505,85.7376813086067,-12.720326015814768,-75.76782012378285
0.1512499,-7.611487891145978,-8.259419359859802,-4.650530161421478,143.73157663420793,-10.030467590585626,-79.25016750352805
0.1612499,-7.6450110453161555,-7.38695661020376,-4.6363522756443105,191.4861875712373,-6.628951268622191,-80.04121813112306
0.1712499,-7.318354630574665,-6.838134396217147,-4.393184969043268,229.93153003863725,-2.753353645916591,-78.31520245299268
0.1812499,-7.161838567396716,-6.436122708259923,-4.178653329181296,260.0263902505307,-0.8067222927638675,-74.46343333134735
0.1912499,-7.863759224559985,-5.9708610452934305,-4.60287465547836,282.2366658692223,-2.683458967089019,-69.50418986334536
0.2012499,-9.20343485351469,-5.383977110529578,-5.670008746184333,295.3287000031759,-6.480214474962347,-64.81571638355327
0.2112499,-10.926442433506987,-4.5866563473868425,-6.624995653879135,299.2748219913973,-13.665980896821901,-61.337417400994255
0.2212499,-12.33562908431353,-3.6673978252294055,-7.713890022965875,296.51834112349536,-25.250448559113163,-60.40888795998403
0.2312499,-12.644834159845235,-2.796094775208755,-8.89339507977363,286.59638050805125,-38.46989086029872,-62.288553105699364
0.2412499,-12.439905367734768,-2.0435861833588773,-9.817882338764566,268.61156400454365,-52.77090075656529,-66.4727841309761
0.2512499,-11.696346104984633,-1.3508024666487248,-10.350731770977948,241.40684724573504,-66.6933606289321,-71.33374054429459
0.2612499,-10.076853469481751,-1.0937965275013568,-10.074967791807888,207.2290083622252,-76.36242028821493,-75.26730678401022
0.2712499,-8.783866306822198,-1.613129107839806,-9.743004248481753,173.0809246837686,-80.96011099248136,-77.31855587865343
0.2812499,-8.515660436588991,-2.37812669742595,-9.681186560033135,138.1014720646256,-81.98869605349739,-75.61713006642594
0.2912499,-8.612668810389799,-3.1044217698424044,-9.577395582676143,103.52776057269689,-80.15146632934572,-70.03183212936318
0.3012499,-8.413464931740135,-3.676952783962508,-9.911249024486892,68.97228758865714,-75.63511163609257,-64.21394231670483
0.3112499,-7.836115984528652,-3.921851453200572,-10.531772248543627,34.90232338583894,-68.71480081860328,-60.9714762931039
0.3212499,-6.944007557649644,-3.70244334354916,-10.859815226295577,1.7539926937825603,-60.08306955289775,-60.75846308329548
0.3312499,-5.866079246402871,-3.7116025932070076,-10.898288636145654,-27.183157194754564,-49.4253053316463,-64.02184845290017
0.3412499,-5.158685277076703,-4.296162551799545,-10.551117382213562,-46.12995135098889,-38.0186065348693,-69.56636236548958
0.3512499,-4.803982741780118,-4.9896090466498535,-9.866167449182258,-53.70973530510915,-25.83400091111008,-74.57598577239035
0.3612499,-4.426596939334916,-5.653156256519013,-9.144474604469126,-52.07352870564159,-11.8238170211458,-77.14720993935653
0.3712499,-4.116851062881965,-6.324740190212283,-8.480139785216915,-42.4635331670501,3.6781332689877577,-76.57235710361775
0.3812499,-4.031498095342454,-6.908606894738858,-7.800668529970823,-24.231413299035285,19.063634487301993,-72.9637639240914
0.3912499,-3.9753747671278363,-7.323514766408015,-7.180568588869534,1.1882643215859878,33.32296571216669,-66.58630871707621
0.4012499,-4.002858528316399,-7.539020984943881,-6.586517726850291,30.238629630899293,45.747012609978185,-57.95064552206306
0.4112499,-4.307105897701049,-7.404859923765791,-6.0562060834289095,58.73585212208971,56.05296377883944,-48.24769541692648
0.4212499,-4.495152219885199,-7.082629531619928,-5.752967683945519,83.94183733206215,65.10839588100801,-38.750481237186335
0.4312499,-4.44095317563975,-6.80629296645638,-5.530009467352591,106.00896057772634,73.13903997602966,-30.19213034636669
0.4412499,-4.467336102776121,-6.519680918864879,-5.258340950144108,125.25226134967706,78.62745564503118,-22.52758343645499
0.4512499,-4.5768376051761175,-6.241071394731198,-4.954072321593388,142.06828833388514,81.81817122757059,-15.409445029052844
0.4612499,-4.7254022154760325,-5.945233708604947,-4.678915739066712,155.7262129363336,83.06449309350279,-8.531553211865468
0.4712499,-4.767541928232589,-5.547110550156756,-4.644054889426645,163.89015717134407,83.13589169708634,-1.4570474233162332
0.4812499,-4.666523714375607,-5.276142190940601,-4.8102763500436145,167.0712633970781,83.5013111559477,6.195760897659679
0.4912499,-4.649572934183915,-5.163702039525409,-4.906751069198597,166.23789744805805,84.02156402018514,14.08636101222913
0.5012499,-4.674911951380061,-4.956668193441468,-4.535439815538365,162.32680243143994,84.75393537771525,21.78212165450613
0.5112499,-4.6820989160855655,-4.522141106285178,-3.888440396978546,156.0864532039369,86.38434699379053,28.551230636086306
0.5212499,-4.701069503248193,-4.124608370750265,-3.42013582549577,147.82175386072836,88.95078155342205,34.367311233044006
0.5312499,-4.7972177069719395,-4.219128400702376,-3.0259853599461377,140.60337591250257,90.94369861818396,39.73088256408884
0.5412499000000001,-4.876685818414685,-4.434024848683986,-2.4461866145198625,134.89192945624086,91.77016082205583,45.56874318252165
0.5512499000000001,-4.949261256278715,-4.498793042081725,-1.8833069783047176,129.3438940873831,93.57872102580276,52.20751349469982
0.5612499000000001,-5.362551021645215,-4.7325465550389865,-1.7158088131261402,124.38485744847058,95.88667418659216,59.18203756856484
0.5712499000000001,-6.054710456197053,-4.988699053032431,-1.9123199601310514,119.50341959009405,96.1494168782894,66.44128309674133
0.5812499,-6.570631305199287,-5.1096879692258215,-2.0689332742372946,113.89511230238239,94.92297174957467,73.2740019948527
0.5912499,-6.862373831732407,-5.118621176801416,-1.9000403606055245,106.99629291124775,93.34575734431739,79.10462319364959
0.6012499,-7.146572947752645,-4.965895062438682,-1.5830224695606054,98.87425454367158,91.31363944890674,83.5660275848672
0.6112499,-7.432366699817496,-4.876217951607355,-1.3725923815780645,91.64022728568288,88.41412918677317,86.26819555145248
0.6212499,-7.679976476647605,-4.809283497416225,-1.2568552881672372,84.76133960636491,83.65344909989308,86.78831359099786
0.6312499,-7.798617977955851,-4.721448633276667,-1.183753017013905,77.78114271041572,77.09428493663408,85.70546652211476
0.6412499,-7.850463567799392,-4.723621996888924,-1.1321472351271795,70.52975192749766,69.45907172614923,83.87706637239886
0.6512499,-8.057725500708505,-4.700725990165627,-1.0495637111515546,61.66151949460784,61.0219345204076,81.73493438793152
0.6612499000000001,-8.467682543641995,-4.658952075788087,-1.0294821271045167,50.65509008667618,51.78314634464602,79.54990982213775
0.6712499000000001,-8.867716960085795,-4.618234909505906,-1.1422511753440496,36.91371144683318,42.09276792341087,77.22053077075748
0.6812499000000001,-9.135161979393201,-4.408492005004789,-1.2214066946248676,19.910706580900623,32.52402850258516,74.32368122073136
0.6912499000000001,-9.359900727796632,-4.031021312078328,-1.2129037139185095,-0.4197300351608685,22.54327922473335,70.15924660621513
0.7012499000000001,-9.529531624927598,-3.748721475819356,-1.309781979104738,-24.658183955464516,11.711282273992664,64.37880499839193
0.7112499,-9.6746557509598,-3.6751818756385015,-1.4949577039875896,-49.13900759251626,1.2253768884950436,58.28844491530855
0.7212499,-9.763006835888508,-3.671861856959296,-1.5625777192141388,-72.85832224942149,-8.764720048453977,52.31906426549401
0.7312499,-9.749199179484858,-3.6957024686941344,-1.5082304095494998,-96.05325196573423,-18.661253485046704,46.27832991287313
0.7412499,-9.695373471680089,-3.7282462820233877,-1.5112969127646885,-117.98453736976369,-28.184256415834255,40.45941569179791
0.7512499,-9.593556596990556,-3.808218215602283,-1.6357342243332273,-138.30974281003824,-37.29656885093208,35.38599709177482
0.7612499,-9.446991195308367,-3.9078951268940783,-1.8474555980648508,-157.38195565613918,-46.06542698987008,31.024004971857302
0.7712499,-9.35455010844167,-4.046233205800383,-2.032632218364239,-174.7755209902129,-54.367685287060056,27.470992709967422
0.7812499,-9.439302835428084,-4.251635583978709,-2.3007699029201634,-189.58284203993594,-61.63511567527608,24.569093092169318
0.7912499000000001,-9.68904312188854,-4.489186439291462,-2.673824363948701,-202.09992253315232,-68.34580336266282,22.10557037737885
0.8012499000000001,-9.85904347434228,-4.847083228943233,-2.83122092017652,-211.57767068053002,-75.08817542482939,20.28020526934322
0.8112499000000001,-9.8052426750923,-5.172281855184767,-2.9664967427543574,-217.56838226604057,-80.73933181520817,19.227424005546396
0.8212499000000001,-9.552623289502458,-5.426647089849849,-3.2791946412591573,-221.03369282096747,-85.45795844856225,18.1538708488237
0.8312499000000001,-9.146756190571432,-5.695642491051848,-3.3934989977606898,-222.10362535383672,-90.02079032623898,17.14800329192573
0.8412499,-8.756989689620733,-5.835901472416174,-3.2479579764005244,-220.20810199959135,-93.64564513329114,15.894566334445619
0.8512499,-8.50131970799414,-5.879696538979052,-3.114504064747303,-214.6215210056749,-95.99204028076575,13.778391453277765
0.8612499,-8.285458659053516,-6.050891409987724,-3.1902864522193144,-203.28838583982994,-98.37461152551973,10.399674451389005
0.8712499,-7.9790441269036965,-6.4012691473562935,-3.557473689339457,-187.29687187775002,-100.29875319196748,7.009319602555349
0.8812499,-7.7443776579799,-6.689792146647574,-3.747600066669925,-170.48417528134792,-100.25116378740485,4.903315781585482
0.8912499,-7.704519451885481,-6.774816566581562,-3.514057680051847,-153.40386652176466,-98.11831281783851,3.9649614888302103
0.9012499,-7.655360410273606,-6.767755412909342,-3.0751670585023416,-135.3966006802778,-94.8173434493976,3.9010143793491396
0.9112499,-7.4724245176175,-6.676043948345527,-2.6143263716141507,-117.69170409105973,-90.45501323639078,4.672828785834659
0.9212499,-7.346442559100798,-6.489208551556359,-2.318306780970935,-101.73105712419174,-84.97672175848973,6.3684194320007865
0.9312499,-7.467920781119238,-6.178878342512766,-2.2804071571828,-88.16482994277015,-79.95051387999672,8.202767795790823
0.9412499,-7.75103786325715,-5.676739803711163,-2.438072047049681,-78.22110063411972,-76.12857384191351,9.366187358151159
0.9512499,-8.15614120715627,-5.098260393744225,-2.647592974815633,-72.86460057904786,-73.87108208129453,9.910149751654874
0.9612499,-8.611939511195434,-4.600238046344908,-2.8034941090379992,-71.76384303050975,-73.4315278318292,9.712785279796158
0.9712499,-8.999959168568168,-4.15129917238091,-2.8546972380622884,-74.5556026392678,-74.2477477980152,8.76753344388511
0.9812499,-9.353169462060672,-3.715475199107372,-2.911300875743695,-81.39243500118138,-75.63671075321766,7.543280660569541
0.9912499,-9.719357776724644,-3.411093454648511,-3.018571022633539,-91.68329740554003,-77.19780120361978,5.882241290824359
1.0012499,-9.908371741757957,-3.203564658504737,-3.014415405515022,-104.6483177627478,-78.81125431611713,3.996900247438915
1.0112499,-9.803805406818071,-2.9748034635248817,-2.8825330789232897,-119.98610901457414,-80.06525365259756,1.739025913155642
1.0212499,-9.600580447367735,-2.8010941613816263,-2.7642591559057963,-136.64719073678455,-80.28602141590223,-1.4506308515337771
1.0312499,-9.476441193503398,-2.7504127781373797,-2.644125497182042,-153.09581180432716,-79.82016094450341,-5.436069928123869
1.0412499,-9.34866346444089,-2.8254693616866153,-2.5279276541808686,-168.15580289945203,-79.02163515930683,-9.775566983455837
1.0512499,-9.198323410256185,-3.011416948440179,-2.4667876270321694,-180.7658544274318,-77.80886118676189,-14.042548555209352
1.0612499,-9.063884896758681,-3.2366690628401673,-2.414282351855326,-190.90778392762147,-76.36701578633334,-17.831716281142562
1.0712499,-8.915418041511039,-3.468256013585096,-2.36718256928311,-198.52651108240275,-74.8217431684757,-21.138684307832808
1.0812499,-8.76314901079566,-3.6460752801023237,-2.3285738674131466,-203.89062727280674,-72.97772686885256,-23.742432185683313
1.0912499,-8.530651501862456,-3.8026259977829566,-2.256909203992294,-207.14671578535788,-70.57308461078422,-25.718569056725347
1.1012499,-8.286112616445326,-3.9957954747154285,-2.338976646190608,-207.85855680905343,-67.43878666199339,-27.874916424243683
1.1112499,-8.152111191692464,-4.265397046034373,-2.620336734452181,-206.7722928387526,-63.286322406443105,-30.15158728834252
1.1212499,-8.146863714866495,-4.744565663698789,-2.6327912433920346,-204.58238630970217,-56.25980562680856,-32.24934860599894
1.1312499,-8.41300365384886,-5.449774498158584,-2.2134580024309614,-199.48671471873033,-45.83139186336694,-34.407015761814385
1.1412499,-8.741717625336996,-6.326323736500907,-1.6397340125023854,-188.6827309260677,-33.51716192556436,-37.15087836340676
1.1512499,-8.785964533634438,-7.297788299352421,-0.9861564361235844,-170.2904168952488,-20.628836750744806,-40.784610179315415
1.1612498999999998,-8.662551393458191,-7.983514810673846,-0.36480055927492894,-144.9828566652818,-7.957244579567417,-45.660081041485604
1.1712498999999998,-8.589178681787171,-8.347541039269494,0.05235500993275123,-114.70420025448104,2.6305396779073558,-51.641033492252
1.1812499,-8.601195556411113,-8.684160879051158,0.31227859859349305,-79.75442582099244,10.016440171586808,-58.262079000675065
1.1912499,-8.701842526560755,-8.766672477500475,0.3521597730513848,-43.432833318171234,14.611790701964374,-65.0918638148605
1.2012499,-8.957511897609871,-8.533695952190605,0.20970743297085337,-9.844478954917587,16.537671795203877,-71.247994779682
1.2112499,-9.334534907902116,-8.199085924712938,0.1476040590125384,19.63819935917918,16.765961228009676,-76.00158078258373
1.2212499,-9.702535253003555,-7.820144421244798,0.2760680351644635,44.74125904123675,16.236872285564225,-79.30458258712801
1.2312499,-10.004185296058369,-7.403465381263604,0.5210704318276005,64.86872036232903,15.164933289039002,-81.26824963577195
1.2412499,-10.254712948954914,-6.949610878899237,0.7553585809048023,79.96862942614615,13.761770298241657,-82.26658361625448
1.2512499,-10.508636275276798,-6.4476258736305505,0.8691627392914081,90.7614969633606,12.417307591379403,-82.79157609669258
1.2612499,-10.78330668303052,-5.888934525847852,0.8975132829475158,97.77239378102202,10.489245739729457,-83.33973119946366
1.2712499,-10.92686843753116,-5.399503273862447,0.9060219937562896,101.2364751907939,7.406625726992457,-84.12621671181887
1.2812499,-10.95804789330044,-4.9873599486749285,0.8878335161808438,101.60979714659791,3.8088650994863738,-84.64759225968851
1.2912499,-11.010296268757882,-4.533330628677498,0.8118260188078863,98.4054694429052,0.033496890394368574,-84.5487145822046
1.3012499,-10.99734934377262,-4.104238365576266,0.8078634951651739,91.52424297413238,-4.338526191716256,-83.9335839826067
1.3112499,-10.794291325815855,-3.6913905430279406,0.8937670759427029,81.48265625830072,-9.150525700841607,-83.0764759771698
1.3212499,-10.504785321054637,-3.2808794147253604,0.9174395497646933,68.89827138623902,-13.64291122992281,-82.09912453175822
1.3312499,-10.262829856174445,-2.937073012878949,0.9228682497408726,54.16906554209945,-18.22827575549205,-80.8134301797334
1.3412499,-10.087215944834007,-2.81372054125562,0.9864104206582917,38.623529389428086,-23.463826433651956,-78.97709740181736
1.3512499,-10.049612611630895,-2.8594710532234426,0.9800858881407165,23.439906221754228,-28.507990164838933,-76.57445963622429
1.3612499,-10.150312368526468,-2.9567768783034167,0.8754543801159449,8.927536878939375,-32.82028046253523,-73.7193545459129
1.3712499,-10.147526197280389,-3.0965212648185325,0.7894891642685881,-4.537738035792865,-36.97290761079491,-70.87805038633903
1.3812499,-9.878491185819927,-3.187850285491697,0.7498370036196231,-16.92914675719223,-41.06624481961139,-68.69901270369674
1.3912499,-9.507309350972546,-3.225353155689088,0.7403220816680833,-28.185154681362157,-45.18401666119374,-67.41904779970469
1.4012499,-9.2106570012944,-3.317732877891581,0.8049569775344443,-38.109928334295724,-49.32020363800514,-67.3027114600517
1.4112498999999998,-9.107843840021145,-3.4779476058687044,0.8877203591002297,-46.62760185567911,-53.090298322027415,-68.46179303402555
1.4212498999999998,-9.173569206637271,-3.579317040864141,0.8314271707376198,-53.7390641867287,-56.79846641209689,-70.84430262190305
1.4312499,-9.188810531805398,-3.6752771031731375,0.6878401235491426,-59.69110397765141,-60.74585692836516,-73.82886071010294
1.4412499,-9.193036926524139,-3.9868049155555525,0.6245545307396252,-64.33104367199387,-64.30531583805728,-76.30456532872137
1.4512499,-9.427628047805255,-4.357856754671813,0.6282731746467366,-68.29911243534794,-67.01233547850896,-77.52791394060824
1.4612499,-9.705203414280673,-4.636771674022112,0.6372841051335865,-73.16424994632744,-69.38491416683091,-77.20432666980506
1.4712499,-9.835469382836166,-4.965564051461654,0.7301433063827559,-78.4513602632371,-70.78151499010151,-75.62530606025783
1.4812499,-9.981062031302837,-5.185624707918239,0.889569648809028,-84.28180658264101,-71.16398698196387,-73.3866230517764
1.4912499,-10.138914805197945,-5.276795288637574,0.9590038828914208,-90.71050448679489,-71.21321612941826,-71.36542069824752
1.5012499,-10.19709345187719,-5.395925500484529,0.9683307823242703,-97.1170538413816,-71.4767621803596,-69.52978724223395
1.5112499,-10.175744365951955,-5.554968224632892,1.0721525344134077,-102.65479578786545,-72.45152163673836,-67.82302946786902
1.5212499,-10.151306891904436,-5.716021843386829,1.1367652963230686,-106.59898302511779,-74.60207974561548,-66.47092337899497
1.5312499,-10.144047358797282,-5.728596991639377,1.1380191734371141,-110.40347342815127,-78.62588453652093,-65.01186980781313
1.5412499,-10.022964495676128,-5.682193649642928,1.0939440866409968,-114.25474999399437,-83.5671297768601,-63.744062276567284
1.5512499,-9.814701909139778,-5.606970183112588,0.9479241199298303,-118.61239235184638,-89.09033815129567,-62.640272533862614
1.5612499,-9.629087332732844,-5.461956355220297,0.7381267196442525,-123.9022117271612,-95.10217707799771,-61.27311468610047
1.5712499,-9.476439271875611,-5.35055486414684,0.5654675018941001,-129.93270140199698,-101.1336656961898,-59.49093374933063
1.5812499,-9.316823069993625,-5.339721052690984,0.46148644516578813,-136.5288613834513,-106.78751231165397,-57.37054598109144
1.5912499,-9.16379560063074,-5.384453245037526,0.3508101586025226,-143.72255679662783,-111.88833328232975,-54.61530199406892
1.6012499,-9.068159295055667,-5.3403408439475015,0.16359330794392762,-151.76087929419037,-116.45750258425211,-51.45295058335591
1.6112499,-8.914339722446176,-5.213320752199569,-0.0869811596165172,-160.47258776803542,-120.7323965290278,-48.868518374021015
1.6212499,-8.597942526252611,-4.980228403026912,-0.3830647563219091,-169.37035092275377,-124.61457526626081,-48.105084284536915
1.6312499,-8.169833571647192,-4.6878815515778225,-0.6545840724400521,-177.93389986209385,-128.65044677139963,-49.429271304856535
1.6412499,-7.699856852084289,-4.579941149446662,-0.8309629212422385,-185.0779821543651,-132.71257613411626,-52.160421228165156
1.6512499,-7.257691878481194,-4.639108726072018,-1.1203660762331111,-190.49095105658677,-135.91453830800322,-55.685639750181636
1.6612499,-6.84411085918568,-4.690330427197841,-1.6794088676184036,-195.20424272504582,-137.72833570519364,-59.411150877068074
1.6712498999999998,-6.392805663942753,-4.69623435562784,-2.3029671130686333,-199.9893925571957,-137.57276571540643,-63.09527781519552
1.6812499,-5.856709795648161,-4.644991964531737,-2.737912697020824,-205.0516262727491,-134.98404696509022,-66.96774667195407
1.6912499,-5.25085978960536,-4.645468909505683,-2.898430191326958,-210.2574202910402,-129.30154973378254,-71.14110433322467
1.7012499,-4.767872358735362,-4.849166716436693,-2.791851473644837,-213.4700151928191,-121.08891571393279,-74.68570255265847
1.7112499,-4.519336548419757,-5.329676782200559,-2.6009618139583077,-212.1689075512176,-110.99276213161347,-76.69784446244327
1.7212499,-4.555738520266501,-6.030732427386073,-2.3794345104298715,-204.54766630394064,-99.78858406119473,-76.6841630296259
1.7312499,-4.754132541185158,-6.6929708189520705,-2.3288618307820945,-189.93905545298423,-88.55911855934944,-75.00445189027286
1.7412499,-4.9181136344322205,-7.1647760177162105,-2.5102838885664416,-169.27924566748496,-77.85706434583582,-71.85580067605028
1.7512499,-5.0071065545027205,-7.5165787789612795,-2.7129408714393373,-143.62038312381202,-67.75370648993146,-67.522673133017
1.7612499,-5.083061654006644,-7.749274686372891,-2.7947710544898814,-114.0431512962537,-59.252118478573756,-62.36148666693612
1.7712499,-5.093512462780438,-7.807162805570065,-2.744721104813776,-82.57820524523243,-51.90500448782444,-56.95477067125725
1.7812499,-5.083124760965385,-7.688061448010807,-2.6595239397327095,-51.819225000458594,-45.16528521947317,-51.428507282436364
1.7912499,-5.192654768604367,-7.415220901326597,-2.6779803507364366,-23.842280250212326,-39.129713272605215,-46.01332938958691
1.8012499,-5.3845032332807365,-7.107634602522374,-2.7559101811314752,0.06379927453232649,-34.161669157324695,-41.01932695881376
1.8112499,-5.555048512484788,-6.733224716444516,-2.839467256979536,19.34886890092179,-30.515975114641407,-37.001898241935194
1.8212499,-5.737588449674621,-6.294137189814106,-3.022311591578959,33.714566208317265,-28.36768234979872,-33.52603629214061
1.8312499,-5.945004277862625,-6.113199076250964,-3.193962750038893,43.43490768936381,-27.76408590503575,-29.541412278026854
1.8412499,-6.177699818767895,-6.210706693196192,-3.1911200956872516,49.321672320189585,-28.398590953475136,-24.44164999562004
1.8512499,-6.4445522687850705,-6.27477447150486,-3.075098537878276,51.44753564070719,-29.980853979191984,-18.560451403642233
1.8612499,-6.611083355636672,-6.28191703396356,-2.9888711220337107,50.89002212526277,-32.672355097514725,-12.155281427325827
1.8712499,-6.618463363108159,-6.276680543551394,-3.0388128730785597,47.4480962486013,-35.9879487478357,-5.753736413309733
1.8812499,-6.684800546041735,-6.329291701130643,-2.9970830552211725,41.359549549976144,-39.818673698879245,0.49141506704529886
1.8912499,-6.900112853717252,-6.320841478258919,-2.7730790945171844,32.509216414668224,-43.96953788360761,6.345409099000219
1.9012499,-7.1294341827359675,-6.185004104779345,-2.591608910431976,21.05265858957054,-48.323059694152555,11.267673551298772
1.9112499,-7.247266640241041,-6.106433518729145,-2.5956915319953486,7.822719984939754,-52.91382266233581,15.45521605523224
1.9212499,-7.3218904825235445,-6.201114109404076,-2.6369357759756773,-7.331252537302485,-57.32731794343258,19.414368620121714
1.9312499,-7.449917617101697,-6.351663816807937,-2.638701059967795,-24.264587619100087,-61.558524309116144,23.452209090754142
1.9412499,-7.535212552860712,-6.432273696338762,-2.6553060738950873,-42.61724594061942,-65.84827298254585,27.09409102638926
1.9512499,-7.421560552391424,-6.5111728523921535,-2.6102823966985027,-61.567151779894324,-69.84400232533953,29.799083577891363
1.9612499,-7.212036082176907,-6.643425683798381,-2.6410051946558735,-80.36834554754759,-73.13213581503855,31.47829436086734
1.9712499,-7.094358761208356,-6.711665782916792,-2.8117423122060106,-99.18985414058336,-76.10352921130068,31.572026117170775
1.9812499,-6.9143001453818975,-6.71241307463301,-2.912084312924415,-116.76702872494178,-78.90375147441877,29.460715719705938
1.9912499,-6.487986141636856,-6.74843814887523,-3.007772943430395,-132.1672281633076,-80.8225018252768,25.267171517478733
2.0012499,-6.060894523292103,-6.9476635460098635,-3.0054457127337777,-145.68215005317447,-81.56198018741216,20.0879925759859
2.0112499,-5.788104944160387,-7.218993675679012,-2.9250039223060362,-156.59209821936273,-80.7292852625709,14.887618626577506
2.0212499,-5.518632400405065,-7.444611908036903,-3.0420061456125485,-163.94251338726977,-78.869505155734,9.529916465126899
2.0312499,-5.184453705075292,-7.659234058082961,-3.1698844070300423,-168.0520985623486,-76.17984332036117,4.495457412205805
2.0412499,-4.843819914558938,-7.8048596012543925,-3.1927408103970802,-169.19372488706833,-72.62368546412304,0.2065273547415886
2.0512499,-4.583283437044404,-7.932743201172451,-3.264001405754439,-167.1975822331099,-68.36768170686766,-3.438006853636833
2.0612499,-4.480341447480959,-7.974806325848544,-3.2347070959062614,-162.72085171824114,-63.64037508714149,-6.405417261262311
2.0712499,-4.413913087817038,-7.949635550880293,-3.10118324001732,-155.8382396610642,-59.20960201817887,-9.172465895207946
2.0812499,-4.371408353929007,-8.039246819650257,-3.0184777825917557,-146.41764015507246,-55.42404533467231,-11.426967637625859
2.0912499,-4.546651394248476,-8.30721109323035,-3.037862784213563,-134.07952355387977,-52.01165108870797,-12.89232926227193
2.1012499,-4.925861559061011,-8.555456189369364,-3.0767759120972094,-118.0567862763131,-50.38027499965655,-14.285042791559121
2.1112499,-5.102517383170012,-8.706466025425435,-3.0104691750701513,-100.72602619458466,-51.06875760267769,-15.511485911525757
2.1212499,-5.116714079372536,-9.003599005506963,-2.783620076571413,-82.34697770115226,-52.27556099103817,-16.282735990248863
2.1312499,-5.342686186203459,-9.165750475849268,-2.497136292281908,-62.9288051904534,-53.94771006081648,-17.132068787575083
2.1412499,-5.567452279967158,-9.125666298192101,-2.2318950816580125,-44.10991701963114,-56.063985368774354,-18.783429292170045
2.1512499,-5.685184784546448,-9.005946426083092,-1.9990386010507828,-25.9837991401161,-58.5744719411867,-21.643399361326104
2.1612499,-5.807294283283762,-8.653498001553316,-1.8265573692741908,-9.730310873361434,-61.77249532177218,-25.053010268957802
2.1712499,-5.881740507254345,-8.347464992952027,-1.6747757126566936,3.3750212152695904,-65.02681511100832,-28.207044062737126
2.1812499,-6.003578585632582,-8.212375232985321,-1.381582012425012,14.075659176703116,-68.9541851216447,-30.553170174282656
2.1912499,-6.19460613534247,-8.047049445027968,-1.0132896819789188,22.72972585654844,-73.58806193730832,-31.70042600809504
2.2012499,-6.441666739889232,-7.780448581001986,-0.7530177808313837,29.125130274054662,-78.4640371940376,-31.957672279616464
2.2112499,-6.795144640947926,-7.390452410658768,-0.5146503183953842,32.548710148430224,-84.6522482492572,-31.89129791843935
2.2212499,-7.119655531542667,-7.005723428463699,-0.2847299285343275,32.36413630723943,-92.88526709416045,-30.87654062258281
2.2312499,-7.336148300252165,-6.569167295102686,-0.3968083107917296,27.739076761327212,-101.74587346662373,-29.16483644153119
2.2412499,-7.391200980532279,-5.847507841316503,-0.8169485461019842,16.157249560417142,-109.77610851067602,-27.781760232338836
2.2512499,-7.243544458075617,-4.90381138130971,-1.1852857809989283,-3.434755267991524,-116.42768336517231,-27.3536224762289
2.2612499,-6.938752465003177,-4.009126428695154,-1.5097863414925368,-29.596522217750994,-120.99968351579398,-28.96769471080512
2.2712499,-6.520937165457276,-3.38576757573907,-1.707822209132035,-60.49134759715696,-122.17296867703203,-32.73521096358789
2.2812499,-6.205269202993426,-3.1844751473792123,-1.5103583215652108,-94.6131962547846,-119.44574299664718,-36.81192860149151
2.2912499,-6.033405384973876,-3.547081887417275,-1.198635285576803,-126.85004694734462,-112.43514347465731,-39.91803305982895
2.3012499,-5.98227168855624,-4.186376138147112,-1.0528751007743293,-154.27590935955058,-102.2822743084127,-41.354867459599724
2.3112499,-6.102300373967023,-4.866850172806949,-0.898919094911905,-175.61717641134067,-91.28413612770402,-41.115483400317046
2.3212499,-6.223045329290654,-5.513705603673955,-0.822032687114979,-188.66405325943347,-80.95284351734749,-39.594389450836175
2.3312499,-6.225220866071762,-6.181049226980301,-0.9517171185334959,-192.9744369730791,-72.12904142883097,-37.30077731277459
2.3412499,-6.267881396294897,-6.873907535801022,-1.0973409756159216,-189.28702354731467,-65.77658842556453,-34.32796159140566
2.3512499,-6.398341975897629,-7.4876988461361025,-1.1054827908742744,-177.42318918516813,-61.51283226512237,-30.800278211707226
2.3612499,-6.49906649938724,-7.997692327077434,-1.0126637311764741,-159.2854926409416,-58.65670893286466,-27.1962024249987
2.3712499,-6.531795864625763,-8.428493904491845,-0.8460600628388874,-138.68483105871775,-56.29713241623972,-23.859790491559654
2.3812499,-6.627296682010693,-8.769853509626913,-0.6312196038630932,-115.96779629881546,-53.754648262449415,-20.84636811759046
2.3912499,-6.726371380152881,-8.903588389021925,-0.4180511459097057,-92.00827073461211,-50.984393156554304,-18.455976518774413
2.4012499,-6.7202687268248,-8.968924546641134,-0.22581231305966049,-67.47689204353276,-48.24326831938089,-16.684215552442677
2.4112499,-6.794325684328081,-9.062263732624718,-0.035574385484606445,-43.996091904183515,-45.73030856899032,-15.207589745556971
2.4212499,-7.077057213153476,-9.059074829528779,0.15154295445323804,-22.63206468590787,-43.491238714877305,-14.070678498894164
2.4312499,-7.456455009226213,-8.921237805948804,0.21773351512817252,-3.7422644830396745,-42.10884846548747,-13.304726688583031
2.4412499,-7.879796644842542,-8.718223896281073,0.18471753648643438,11.650923868559957,-41.93971459191532,-12.982347858919978
2.4512499,-8.30785102053794,-8.501086152287069,0.0754691424780313,23.35715306279365,-42.53902752009955,-12.826227283121169
2.4612499,-8.720970299545547,-8.266059425548871,-0.01395830105485457,31.382346442255106,-44.088910027998224,-12.85307031552627
2.4712499,-8.981353036341643,-7.9002220931592,0.04412085711819011,35.2188968717559,-46.53088011245103,-13.518266870540476
2.4812499,-9.045927215596482,-7.381514634188345,0.09965832108985243,34.58128635652172,-48.56152689083742,-14.740757242656207
2.4912499,-9.117264315468223,-6.816984152106687,0.09377849500983976,29.60729488649224,-50.3707950642268,-16.900565526708583
2.5012499,-9.107747670606349,-6.364177604528223,0.17657337505099296,21.37592730002407,-53.05000151123988,-19.559056741808828
2.5112499,-8.905753828995044,-6.075155841205029,0.32637769029798,10.852064247434097,-55.52528512243239,-21.81863326522657
2.5212499,-8.733639401059616,-5.8806515855798125,0.39944028739003484,-2.6824486790527873,-57.55248388615304,-23.542708169127565
2.5312499,-8.670568559487508,-5.8190095660732,0.36844253596434284,-16.896697885491207,-59.35590807377127,-24.394196492895677
2.5412499,-8.609939644054599,-5.8504304326877445,0.3787268940866835,-29.911727499451032,-61.13401656354323,-24.69928391513787
2.5512499,-8.459926409010356,-5.8613129092527725,0.4989714924868763,-42.43139325926897,-62.94032992659492,-24.91108362316399
2.5612499,-8.31801616896158,-5.8433245941527225,0.5873517121708257,-54.14761797330485,-64.21407444511149,-25.126006788330983
2.5712499,-8.313411258015975,-5.945793726326477,0.5540010330429397,-64.65797987136041,-65.43827315976004,-25.59125039212542
2.5812499,-8.329930383219528,-6.141104261872393,0.5371614149571434,-73.56016769677547,-67.03117302398127,-26.100661277128584
2.5912499,-8.255787830780617,-6.307845496152451,0.6144816915102873,-80.62395966724038,-68.2351577052237,-26.691146630243374
2.6012499,-8.218335981524845,-6.446264041666644,0.6227641989136258,-85.32638505382465,-69.04810745705625,-27.617092410331566
2.6112499,-8.262635275965138,-6.5840217110194255,0.5267157393187425,-87.7589294547516,-70.15337099463724,-28.888061025306346
2.6212499,-8.280566027511004,-6.760002520919248,0.5058357846363902,-88.23665750276312,-71.66986782494902,-30.10409917711077
2.6312499,-8.266922002545382,-6.896473936815383,0.49907721322936144,-87.42298837548165,-72.6367597460607,-30.899764558610183
2.6412499,-8.330585733175113,-6.9699935572873235,0.3929044928196882,-85.66911723220004,-72.77059816596129,-31.246250687641883
2.6512499,-8.390479548450706,-7.02942537456804,0.32163598673652727,-82.98102091601557,-72.76867792292161,-31.143225180708768
2.6612499,-8.306771204620798,-7.098098643409316,0.3430066084261797,-79.50655587149163,-72.4709210053825,-30.527186683681993
2.6712499,-8.184303108247406,-7.110154924654804,0.3650411788014425,-75.87207480271096,-71.70590026944443,-29.605300662678864
2.6812499,-8.162444416116399,-7.063338932350304,0.30274335124683555,-72.03321894753613,-70.65754042762914,-28.416223091004582
2.6912499,-8.207136518267092,-7.013171971870744,0.1442796282329826,-68.11448785146148,-69.55780338831691,-27.126781044672967
2.7012499,-8.228633531368356,-7.074301513266801,0.03483387636541456,-63.696799770400354,-68.96165154265155,-25.71209211744187
2.7112499,-8.187208033039031,-7.0411388273198305,0.05863932221361509,-59.649498918507724,-68.61983186652938,-24.090030438301763
2.7212499,-8.120118069601556,-6.885644009768428,0.07168897221859585,-56.54786142065077,-67.81080343469593,-22.42700466354006
2.7312499,-8.204244191571256,-6.734604834000008,-0.030585321931948652,-53.81236636792697,-67.05424040679218,-21.24036198264016
2.7412499,-8.333980638267704,-6.579150538716803,-0.23701228925010243,-52.32451695298209,-66.61866882628618,-20.17569646541881
2.7512499,-8.364128492788355,-6.467105941280358,-0.4233756498793226,-51.92952988788795,-66.32465039781783,-19.03332917203282
2.7612499,-8.25799127342965,-6.293736571389141,-0.48670063202307556,-52.70442231058247,-66.45633019377964,-18.038367077352543
2.7712499,-7.986676899595727,-6.093237331207943,-0.48233115291070333,-54.01260921223216,-66.28091801925243,-17.129111397277114
2.7812499,-7.75380421745838,-5.937475804099056,-0.518617636538045,-55.09610206627917,-65.9668330169277,-16.60416678274896
2.7912499,-7.654488697032542,-5.819910544115753,-0.6647250247908146,-56.12452241708617,-66.17282206818632,-16.120779047050917
2.8012499,-7.586633265957463,-5.769395334916433,-0.8782351491154847,-56.919100199050725,-66.54312689959909,-15.119088734029312
2.8112499,-7.478673488859519,-5.695228204241415,-1.020827314968396,-58.346994218931044,-66.91633161495258,-13.521149283764675
2.8212499,-7.296220790037642,-5.584417106447256,-1.0569663488495298,-60.724598543624204,-66.7823136416818,-11.179227178769487
2.8312499,-7.195526554853618,-5.537977837199486,-1.1325810488446486,-63.7772289842667,-66.2769840959818,-8.309348641553767
2.8412499,-7.271770477448457,-5.520524850672251,-1.362949283586539,-66.94789074545969,-65.34291809519068,-5.302771950053911
2.8512499,-7.331646298725816,-5.446676793387344,-1.6364047383716995,-70.07854270425842,-64.33948429112826,-2.2569972811247423
2.8612499,-7.212039001963034,-5.3803686990545545,-1.8063369368159186,-73.5170128579016,-63.447630163765346,0.6488461255831806
2.8712499,-7.0821632766163924,-5.418738577151971,-1.903126648122629,-76.59438525043207,-62.53972792105885,3.4805426747928703
2.8812499,-7.009999150332643,-5.469579632613226,-1.9615649509185864,-79.26642200009603,-61.395109497091404,6.149358358779033
2.8912499,-6.952526369356207,-5.531832346091343,-2.0142602892651214,-81.34991865369291,-59.60414736303278,8.86097097977606
2.9012499,-7.0134065016982845,-5.636849149555811,-2.170634738489247,-82.9231604621122,-57.48427254551192,11.713584877160939
2.9112499,-7.199066377144095,-5.732327318506042,-2.3857065418067918,-84.63483017798745,-55.11735317979687,14.512810932147131
2.9212499,-7.368937066694036,-5.801186144908694,-2.543327132975003,-86.27041727375034,-52.06706113545616,17.214806758829265
2.9312499,-7.403514616683091,-5.846681998293968,-2.616487638385908,-87.84012067859172,-48.48089447608164,19.706479278211923
2.9412499,-7.345551449778434,-5.845800615970158,-2.669188556966779,-89.33928559238097,-44.296212605639184,21.73596162159635
2.9512499,-7.332292534109713,-5.872619911450206,-2.7375607920486784,-90.29454209317184,-39.678204648161795,23.024143846681827
2.9612499,-7.355723755468386,-5.973078054760298,-2.7587759266450775,-90.41753935932414,-35.30835275718931,23.847828918333185
2.9712499,-7.34180158170752,-6.029714742590479,-2.7509319257185814,-90.17234501074829,-30.690760980058418,24.3885911173394
2.9812499,-7.3235767910183105,-6.095277811894199,-2.772304005846682,-89.1153564495354,-25.538861473199212,24.567247608892618
2.9912499,-7.393170927724838,-6.220275621324816,-2.9101989240791615,-87.0055496277393,-20.03091386593213,24.537631293607532
3.0012499,-7.569173261490951,-6.338429435620108,-3.0036129152596343,-84.48319707692488,-14.183062062052178,24.33548676748112
3.0112499,-7.758484533333394,-6.482822075071534,-2.9246611150269617,-81.09326710938214,-8.075218637558775,23.88698874898914
3.0212499,-7.884010836346702,-6.628015853890191,-2.8476296529272176,-76.48326167448654,-1.5911294144203323,23.326909584899223
3.0312499,-7.958300737100135,-6.720252166494594,-2.8051805755379644,-70.39442358308898,5.070673140734044,22.548718175716736
3.0412499,-7.958566949211703,-6.771022768120916,-2.775210612280434,-62.48613281582146,11.495761587240898,21.142004762345245
3.0512499,-7.983826194555176,-6.811067709880245,-2.770790592696277,-52.66822037596932,17.269254661833948,19.233525584574654
3.0612499,-8.082040857447335,-6.789638594383533,-2.7547327446151,-41.90379147333426,21.963804978163274,17.049789856251554
3.0712499,-8.1491055195889,-6.7160864684271075,-2.7008893931275693,-30.86155871249275,26.033024835516567,15.100611877279409
3.0812499,-8.273669435261573,-6.6355109037766,-2.6744826916664453,-19.918834528685007,29.700090933125253,13.697581855291789
3.0912499,-8.511462234634854,-6.5443819856842955,-2.651340395517631,-9.563887138756275,32.63180812065274,13.126615557270267
3.1012499,-8.75566956025735,-6.4283525531173975,-2.6208045092256054,-0.24820277038592634,34.72169700933173,13.597898895003311
3.1112499,-8.973688512864532,-6.298002966819749,-2.598462086445913,7.757181832039926,35.8072929015624,15.182880170142957
3.1212499,-9.173166902349482,-6.132710756386857,-2.6023680597358614,14.371415395460504,35.93855517430718,17.586228270272443
3.1312499,-9.25125930286626,-5.921930825525353,-2.636032134544082,19.20198561322809,35.18654255900623,20.24400821777465
3.1412499,-9.203098393549608,-5.681492639349021,-2.7459432911841573,22.4920977652525,33.319155558812504,22.886733088601588
3.1512499,-9.098323003716025,-5.397953405541804,-2.9227716602586207,24.059912607618998,30.61202497150216,25.31155992577319
3.1612499,-8.986325369911725,-5.152270160103042,-3.044036505860432,23.532786223189277,27.422053837979334,27.725766200564802
3.1712499,-8.827572608839619,-4.90075142514506,-3.0992547798470085,20.572793169018624,24.0117402738736,30.15543592535444
3.1812499,-8.547338147513363,-4.670724711718479,-3.189626546719191,15.496685591340976,20.88158628538216,32.20297918746089
3.1912499,-8.184127337791193,-4.482993766177744,-3.3226611747065764,8.06381993305643,17.967332209552637,33.659290573038994
3.2012499,-7.8489480535677965,-4.2579391334067225,-3.4572370114607103,-1.4422672074432286,15.141688825543477,33.69283337996662
3.2112499,-7.552267317543877,-4.0449715411785245,-3.553109795794771,-11.073301834659315,12.67967808450846,31.86353465590078
3.2212499,-7.198180945706244,-3.8977679966626,-3.59363911891567,-20.788535181900073,10.732101319537822,28.544701709765835
3.2312499,-6.885926474819764,-3.8956211650967747,-3.633210585693971,-29.630227358453613,9.117247577737533,24.314677069653108
3.2412499,-6.712821408127156,-4.003286219208736,-3.7072544887542778,-36.945514966165476,7.625792829626188,19.729303138225287
3.2512499,-6.654670299152436,-4.215635548645942,-3.7098029417316334,-42.470804838770086,6.209626120423938,15.511793569028042
3.2612499,-6.614191087235365,-4.516742726631173,-3.639992220552803,-45.53353522137117,5.129353547375839,12.394311032577711
3.2712499,-6.592138504069117,-4.787207690085724,-3.5937706743472018,-46.04539386516822,4.040556329475286,10.812013009151375
3.2812499,-6.643312717490145,-5.0196958903288404,-3.617535032209234,-44.4789973939994,3.0077262470544572,10.83922431702316
3.2912499,-6.756691922013562,-5.214595382569989,-3.6884278867984968,-41.297564025861256,1.7935293702681856,12.315915602087257
3.3012499,-6.787978587501077,-5.404415018234058,-3.695957293224377,-36.94828867182497,0.1778689178549511,15.0587330206871
3.3112499,-6.735796291426201,-5.585072298983338,-3.638185005447598,-31.744961539859986,-1.402487928502413,18.628389584224134
3.3212499,-6.786083825700427,-5.6587806324461996,-3.594306041222583,-26.425820932724736,-3.0791534627202988,22.47116059213334
3.3312499,-6.880807696795236,-5.633393306486822,-3.6440479087748425,-21.721244182572164,-5.012623988832001,25.912744981781064
3.3412499,-6.873168594520801,-5.554299282327875,-3.780343191733862,-17.613444268968323,-7.162159684845069,28.465779687788462
3.3512499,-6.752302966144122,-5.424044650398979,-3.8990749586203415,-14.787174469730965,-9.697058483174743,29.852122123110796
3.3612499,-6.6192485645431685,-5.21878630844256,-3.9685179824866257,-13.921551582488295,-12.548493514402864,30.112487390996517
3.3712499,-6.50631483423182,-5.021525281524728,-4.018718569071721,-15.283862261716303,-15.441243946691289,29.35345589615077
3.3812499,-6.35705414212082,-4.912088687473636,-4.073042343300567,-18.265337235525383,-17.945171525632823,28.181276218727362
3.3912499,-6.25126324438766,-4.837407189665599,-4.155262067124934,-22.773453291136203,-20.10100696403479,26.861223396434905
3.4012499,-6.195187092083607,-4.7435266036540895,-4.227284849857925,-28.762433077820447,-22.0824652424009,25.24096010970083
3.4112499,-6.078515572673964,-4.644435905719035,-4.266726205115199,-35.45421858086209,-23.82847497511818,23.388037054058977
3.4212499,-5.894895977928344,-4.588082741311985,-4.30092204040502,-42.312719973183995,-25.132749309406634,21.019489329545753
3.4312499,-5.723384842406203,-4.60056795652297,-4.306781753701537,-48.736752723663606,-26.024640915642642,18.409144873888803
3.4412499,-5.62298454701843,-4.653769037203951,-4.257477571696529,-54.0450351749999,-26.859475065233358,15.579418696752496
3.4512499,-5.550603758364787,-4.715520490547612,-4.160534673995209,-57.73900230045976,-27.9265129482282,12.644034752759344
3.4612499,-5.530188237657597,-4.80210028885146,-4.077837466495898,-59.58367425103572,-28.974634727259577,10.00430890262388
3.4712499,-5.653262337841566,-4.911953604198998,-4.06937626913814,-59.95839954637425,-30.204899457472052,7.78387577424888
3.4812499,-5.859250245448818,-4.976521344660117,-4.061794843985119,-59.265995918397216,-31.708109471156455,6.018380745081089
3.4912499,-6.045058431507415,-4.993135013436573,-3.9803094077461325,-57.59420536919073,-33.317750901848896,4.573718558005207
3.5012499,-6.260487675939242,-4.991850134172439,-3.9225460340644838,-55.480728288134095,-34.82541913650694,3.601049574333579
3.5112499,-6.591753149905566,-4.99726828658176,-3.906456826543639,-53.52379462157379,-36.00772183268452,3.123184562569222
3.5212499,-7.002134143923279,-4.980116244735091,-3.8258884611247694,-51.88227440227325,-37.002627525456255,3.1816998471067994
3.5312499,-7.417151030300824,-4.9177941591741385,-3.732476720650567,-50.934531775873054,-37.403068129361166,3.501092776126177
3.5412499,-7.814515434783559,-4.832015926390377,-3.739368946238017,-51.005518369850925,-37.092339979219474,3.662869241545424
3.5512499,-8.16878987044596,-4.726991611102869,-3.7946006186089756,-51.803647124839635,-36.67389680867973,3.5066825908395964
3.5612499,-8.415855133114766,-4.594944381586535,-3.7353084257747384,-52.993334398287,-36.208139645952066,2.4712187374974026
3.5712499,-8.519659200369789,-4.4439788202214014,-3.5950886415843915,-54.467586052532326,-35.691388477553275,0.463585246062838
3.5812499,-8.592149734580055,-4.352834345939512,-3.4956571609417857,-55.783401233146456,-35.06050429058765,-2.343675193260884
3.5912499,-8.704543940983783,-4.320391354164041,-3.3919113130697123,-56.575437073612775,-34.533672604678515,-5.944100165350367
3.6012499,-8.77796880940175,-4.280377256612303,-3.3530568208021165,-56.6033919664518,-33.78927708859184,-10.148460987857137
3.6112499,-8.842198404460934,-4.239645419118108,-3.357995257672723,-56.49165826883063,-32.34145356750218,-14.930277335006854
3.6212499,-8.963118476839757,-4.202976326762655,-3.177233887884964,-56.11878789741582,-30.179346186581345,-20.54068616548935
3.6312499,-9.044994896390547,-4.177414697735443,-2.8926861888502193,-54.588047915115354,-27.028952074138452,-26.77849688397542
3.6412499,-9.03787788139807,-4.167179078028815,-2.6955104847047147,-51.397840763701865,-23.414550360092907,-33.41985087004807
3.6512499,-8.970852335539986,-4.275152353869892,-2.566239069937585,-45.3886193349821,-20.21506578535277,-40.32470383483991
3.6612499,-8.943084104352247,-4.3939347842869445,-2.4587064140077364,-37.06106588129404,-17.53628289463219,-47.10056015777021
3.6712499,-9.058416242268525,-4.432894496897902,-2.376134350067113,-27.265378251137943,-15.095869765652239,-53.33437586025087
3.6812499,-9.243046281768969,-4.441618228610868,-2.320591401111735,-16.493140153815684,-12.882862624930814,-58.89019483517592
3.6912499,-9.357350192721979,-4.403130267758964,-2.2583758015480133,-5.810141554929072,-10.756652286726714,-63.654511226531056
3.7012499,-9.356341235057178,-4.356849153177003,-2.187705184004695,4.18084320119247,-8.620141183329325,-67.54960427209815
3.7112499,-9.347733258337017,-4.265990387869439,-2.1691970577348854,13.542874270226148,-7.053828855884805,-70.6277024498546
3.7212499,-9.372049104105763,-4.064941652465728,-2.2855865727542475,21.716808891648277,-5.913988655960228,-73.35328155506858
3.7312499,-9.392225668657897,-3.828674458718079,-2.410107604009337,27.714433911934616,-4.8925647249081985,-75.9529213340882
3.7412499,-9.447468698385165,-3.629602174392825,-2.4183192294907,31.69566439362582,-3.7996941687758463,-78.27248987807221
3.7512499,-9.48888367346387,-3.463510044582976,-2.439227758648597,34.1530108790179,-2.6792979709902958,-80.11799510802436
3.7612499,-9.43683085103565,-3.3120344917408686,-2.5302614269555495,35.29472398467631,-1.665379793485029,-81.42539197415816
3.7712499,-9.298617734385278,-3.2389809130464826,-2.624563108366437,35.52646965841033,-0.978977549756822,-82.11923415442543
3.7812499,-9.153786117572235,-3.2404678661166813,-2.603946542533505,34.97096783805261,-0.5036401464580066,-81.61201783576843
3.7912499,-9.073738262160889,-3.339785486958774,-2.517952430305101,34.121113422379175,0.29571910937827767,-79.80441966379969
3.8012499,-9.032475938296015,-3.501497529068773,-2.533272727917497,33.8797753786536,0.8044980954531882,-76.90382457941968
3.8112499,-8.959252551122772,-3.671998567507831,-2.5901374645310926,34.292335334588074,0.2481674165633143,-72.94126477693749
3.8212499,-8.882144873326773,-3.9024668110968954,-2.588348032147988,35.00883333649989,-0.6601029990269693,-68.12202782109429
3.8312499,-8.927194153320972,-4.106544429330275,-2.6214010449720924,35.844561861917455,-1.7921934564874549,-62.4624873565743
3.8412499,-9.02867112716458,-4.293535210169215,-2.690286777203496,37.020389700958354,-3.567158015976831,-56.33467483576547
3.8512499,-9.045137748370857,-4.581686942583559,-2.747097567849918,38.764051616664034,-5.983322225370011,-49.65089841212532
3.8612499,-9.020748351802665,-4.9009218423476835,-2.831823158532637,40.369083293870744,-8.924345922298995,-42.35612042829504
3.8712499,-8.991474151869328,-5.103341343529325,-3.0232358121052023,41.52753457334117,-12.088952661746966,-35.10688681954325
3.8812499,-8.84821754211792,-5.1709819942712985,-3.2481816936960692,41.38218994376292,-15.21506477307872,-28.678892027202142
3.8912499,-8.55523161047645,-5.22407442582672,-3.3732103714119495,39.85713633489167,-17.98179899726019,-23.48936385075245
3.9012499,-8.258176067674954,-5.27642541204673,-3.439387840340955,37.47949890585245,-20.23190906751442,-19.681726208250705
3.9112499,-8.025907949556714,-5.330358554270913,-3.4951192680750474,34.38794839270972,-22.162412074263898,-17.136311165257847
3.9212499,-7.745689744966881,-5.506252631547731,-3.5132617596100633,31.09322392442465,-23.80721457178652,-15.885341909287188
3.9312499,-7.483102166060373,-5.738743530365358,-3.5872732384662416,28.039939597188535,-25.16546829140402,-15.584759545636533
3.9412499,-7.311104432748365,-5.9360711004450275,-3.706453233607433,25.825932399440628,-26.49342798623835,-15.482864568032554
3.9512499,-7.0991334216714925,-6.083367661132181,-3.750985151031964,24.04968984359737,-28.043463685006806,-15.098011126157816
3.9612499,-6.810386254743888,-6.169612377472701,-3.7596052519344454,22.522210884718934,-29.60237355421048,-14.467445741909929
3.9712499,-6.615872121866352,-6.228168948815862,-3.779916732226759,20.799234468486514,-30.812783469212697,-13.53515858252266
3.9812499,-6.6106502080350475,-6.324306143714371,-3.816630816715997,18.674729290774632,-31.278952421841552,-11.999368069347518
3.9912499,-6.638408939915964,-6.434175392912642,-3.844086190344733,16.286400436147513,-30.971503611288004,-9.941595132426377
4.0012499,-6.493540651864475,-6.495893604223954,-3.786362362179952,13.765316690956892,-30.269456249501037,-8.013627283446217
4.0112499,-6.20076565386314,-6.456457460004123,-3.7338822923742243,11.147609996379437,-29.05808351916108,-6.776385966201939
4.021249900000001,-5.918181036671203,-6.429961926096356,-3.7269548164702777,9.041786825179635,-27.459507649465834,-6.545720094353398
4.031249900000001,-5.740077293430585,-6.562075815944229,-3.680384876582563,8.114988278937254,-25.81624216361152,-6.892464409985617
4.0412499,-5.677082875986043,-6.723839514171992,-3.600711422982772,8.277483167070521,-24.463146654530085,-7.449521497480283
4.0512499,-5.599750227770232,-6.833640236754463,-3.5844940204001237,9.524943069306044,-23.33808525013827,-8.50658462125512
4.061249900000001,-5.4158758866735,-6.928497463251158,-3.6021124041050365,11.339988092496563,-22.084177458457795,-9.402061206674507
4.071249900000001,-5.264717019707255,-7.028894477641048,-3.567426808647326,13.142635144224013,-20.28524579589904,-9.888713663924795
4.0812499,-5.1456647656386085,-7.0438789979702205,-3.5026339041744015,14.761903846811206,-18.099776960532,-10.40092306720493
4.0912499,-4.915694671552393,-6.995938807527551,-3.4428602816972043,16.326492371235016,-15.710294261397504,-11.146535322327633
4.1012499,-4.696605101815509,-6.998124495373787,-3.3390093216422634,18.4435094684181,-13.238194945921324,-11.98875201597248
4.111249900000001,-4.509002143080429,-7.032371750501335,-3.2673066699182844,21.232626643672475,-10.32666853726187,-12.630836716959891
4.1212499000000005,-4.253588659052609,-7.0475002493776495,-3.3637020353352916,24.919073475304643,-6.781143411781492,-13.246829442692105
4.1312499,-3.892119349339761,-7.015908841114463,-3.3512842316929725,29.520884688439654,-2.6507976300937433,-14.199660972549353
4.1412499,-3.411508301587998,-7.032591638531227,-3.1790241710071534,34.92050146022478,2.468492843803682,-15.144380974177974
4.151249900000001,-2.848088400859913,-7.153722505173643,-3.0406192026984966,41.56674177245805,8.644090714210705,-15.54553012431568
4.1612499000000005,-2.3907532961507583,-7.477933249719862,-2.760299970515909,50.83254804079802,15.433806012141774,-15.062940315297164
4.1712499,-2.2340544353209366,-8.086006443242269,-2.308442757835308,64.27746564012045,22.70115766055863,-13.112243406224879
4.1812499,-2.401393951347583,-8.807657319201782,-1.9571202009670292,83.28476440527994,30.806003633538836,-10.07602353216805
4.191249900000001,-2.7640280242441064,-9.621500097020522,-1.648254713670291,109.45591241526017,38.500187959388064,-6.447190272198013
4.2012499000000005,-3.1502296841589637,-10.636726681318777,-1.2063993909385358,143.46611153863293,44.910174484597135,-2.1497539567029453
4.2112499,-3.5836559787380455,-11.669688465593355,-0.7785568489484453,186.87382303948496,50.39429591024217,2.96328602497775
4.2212499,-4.100275493261205,-12.596905879214614,-0.543067775473079,239.67593288592326,54.52607221752235,9.427950834883152
4.231249900000001,-4.6425277260376845,-13.280615528947314,-0.30351119213423283,293.0251671401626,56.73309404725997,16.421976324046344
4.241249900000001,-5.21479198100624,-13.645339407087501,-0.007579345579998933,344.16674099517894,58.38268298522531,23.332827685669358
4.2512499,-6.057426847363107,-13.684068677941552,0.07757837621462346,392.59558200231913,60.02758336362428,29.974428518644064
4.2612499,-7.266676098589239,-13.303184001026617,-0.0743074470387911,435.3117024158013,59.94291437610268,35.945607092592404
4.271249900000001,-8.399365586143611,-12.523631597995445,-0.1905631197533181,468.5414094399941,57.389709209835296,40.73300307987313
4.281249900000001,-9.216679025767288,-11.341189261463395,-0.23573516739367353,490.43050612573956,52.8427240751381,43.48458600446079
4.2912499,-9.785869380663254,-9.746453829332005,-0.018551045272693044,498.3868153959814,47.442311355812215,43.991862963442586
4.3012499,-10.693911649502912,-7.7075476930876645,0.36816997568244586,492.6902911996387,40.626607703819246,41.863981182999225
4.311249900000001,-11.701262960826194,-5.153317516110395,0.46018297219946364,469.534473883214,31.018580356204705,37.78549742893035
4.321249900000001,-12.036887755815725,-2.7264508771982667,0.6713224526975162,428.02640507620964,19.970331124733452,34.12949651964912
4.3312499,-12.396857276923058,-0.4619054403875993,0.9757264374752804,367.3730854916564,9.935392199584047,35.18560075533875
4.3412499,-13.333817495397499,1.1025814523355806,0.879660484646721,291.2414708173913,0.1306103755234041,44.09715776196077
4.351249900000001,-14.128363964535428,2.2771752133601773,0.9787407888321801,203.53477023745276,-13.664726697167378,58.99066175791569
4.361249900000001,-14.198511631405875,4.492444681621135,2.1338293106552184,104.13511187677697,-29.965055002742247,72.39759527269497
4.3712499000000005,-14.666415583818546,6.991023986489141,3.5415584101236726,-5.6085377929720615,-50.91819388505002,76.93760600233169
4.3812499,-15.333510607202175,8.37090807708159,4.0363156044498485,-121.98831951056891,-79.39856456856826,73.16765518461686
4.3912499,-15.144835190681468,8.433164105994441,3.3788511795668397,-242.6732371437612,-107.92624752972316,65.13400017503754
4.401249900000001,-15.160164461027174,7.533632403503205,2.1003601382868493,-371.43732142986755,-135.1913684796,54.613813577664985
4.4112499000000005,-15.099584541882145,6.440312587693338,0.13426120824385906,-479.9590403018601,-163.46997634375026,42.245181789623636
4.4212499,-13.668278824729574,4.650918636991874,-3.1023246061812357,-504.64651377239227,-186.9705413181925,23.601122405351287
4.4312499,-11.504997125283198,2.9663424892929418,-7.03378996914471,-498.3442400688191,-203.9248983837881,-6.369667335265807
4.441249900000001,-9.230862830666606,1.0356878432550622,-10.651483707372387,-500.2234748325138,-215.92175310129545,-46.504257286926745
4.4512499000000005,-6.342480813371413,-2.745166521229553,-13.5003268625593,-500.15640200018015,-217.28550517837925,-90.15815250087175
4.4612499,-3.700714286801172,-6.6828543419431226,-15.324112779657689,-499.8634004315556,-205.71559392322854,-130.42927471950205
4.4712499,-2.1463206874244727,-9.301872248037443,-16.045982799316327,-500.09947443088635,-186.8146449722316,-161.6651004055637
4.481249900000001,-0.6999957459092467,-12.127158638589972,-15.653252309957788,-499.8792747661247,-159.55070355256385,-181.05788009107707
4.491249900000001,0.44264629071141975,-14.887338989399895,-14.123384410213141,-500.067664933793,-123.10935931322311,-186.30992431681463
4.5012499,0.2225301308866008,-15.550511187133695,-12.170300557882062,-500.4709069809266,-86.5074160657006,-177.17266842392164
4.5112499,-0.42687607125622873,-15.577074154181904,-10.178755968959317,-498.0060217179331,-53.3465684378517,-158.46536626497453
4.521249900000001,-0.476349908234898,-16.475613372059957,-7.515053713041546,-504.4999145108563,-20.6860443147374,-134.20758836195057
4.531249900000001,-0.9131678295832459,-17.61004152229519,-4.38553641024368,-484.2964627493093,6.829796326438995,-106.60181758972749
4.5412499,-2.157789861282667,-19.007470512429496,-1.892508709113794,-353.27067000612436,25.28396239812052,-76.56351586975251
4.5512499,-3.4776085791299294,-20.31867470777275,-0.3176764506974046,-161.91647329049079,35.75670576450768,-48.12486476202448
4.561249900000001,-3.58129965370439,-20.870048168136307,-0.42993240728637044,31.11124773879061,45.058598395899566,-22.93188433023908
4.571249900000001,-2.9601528109156656,-21.606989539184852,-1.784873163907994,224.3896975060638,57.02852213798988,-0.4305137746431328
4.5812499,-3.429995744199403,-20.982750709450904,-3.5843204409708282,401.54680167446054,62.25705103588165,18.937150757896045
4.5912499,-4.011405764240047,-18.65576612923515,-5.549149480483427,497.2742332156373,60.45462516845827,34.97181568375571
4.601249900000001,-3.9159303964757943,-16.451020891319164,-7.020241328428205,501.86551470206155,57.408120467060506,46.841384252634654
4.611249900000001,-3.9424134876147274,-14.2952859363549,-8.256440163880876,498.62443343625245,53.97325475805032,54.00576899398896
4.6212499000000005,-4.208395521021438,-11.979105868592374,-9.257459470663596,500.4671362048938,49.56740746224115,56.83517140503886
4.6312499,-4.244261170907084,-10.119146129565932,-9.766218120070238,499.82245699038805,45.87110893059704,56.68976254961794
4.6412499,-4.595755150634892,-7.728445362188532,-9.309807598820898,500.7132299518474,40.60100399520116,55.61932585831216
4.651249900000001,-6.225640861624375,-4.323168604330826,-6.38724718843174,497.8707243097326,24.10807254648737,52.572264281286095
4.6612499000000005,-6.74403752323493,-1.8162865191691728,-3.4033188750346097,503.2467104090561,8.502889071469017,42.385367567238276
4.6712499,-5.6376320519292635,1.7742673709726053,-3.6584785182721125,494.1559271200049,4.073430697492538,25.036857933255476
4.6812499,-5.386124030078906,8.160165026489823,-4.251614105741636,362.96664557339454,3.270193668176937,7.896037703509049
4.691249900000001,-5.649095462687269,11.843851300242596,-3.158598069634994,162.6322707278534,9.400286704259228,-3.848894506304987
4.7012499000000005,-6.644439032655945,11.075042674634725,-2.20513587702031,-9.730384832769284,15.807912437123772,-13.868534391492817
4.7112499,-7.58856897312224,9.745066681419216,-2.0281017521816254,-164.78924901272464,16.36860782587258,-23.780478061149537
4.7212499,-7.546956332435794,8.014682517930046,-1.9347727395048313,-304.5656268346229,11.974554364178474,-33.5739024622369
4.731249900000001,-6.86165645033272,4.388603222366011,-2.0029444112696084,-414.33547749692633,6.098057862408795,-42.731552300351716
4.741249900000001,-6.208845491278591,0.17322660005863175,-2.5888735900373403,-484.9781464695775,1.2525291127727083,-48.35658030061771
4.7512499,-5.939261787311996,-3.6761977773287366,-3.403449928042191,-502.4483771681098,-4.824677135478997,-47.93760877353314
4.7612499,-5.8908768637549676,-7.11228676547428,-4.178939194582654,-499.3896863839929,-12.6061893489403,-42.190319117375225
4.771249900000001,-6.23085013600236,-9.583056807531953,-4.652647560694098,-499.62928939579047,-23.353737056120142,-31.696947371483784
4.781249900000001,-6.4825865387750925,-11.379659025066072,-5.110736312122097,-500.82089075060367,-32.106691765387595,-17.260863369484408
4.7912499,-6.597604221653383,-13.051726544748513,-5.83961316242588,-498.28371704290265,-37.14184517634958,-1.6913151654339367
4.8012499,-6.791972354605907,-13.992768090806369,-6.192128763660542,-473.24246722706624,-42.41410128875116,11.727620547623264
4.811249900000001,-6.704779691991615,-14.007535383486736,-5.71099097273199,-431.8190840786703,-47.49599916466378,20.491571541003406
4.821249900000001,-6.269299539181269,-13.398275772877353,-4.7838109994565245,-386.6409207760426,-49.91945447997751,23.533463446121377
4.8312499,-5.702206938692455,-12.44425712711324,-4.1420648737777,-340.30851152898964,-48.22941671390531,21.36540095817742
4.8412499,-5.283785356798336,-11.907219828947733,-3.772113667725151,-290.94248912431345,-42.92819657756579,16.772897488536785
4.851249900000001,-5.250918035686702,-12.16021174741229,-3.512632607194101,-233.18295906812776,-36.341036174929926,14.323126204211551
4.861249900000001,-5.447686765026218,-12.896264940765438,-3.4087040071456034,-169.4259848646355,-31.73657159493178,16.340032368378466
4.8712499000000005,-5.284782184005061,-13.763369202840972,-3.5390741540640747,-100.219846687956,-27.63271217609049,21.589737709516385
4.8812499,-4.974423188625199,-14.593115182910191,-3.77152396762193,-23.60755186518597,-23.041353784195515,28.265506989092042
4.8912499,-4.8835353601747435,-15.701069360580338,-3.7601295970578312,65.37905886934924,-17.9196967119052,36.83452228963529
4.901249900000001,-5.018394487133263,-17.10121065981119,-3.4105601360242095,166.2754790914741,-13.054266344195568,47.7959216951734
4.9112499000000005,-5.179603394134332,-17.829494391362957,-3.2728183561495023,263.0159861474827,-9.87901167028712,58.63015385464523
4.9212499,-5.239858220031346,-17.735976630557467,-3.473236742039076,356.7822142972504,-7.562886475594182,67.15722752335395
4.9312499,-5.4119368684466025,-17.873207767959386,-3.8801681165067747,452.37734101228114,-5.996814909580684,72.9029363899557
4.941249900000001,-5.547041339613168,-17.47356590847431,-4.991126204064084,501.6669520640032,-4.289972583025099,76.20136424582013
4.9512499000000005,-5.846938835799868,-16.050884363694355,-6.479791434097491,500.31544678038705,-3.9711588782704696,77.46653395977056
4.9612499,-6.204093494761893,-14.56705217488558,-7.655067052348417,499.31616382194943,-5.308066909653785,78.40866926334998
4.9712499,-6.301763698574824,-12.838700894682928,-8.066081361255039,500.3274445461814,-6.068942546080578,79.28928417118185
4.981249900000001,-6.422217800858378,-11.13906833614643,-7.151201414576608,499.8521676638941,-5.095602343860772,77.10848068426866
4.991249900000001,-6.42603685294192,-9.489645270505209,-5.406132826678542,500.279082345563,-0.7875755980830278,67.5156544277439
5.0012499,-6.606836208072544,-7.202002927340754,-3.560787648988386,499.2018828013691,4.717518883531055,49.96847598368652
5.0112499,-7.239457138362544,-5.541354102097189,-1.8128586904078035,501.13792176812944,6.447151033754932,27.328518750575025
5.021249900000001,-7.726483651211848,-4.148100630825997,-0.8061824761963582,498.0038669865268,2.6958404501054845,2.8252478102725025
5.031249900000001,-8.093428895697992,-1.898841878682002,-0.34650939417337934,446.60255216220713,-7.162413872416246,-16.876263554454308
5.0412499,-7.858227780560674,-0.5227854910966174,0.47314533404849796,361.8045253729918,-17.840336915929676,-29.261568463167247
5.0512499,-7.201321963771689,0.19984762869416323,1.3503539907059192,277.7704239519086,-25.597408013321683,-34.947320125154924
5.061249900000001,-6.788851300484734,1.3494720732753753,2.1052027843537724,181.04739784812497,-35.17069013116663,-33.68753458824175
5.071249900000001,-5.918209909521338,2.0188014288984952,2.6955829736114683,79.3303804265559,-45.61598496294245,-27.873265502415606
5.0812499,-4.65466357400683,1.9261392499569794,3.0020132937379715,-11.998873247312,-53.650147176063044,-21.469973566302365
5.0912499,-3.817689190650678,1.5541832513208815,3.023291139393277,-98.1303849139016,-61.0847455644589,-16.601054300311592
5.101249900000001,-3.4974575706795066,0.901187921433788,2.8728541303205084,-176.80710198888602,-67.46682086585115,-14.02359615221009
5.111249900000001,-3.4532907249686047,-0.11112934739699437,2.435137097082918,-244.30633170537448,-71.1783436665967,-14.339624589635566
5.1212499000000005,-3.5000027255289727,-0.9854526744141774,1.7198919831884274,-304.0042580613689,-72.72646929414377,-17.438889462274496
5.1312499,-3.377892003406682,-1.6177171188482729,0.9307183145998701,-357.97052232482616,-71.60664326800978,-22.650015020423226
5.1412499,-3.2025218362552788,-2.3915110944999474,0.18558574916089074,-405.16990514270054,-67.23299500744822,-29.63494389047879
5.151249900000001,-3.2505836353613833,-3.5959157222305427,-0.3101640713268514,-444.2604541798564,-60.98691395034239,-36.646481203920175
5.1612499000000005,-3.413433187944177,-5.268338076250558,-0.5667310310405435,-472.4457237989938,-53.64264020238034,-41.26293530449865
5.1712499,-3.555767896968036,-7.166067723753179,-0.7954847319141789,-486.5273615357229,-45.72813816237003,-42.310713098046556
5.1812499,-3.6840066607706583,-9.145628629541475,-0.8968737527067788,-485.3282603464954,-38.312565253973325,-39.730827285862446
5.191249900000001,-3.8591158145444537,-11.088144507389465,-0.6917949916814656,-469.4152086160577,-31.938649064260773,-33.59288704799441
5.2012499000000005,-4.1984256436543745,-12.78739107916609,-0.40727364295464463,-439.6140306941564,-27.187196466020644,-25.018958733463347
5.2112499,-4.607131325864128,-14.06740268960913,-0.1398360029231628,-397.8651410591948,-25.106389366499304,-15.777351046560605
5.2212499,-4.808119614803086,-14.723591511544445,0.11644788278607812,-346.40952842614803,-24.804914345162754,-7.9685663979646835
5.231249900000001,-4.914059963665162,-14.619189474470183,0.22289488462825296,-289.19792644445477,-25.728841352057916,-4.24701975548017
5.241249900000001,-4.967825050577334,-14.165598415777774,0.10756136225764876,-228.69119823054425,-27.744039531025656,-5.791518447990274
5.2512499,-4.900819031850536,-13.856670663582953,-0.11957540200144084,-166.56751466534794,-30.83353535999008,-11.14783244565379
5.2612499,-4.745656984840524,-13.698808901818069,-0.2146599664995851,-105.88588297931666,-34.31097734696546,-17.729162930483998
5.271249900000001,-4.559537637323123,-13.585398422101395,-0.19893858811021883,-49.36405892481236,-37.13007367894629,-23.353684688085202
5.281249900000001,-4.419336069193988,-13.319213474565172,-0.09801446119888442,0.3405269877290097,-38.488600862425834,-27.025251599618272
5.2912499,-4.27754683782315,-12.783232592547511,0.004186203369101146,41.57864351794837,-37.799508672265425,-29.15195655646957
5.3012499,-4.193171197523018,-12.015494380941858,-0.10077146136397165,73.21813850835821,-36.09466946388942,-30.35309044376379
5.311249900000001,-4.181658074319643,-11.074763417218872,-0.32041007096051016,95.04631393869593,-34.74402024857166,-31.423729464969163
5.321249900000001,-4.0905166675074,-10.239975624533804,-0.510811142781016,108.53543677381738,-33.78284788324099,-32.51667960268361
5.3312499,-4.021202409381686,-9.65238216297075,-0.614960156885586,114.77585147648061,-33.36540911661201,-33.22545487495553
5.3412499,-4.0376723571486375,-9.203244139622702,-0.6174763493252253,114.88956800539272,-32.990756487403836,-33.491986304159646
5.351249900000001,-4.165246075794315,-8.756223206661236,-0.5648654848299548,109.93276086080532,-32.91286900143753,-33.9979741542257
5.361249900000001,-4.286357242127407,-8.351991983305723,-0.5307798332539339,100.90227264798445,-33.81782596862361,-34.699451606751595
5.3712499000000005,-4.2014398266091115,-8.127855307662703,-0.477777256823814,89.17493220026961,-35.62317222302742,-35.36468338806795
5.3812499,-4.047695192069552,-7.811095437028553,-0.2973930757133964,74.14398086465232,-37.96190646752373,-36.198588575671316
5.3912499,-4.02487047951057,-7.375262675438315,-0.12170182271053528,55.95885708188959,-40.228304962914414,-37.22502018490759
5.401249900000001,-4.073543851218762,-7.224419813753098,0.06423241392358299,36.96477781377317,-42.763271111401025,-38.3642065552654
5.4112499000000005,-4.039205351424157,-7.324012370408108,0.37394345952314284,18.02511652731862,-45.8102094189515,-39.23686331252271
5.4212499,-3.9355108913026275,-7.538966947422885,0.6728219050810381,0.5978374917870347,-48.69187187345062,-39.74952303934424
5.4312499,-3.941520093011408,-7.723631786365993,0.9023069956803167,-14.321739081696784,-51.69854811810062,-40.14336149848198
5.441249900000001,-3.9698594432706473,-7.952424446604933,1.1302588331587968,-26.248788027555488,-55.05319889654427,-40.31201643689551
5.4512499000000005,-4.017592994103228,-8.311998217154558,1.5044070498111333,-34.67153033315538,-58.385305045184026,-39.6679507473734
5.4612499,-4.202337031086734,-8.596979595065212,1.9306376412985078,-40.12916827115933,-61.37897819488342,-38.15024142207755
5.4712499,-4.414581191273727,-8.825718287573844,2.14720086623376,-43.02227705681187,-64.55062405627021,-36.161866884240645
5.481249900000001,-4.504639871671514,-8.950511999242313,2.1739132855124343,-43.82383038746949,-68.2471415583158,-33.786594962081246
5.491249900000001,-4.487581326572383,-8.910668678560974,2.1930005953348166,-43.80638674132103,-72.58068467099423,-31.287327987037223
5.5012499,-4.439632898323951,-8.894762676844637,2.128550511375225,-43.44504146403194,-77.15684252407,-28.832269683239808
5.5112499,-4.3998175632951515,-8.85426000733072,1.954765751995705,-43.375658123044325,-81.8792169718644,-26.89599748451148
5.521249900000001,-4.249717905352511,-8.674609715471863,1.9101855956804037,-44.58231847750036,-86.95308647222726,-26.166016178456346
5.531249900000001,-3.9791267876279237,-8.53738438116937,1.9977317415865894,-46.40905813627527,-92.01613849563925,-26.68382005544558
5.5412499,-3.784260784567389,-8.388364968486602,2.0608869516331567,-48.49491557602863,-97.08232722011076,-28.699566512434405
5.5512499,-3.5751049443816534,-8.194333917879884,2.042621755747931,-50.71275220128731,-102.28726916446557,-31.794529471362225
5.561249900000001,-3.358049872663087,-8.102223563924195,1.9718725737196496,-52.45379032255324,-107.81259162981596,-35.16957076742369
5.571249900000001,-3.2854813886089813,-8.033876309635083,1.9001223714100652,-53.50716521562758,-113.70636165309276,-38.79444741388236
5.5812499,-3.31644159574744,-7.823785730088355,1.8630409300849313,-54.5163178224961,-119.67440845650134,-42.6291438378314
5.5912499,-3.360855136364312,-7.631255206206631,1.9365702566032972,-56.312626378687895,-125.32109720107934,-46.278866421723826
5.601249900000001,-3.4187837796424043,-7.69056107079828,2.1499706493675874,-58.12876682683362,-129.7673120001565,-49.12877608232372
5.611249900000001,-3.5706879484874654,-7.80459099516646,2.42977481338072,-59.61211577192313,-132.4665263529686,-50.96736331144595
5.6212499000000005,-3.826948649816085,-7.935407910509849,2.6812601688372446,-60.91039389349185,-133.86459061110816,-52.01184515829284
5.6312499,-4.107961494131108,-8.173909876447526,2.781355011641716,-61.2387921845502,-134.3965294932628,-52.59872850400537
5.6412499,-4.344085702117878,-8.411869382788263,2.715096037404885,-60.645429926640475,-134.72853653847972,-53.05006751554776
5.651249900000001,-4.520863268589759,-8.717062489136417,2.7412970579982385,-59.53985130771761,-135.19014151713492,-53.211975509267944
5.6612499000000005,-4.655522515115222,-9.089426777963464,2.840298082246787,-57.623617218194426,-135.80057524125885,-53.13065944940802
5.6712499,-4.721213717163599,-9.510126879789404,2.927324896390023,-54.63197299556897,-136.33288836283046,-52.9795570711734
5.6812499,-4.820687089044852,-9.862120761319803,3.1211218015716455,-50.17365945221665,-136.63944291895692,-52.661034823380895
5.691249900000001,-5.0375016082205955,-9.934275737748408,3.2385119215520324,-44.73908076104274,-136.85892537041138,-53.00728603973815
5.7012499000000005,-5.3348344668098004,-9.883964992468368,3.3970963719304352,-39.20120470397872,-136.9617746759266,-54.15216817691633
5.7112499,-5.765803825033761,-10.08803355812818,3.8159210168014885,-33.213524181873474,-136.68308674764947,-54.34420099821511
5.7212499,-6.433579658136556,-10.642340206355014,4.208535507701552,-26.899962844050666,-135.73940578440494,-51.504407039167454
5.731249900000001,-7.222304881708526,-11.338115154674204,4.288626244286751,-21.281577962145317,-134.48919036617644,-45.22996187276228
5.741249900000001,-7.606372259646737,-11.735388537472508,3.938029522971867,-18.13572842010483,-135.04780585039737,-36.8666489506851
5.7512499,-7.250986728330898,-11.500162296380898,3.5220114821341824,-17.827372465986,-137.85618240702559,-29.563416717220917
5.7612499,-6.641360815972481,-10.569226569109285,3.416023578341536,-19.595082401075032,-142.13626340268314,-26.627186441322852
5.771249900000001,-6.2466737944299995,-9.401416274890485,3.4995163450735647,-25.541806895446857,-146.70682060137747,-27.72749542133607
5.781249900000001,-6.1177061145553955,-8.646662973318465,3.6820608335445697,-35.67393249558434,-150.56201871190046,-30.988991137391874
5.7912499,-6.064374044732905,-8.410483476252404,3.797864005183264,-47.327916194911566,-152.6884265212271,-33.771155708614955
5.8012499,-5.993191986394452,-8.523550523603259,3.6707543882039606,-58.99519946501496,-152.66115056784844,-34.28038209762216
5.811249900000001,-5.852652665149904,-8.779923418254976,3.25583818493891,-70.16997398540806,-151.71704646718297,-32.1183674056245
5.821249900000001,-5.50551419756651,-8.869257654541045,2.6889305054018204,-80.93287949851182,-150.99837522110536,-27.854900320539368
5.8312499,-5.087706419325536,-8.690204848399247,2.210808813939737,-91.82516774915483,-150.31165176592964,-23.037419671561118
5.8412499,-4.801709371553933,-8.24395701287565,1.8395934674605363,-103.45701602320543,-149.52382410966473,-19.378761767618172
5.851249900000001,-4.758194890338671,-7.69555656047929,1.473598206491025,-115.46425417785392,-149.14560071358952,-17.972293974002678
5.861249900000001,-4.706637060127422,-7.23197286876597,1.0458243411828934,-127.42171138023744,-147.91112359844465,-18.43768917521561
5.8712499000000005,-4.522575129459864,-7.0736316742012075,0.7006972342843593,-137.70321606204462,-145.45728292681042,-19.090096703055877
5.8812499,-4.345731522571942,-7.275536124475253,0.45490388809380466,-145.36025284458026,-142.24907654084706,-18.459525759370795
5.8912499,-4.213788849854443,-7.442091788783885,0.18974912897921306,-151.02083116113047,-138.38341193123358,-16.03445972408275
5.901249900000001,-4.072734542650954,-7.39570457074988,-0.03667598360383392,-155.1912095202636,-133.47954684172237,-12.010429582946864
5.9112499000000005,-3.955454526715783,-7.438016609079077,-0.12083744751334889,-157.2425563361928,-127.43815311386574,-7.095184339701218
5.9212499,-3.9853938646778544,-7.568102227287454,-0.09586871907378368,-156.07298896433534,-121.9482930324696,-2.5620188256863803
5.9312499,-4.106882130581775,-7.560930545575186,-0.10430154794546288,-153.26744634825357,-116.43206240680499,1.5997631636017324
5.941249900000001,-4.574865175124819,-7.986111648495715,0.05505999055266731,-146.60245681990864,-112.82933522998161,5.813962989413657
5.9512499000000005,-4.382577779260689,-7.797495290996442,0.3504013203192545,-137.27374637192696,-114.02692518245513,9.565936076276673
5.9612499,-2.1537669479029122,-6.000975135327202,-1.2492378765242962,-145.10041091155142,-94.6565473057698,14.504820886056862
5.9712499,-3.285020443037058,-11.328171475394168,-4.302575921387989,-110.84485193166628,-54.77518629136895,24.724534909095503
5.981249900000001,-7.72164416349761,-18.02687547334413,-5.426027178934652,-1.8371582033591314,-38.73610156979338,36.34155401991402
5.991249900000001,-7.201643042862709,-11.211943292465149,-4.819692020130933,46.31174028756572,-48.759804113853114,43.23739669301346
6.0012499,-3.8761881881335882,-5.316543423256881,-2.673133758074292,33.55530146271405,-48.7848513778458,41.86501371159915
6.0112499,-5.254374686726789,-6.033825760083411,-0.4152819056996028,20.93457733866917,-39.751664188899944,36.34420646389966
6.021249900000001,-8.331260237315384,-7.050235442743711,-0.3973551359415162,2.303236780009224,-35.64405115583893,32.82262790701756
6.031249900000001,-8.577319261184954,-9.028580994941784,-0.5820379524431277,-4.489630329624906,-32.6763971945813,29.998748208762603
6.0412499,-7.297553450691968,-10.256371107765158,-0.6984751687432312,3.679707527929816,-25.84140103963206,27.186159956602065
6.0512499,-6.729871952001183,-9.467934164144785,-1.6873367333854843,7.810907949027263,-19.531663603262384,26.405487168956295
6.061249900000001,-6.3071196492527495,-8.282304636099468,-2.470722659901445,4.938140716287312,-15.429103775455506,26.021160913641364
6.071249900000001,-5.002466096663224,-7.423158489558276,-2.6702336746861572,4.492494090064133,-8.836842073867006,22.813451985074085
6.0812499,-3.776426145188018,-6.701384435506419,-2.7276875146891433,4.799611150951986,-3.060841231211664,18.482460449538625
6.0912499,-2.9026503177555596,-6.980091545567032,-2.4969372957446248,4.3774855376503155,-0.7432458333661165,17.30380229412463
6.101249900000001,-2.146690107891136,-8.386013988947314,-1.9117347907082856,10.307766977152324,1.2656045626899715,19.479294936949522
6.111249900000001,-1.8062508207906685,-9.768562915079384,-1.491164899981918,25.30709073420385,5.480072025824709,22.263800180993908
6.1212499000000005,-2.1762877315933657,-9.877992443773044,-1.5943098041847532,38.235148295423826,10.44124691528889,23.967258381182937
6.1312499,-3.127118454537966,-8.803892609630708,-1.3342847835354836,33.897907075489094,10.912460701657395,24.689384102916105
6.141249900000001,-3.3230604054811232,-8.647524300327108,-0.5381018734324812,20.294482393198756,10.900561615708472,23.563626671611125
6.151249900000001,-3.1525377032504514,-9.21985419514322,-0.44285194296128105,7.499427227392283,13.270606206770847,19.73756509036736
6.1612499000000005,-3.4849032422649975,-9.428497766284876,-1.1325181295744238,-4.221756277164814,15.569427784726502,14.167568728348465
6.1712499,-3.6311289370067255,-9.409023961686591,-2.0071273951987356,-12.09424715592154,18.839203045677582,8.487829584911344
6.1812499,-3.6590872256916787,-9.014075327336947,-2.590959349216534,-16.05488568201577,20.162681735332946,5.091077757938884
6.191249900000001,-3.5169617370810564,-8.50082841402992,-2.4528762725739033,-17.304430287303425,17.430421450218496,4.238589376271158
6.2012499000000005,-3.2438359440047857,-8.465571431491417,-1.9586331262602494,-13.909343111635902,13.90509930138956,4.8204076771772995
6.2112499,-3.2465507976007255,-9.069509064837627,-1.638762611512878,-6.328014652362668,11.092427847583966,7.693872829745932
6.2212499,-3.3838479128884074,-9.671552856917296,-1.7061697052841416,0.8358249260378828,9.896104799172782,11.550675277422174
6.231249900000001,-3.545407459455128,-9.524061568946971,-2.1668517850453126,2.922799940668975,10.529273392348212,14.042171995551637
6.241249900000001,-3.6282890370838112,-8.936652674591118,-2.710676445096001,-1.0151808192554208,12.942574312570855,14.03488675081056
6.2512499,-3.746986928630977,-8.546347243384686,-2.9025197847049666,-9.448303662634467,15.751444816910094,12.412837421152288
6.2612499,-3.683863446981315,-8.556170108577291,-2.7085426321490744,-16.542278489714796,18.980828016907175,10.790641137676463
6.271249900000001,-3.5119181843709733,-8.607471440132505,-2.670583063879617,-18.820548760900454,21.846499365862982,9.595843354759342
6.281249900000001,-3.6087956551727034,-8.210147889710852,-2.6158944877403187,-19.95209075092702,21.78158063362612,9.150028207070717
6.2912499,-3.879490431433317,-8.061721844576784,-1.8933512274060331,-16.30468285272862,19.14273182837102,9.119763563721163
6.3012499,-4.122208648587801,-8.322319939691315,-1.370577636770841,-6.005035590113428,15.346971744277244,9.971120301363817
6.311249900000001,-4.159714449685358,-8.424362549926851,-1.59949997982779,5.5471513436020965,11.24307279587023,12.16167715714498
6.321249900000001,-4.286388148502452,-8.396065269027943,-1.9324697467647989,14.711599811184952,7.751949556523509,13.633201370970626
6.3312499,-4.714313773441041,-8.23294913963177,-2.1319470331950607,17.761003323056183,4.454459118019928,13.89580805317065
6.3412499,-4.770621653010961,-8.15495028072387,-2.0584840908962945,14.097751472330405,0.9213792056708375,14.794837920212363
6.351249900000001,-4.269700232463931,-8.673229338056222,-1.6794716966063905,10.276393978374376,-2.3792427892766117,15.998143690741916
6.361249900000001,-3.9442357621132453,-9.174253205855983,-1.6429088633278857,7.9874696657100275,-5.303330705276566,16.415686728604825
6.3712499000000005,-3.9393516138274305,-9.256175761912667,-1.9161900107898429,4.625340140411593,-8.567388962701013,16.760501593022543
6.3812499,-3.877485879209652,-9.30807215814692,-1.9444295910746199,1.8255644502821526,-11.508705187093998,16.817006937091282
6.391249900000001,-3.841338546786309,-9.361219117654272,-1.6075819519619299,-0.9899814348805611,-14.656724690370734,16.625049258625175
6.401249900000001,-3.8144762852588032,-9.634119711443534,-1.0002697899893347,-1.6250269135571374,-17.56770394367867,16.084631451271687
6.4112499000000005,-3.741816099234485,-9.774259836545259,-0.7152823172419271,-1.2003607426666332,-19.94625321840627,15.087246751614332
6.4212499,-3.939844367350844,-9.514674793218454,-0.7782101666393872,-5.598100436676145,-22.88547978226687,13.838389236375965
6.4312499,-4.3377713376634945,-9.518245431930795,-0.6791513553655754,-11.193045121309968,-25.60435957232282,12.15604954345921
6.441249900000001,-4.546161170448592,-9.710943899903528,-0.5729810125687554,-13.139533095558122,-27.25417033829274,9.510489484887893
6.4512499000000005,-4.712247799739336,-9.355490167061934,-0.6187601761648432,-15.331382329814538,-29.589676315745375,6.6398024399976
6.4612499,-4.7973549495612335,-8.895842137335334,-0.5985298521090262,-17.936374843616427,-32.64790998798367,4.267971307975601
6.4712499,-4.635908039011733,-8.903339061786681,-0.4106856443185502,-16.80553538237297,-35.3563337080294,3.031709181741694
6.481249900000001,-4.584488731497289,-8.911239560413161,-0.3670319449660958,-12.305555418192775,-37.441525509058344,3.294843808248168
6.491249900000001,-4.550443272999641,-8.597031272225726,-0.8032839920810281,-6.596418055302643,-39.43334562669102,3.4926382085562033
6.5012499,-4.12829322196397,-8.176363111432634,-1.4783708395976596,-3.5058295173220784,-41.07879438566632,2.5738167005688677
6.5112499,-3.7614329767138566,-8.257936199195298,-1.7851799405192856,-1.9687010215639347,-42.01179088913215,1.046800404786772
6.521249900000001,-3.6676224746576542,-8.675840052972713,-1.6498995563468712,-1.1085283891279767,-42.71379679813158,-0.7211514455893347
6.531249900000001,-3.4565470930683646,-8.951503679045416,-1.4270395232591422,-0.8972421106469298,-42.58509843865768,-3.0141752790023673
6.5412499,-3.273397411920032,-8.614403108060563,-1.3800031110347886,-4.567279328020829,-42.151385165026625,-5.3241639947380115
6.5512499,-3.151654322158457,-8.498473681525441,-1.1094523091494863,-8.42850829405474,-42.9209666720485,-7.713676615324233
6.561249900000001,-3.014925010940132,-8.830138900715744,-0.7057202911307596,-8.101291465621564,-43.90723939872746,-9.42788074292152
6.571249900000001,-3.069073133948766,-8.955961808461645,-0.4815316063087362,-5.934707057569474,-45.29951021395348,-10.287034666148655
6.5812499,-3.1619241654599897,-8.815496957761445,-0.5060974249886142,-3.29605067512056,-46.09354090664342,-11.188147084811897
6.5912499,-3.349584826198934,-8.51555608637363,-0.7260158762707637,-1.7901569325256332,-47.24949354786678,-13.092244265457659
6.601249900000001,-3.494965785185941,-8.388284972437992,-1.0661904434438223,-0.8753589367408605,-48.594903253445096,-15.739009631006683
6.611249900000001,-3.437331967794024,-8.453124429657262,-1.2964526613366358,-1.332497711359338,-49.32467782649612,-17.06429520244243
6.6212499000000005,-3.422112990891885,-8.69477063537195,-1.0879611999831822,-3.228813703117579,-49.46851310599413,-17.60164474389948
6.6312499,-3.5713757981057745,-8.78074414529126,-1.0112832673942134,-2.487981775648496,-48.826397452606194,-17.959955215393126
6.641249900000001,-3.5788700800339424,-8.337399199215334,-1.2911885974206514,-2.530328317349411,-48.32993051585082,-17.40988503949399
6.651249900000001,-3.5386425044204843,-8.414105802662569,-1.3633377623046328,0.17854446794086604,-48.08150435623637,-16.826729566426334
6.6612499000000005,-3.7533218739859264,-8.556900327791132,-1.3070742562637545,4.954357057260988,-48.94136306313176,-16.999908340321536
6.6712499,-3.79360484517598,-8.18335184922232,-1.2267670893101978,5.1357575363764,-50.38926242039916,-16.876847380063456
6.6812499,-3.6492492693714116,-8.238777789542706,-0.9974261131627028,6.148587557542404,-51.2830179070724,-16.400424740016916
6.691249900000001,-3.6801299712753845,-8.306438482908026,-0.7948354001020118,7.808672546799498,-51.53553911270966,-14.679255261909823
6.7012499000000005,-3.88090407419122,-8.44445085641323,-0.9055832285929907,9.973477312260112,-51.389266914036746,-12.473836944303159
6.7112499,-4.036055444033057,-8.627386109123968,-1.245663954378444,13.938093973732874,-50.42980438262897,-11.306266021689162
6.7212499,-4.261728369931093,-8.336276174404889,-1.5135399225406743,13.799622697245681,-50.386717626799786,-10.73865545707959
6.731249900000001,-4.313205477132451,-8.286962485662665,-1.454801309850534,12.77449928033197,-50.73638279766863,-9.103578398629569
6.741249900000001,-4.09514912501251,-8.321759330587193,-1.4266664650753507,10.673363436565166,-50.810377397558206,-5.667615250991292
6.7512499,-3.911185899267284,-9.04563231169618,-1.1168305031746344,14.679170083439717,-52.49427676796677,-4.200596787532384
6.7612499,-3.7490972196472203,-9.404869160659603,-0.9088532870761017,22.22841075885072,-52.00541768950621,-2.9821640379499854
6.771249900000001,-4.081422667068992,-9.275661240359957,-0.8969233506871047,23.846156593356714,-51.762156407100264,-0.4254874859423833
6.781249900000001,-4.657115772103765,-10.333025696752127,-1.595912200856264,35.49931274048759,-47.37649829114024,-1.1284400368876037
6.7912499,-5.836130226409672,-9.786263623479796,-3.138878605339209,40.10687129991664,-48.28645349993899,-3.0958562418239928
6.8012499,-5.677804327109704,-8.707613670625815,-2.271196941146879,30.87587361179594,-55.8201337576619,-5.129071456887214
6.811249900000001,-5.031478197188653,-8.993881749185968,-0.05822110388105332,22.808441708501856,-62.77829358246385,-6.437929354356265
6.821249900000001,-5.404600500693093,-9.48600571278252,1.6638342719985386,15.517710774627409,-74.38144446479788,-6.932126624552783
6.8312499,-4.381991920212591,-10.47410394475792,2.791772222099825,12.806917752339976,-81.58858045858156,-6.842247584146996
6.8412499,-3.757313807346256,-11.662871362624369,1.9812986704546407,19.65015049853697,-85.01352103902073,-6.897555772274862
6.851249900000001,-3.9975681899737823,-10.858456357509457,0.9384455200734881,17.19775357425904,-89.4503897846235,-5.700733348564537
6.861249900000001,-3.4797681324406593,-9.552781789665492,0.500129924335968,6.3152190764367555,-90.58406679821616,-4.745644364862113
6.8712499000000005,-3.2659443196811004,-9.15478769505651,-0.09346357235183214,-3.184818790194354,-91.47130762078854,-5.6585826814037095
6.8812499,-2.9637873630301135,-9.144961610857127,-0.44311167225037834,-7.122621653659547,-89.87401061598287,-5.565446774693266
6.891249900000001,-3.26362056054612,-9.082268131006762,-0.8039108724915061,-6.6575147191576685,-88.31671004924885,-3.8772952727611747
6.901249900000001,-3.702968582213247,-9.150911420960997,-1.3133368137749377,-2.7126797081525877,-86.45880701200988,-3.339637696278059
6.9112499000000005,-3.672970699550474,-8.989038889837289,-1.7345545311540755,1.818454227489987,-85.53586205912545,-1.1596357356119087
6.9212499,-3.5370356117265707,-8.352153460625372,-0.9293124074484103,3.8411851636615753,-86.91743877323364,3.0419899919062514
6.9312499,-3.0859448130568214,-8.573738500014473,-0.49686118022347076,9.692230685025256,-82.21149236295976,3.064428476937395
6.941249900000001,-3.358496739082886,-9.026464983611943,-1.4661745768910714,16.465358679664657,-79.64419886405823,1.4473706941846214
6.9512499000000005,-3.85731990572742,-8.754635206838245,-1.4922653947233706,18.008705411674736,-81.5941340458188,1.5263604294685131
6.9612499,-4.177014282569116,-8.173272279711965,-0.11625750701576597,12.965857474681373,-84.12837696635512,2.618799443319408
6.9712499,-4.133261500945727,-7.907046122792133,1.4215614460298933,6.555618643346943,-85.90499567055403,3.408298596023719
6.981249900000001,-3.708816398888722,-8.277021319663758,1.9670860967287682,5.85333752092581,-84.73441067954808,2.7522252827499605
6.991249900000001,-3.756665869798964,-8.980054989699623,1.2385416788679378,11.184545142327353,-83.39203549944611,2.1978151203098797
7.0012499,-4.146696557640062,-9.943681824386791,0.7741460078394208,23.333080030531015,-84.49839870711617,-1.1549082736809886
7.0112499,-4.271626118590067,-9.936491662810317,1.1314915120816305,32.14205799615549,-86.31042053944321,-4.978706011956241
7.021249900000001,-4.135219608593247,-8.161563117015932,1.540432809793828,21.978479188851892,-89.1670877088383,-3.6045764548426957
7.031249900000001,-3.7202232352093745,-7.201119294121424,1.742767799735888,3.8558813578321107,-90.15280770835713,-0.7104317955217739
7.0412499,-3.21805949721956,-8.292881227963104,1.2528109361840776,-2.5423825374309748,-87.35997363553274,0.2185761458216712
7.0512499,-3.413793331110001,-9.894331314783221,0.2910929573036869,6.79948884704528,-84.59457477737142,-1.860409391321532
7.061249900000001,-3.8729684017094277,-9.7269707851411,-0.34477195621314866,13.866688204517613,-81.59444323933732,-3.198253984402527
7.071249900000001,-4.141243033757956,-8.613531330641267,-0.33833953789095045,12.198824222186227,-79.79765369960559,-2.1950643195146755
7.0812499,-4.282127766160028,-8.288389538178015,0.5660998358074376,9.448205334773151,-80.2816739952921,-0.8027722579321377
7.0912499,-4.188436061247796,-8.5672129200535,1.3649763945929432,11.797830234499509,-80.34725935953843,-0.06520171184270683
7.101249900000001,-4.309221126225752,-8.602569085165753,1.3818351878083412,15.807402151073862,-80.76364047303403,-0.24568621775571667
7.111249900000001,-4.177872124128386,-8.353350664841052,0.9476570182874376,17.274779614589935,-79.32879808578679,0.2174364440178786
7.1212499000000005,-3.847521599145511,-8.299973747025096,0.271150300069743,17.749860732034364,-76.88887007130833,2.1878563227813452
7.1312499,-3.8939131901873916,-8.515065689537957,0.012951436046497903,21.58237169554918,-74.86634416517587,3.485978504352146
7.141249900000001,-4.3525422331573544,-8.832671857692539,0.2988423177923945,30.06183119344313,-74.61691241218163,1.7059726428840178
7.151249900000001,-4.820403541426209,-8.960969144191267,1.0630999802201875,35.44446754522197,-78.06996195789219,-0.545625176000396
7.1612499000000005,-4.6013509482913815,-8.77863537940546,2.2590120069751203,32.57391955855076,-83.75387083509122,1.1510663790159208
7.1712499,-3.9617733670138615,-9.174193409685401,3.561940919232471,32.029094199759946,-88.36947960658645,4.618922155872639
7.1812499,-3.8158393063587193,-10.134934639857004,4.122383956377853,39.773345727415624,-90.70120126026728,7.782179777858422
7.191249900000001,-4.118259331390139,-10.18429368142867,3.3181398656106023,48.19829650737225,-91.57109619373514,10.429973120374264
7.2012499000000005,-4.199185181456214,-9.231884671574116,2.1812127467630984,48.639947102563994,-92.57412336709736,13.118677675119393
7.2112499,-3.707189858083242,-8.705334039830333,1.5286485473450637,45.73297493147023,-92.26236071827405,14.42366601647987
7.2212499,-3.2157393090467496,-8.867394908017001,0.8770584634408851,44.47698348113745,-90.11956510663805,13.713735874105637
7.231249900000001,-2.9838282063962605,-9.179468211249574,0.2536176532773014,45.10998742494215,-87.01239661272285,13.264379069637766
7.241249900000001,-2.852718822920399,-9.305113347307115,-0.020194763813191286,47.088265480555776,-84.22414743253326,13.759629275962947
7.2512499,-2.996609148923201,-9.085979763627856,0.20289915434209616,47.33480943615458,-83.09733645197613,15.606133377725367
7.2612499,-3.150804606081829,-8.844881536590385,0.7484894445805796,47.94538205663863,-82.73511038530845,17.289573130711577
7.271249900000001,-3.1588518848074094,-8.507602594319744,1.470392530810678,46.65077817495083,-83.79374635688377,19.350838622415132
7.281249900000001,-3.2237204983296195,-8.320880236247971,2.415344154080583,42.28085159334273,-86.00039068021995,21.335652001156337
7.2912499,-3.2753885146772728,-8.406291653649962,3.2249092172518883,38.64303365759191,-87.76446297869738,21.950023084514324
7.3012499,-3.339693336787745,-8.124603923870565,3.4671165982934173,31.3202730583974,-88.50555532253354,23.10173010826806
7.311249900000001,-3.6965229365373973,-7.651918847850443,3.2110818227191005,18.338286631646532,-89.42023240451245,25.127554627180775
7.321249900000001,-3.9775839736733896,-7.4482183659234025,3.03560277362654,5.421291409608937,-91.92270878688204,25.32417917497399
7.3312499,-3.744006935302195,-7.712322988141164,3.1903398915238395,-3.105694958783228,-96.14106220588491,22.331423992209874
7.3412499,-3.388982407535002,-8.316541218450254,3.7244661716275984,-6.985117569506475,-100.56006036422299,19.37172313136006
7.351249900000001,-3.4648409002102354,-8.897799984021738,4.414309303918706,-7.291327129038156,-103.49478977325806,19.576180014912833
7.361249900000001,-3.5659067749244606,-9.033772381837666,4.621101731902841,-5.908555895144429,-104.00456550082376,21.776207546557448
7.3712499,-3.5816340512127756,-8.880256014381995,4.238442076405762,-3.373023135524477,-103.6050285023199,23.65826529824193
7.3812499,-3.741622560390924,-8.898266969498323,3.6561388514015234,1.3127684527579857,-102.94648086152925,24.31247955627442
7.391249900000001,-3.888176647885374,-8.880066405014892,3.0400480190076857,7.097459523371285,-101.19658086843243,24.377517747446422
7.401249900000001,-3.4163893419668976,-8.64251996579354,2.5873265517975343,13.537603403509474,-98.18080714867645,23.24054754924375
7.4112499,-2.9149479490269514,-8.529827678850177,2.339671170809,19.1799497807974,-95.52054037929916,21.39772256691971
7.4212499,-3.247067812310632,-8.53689380494528,2.3063033262654056,22.561852191720796,-94.31500192184318,20.03527285449439
7.4312499,-3.582846528776794,-8.490046773984695,2.5753437837192097,24.170020060593426,-93.55644745164368,20.013259161302084
7.441249900000001,-3.399760313705414,-8.306439893966685,2.8225524829587534,23.551219616745225,-91.89270312281661,20.9600463410917
7.4512499,-3.529225066925402,-7.8571332295681575,2.872094310284186,19.155207888041975,-90.36765806489225,22.130670667423356
7.4612499,-3.882685359895025,-7.546187429297092,2.8060278210722833,13.6118637149163,-90.28824075813253,22.59864064638998
7.4712499,-3.826379811865096,-7.447546454320724,2.7245366708866565,6.427876832918377,-91.96894252409517,21.477751095319157
7.481249900000001,-3.290640925465384,-7.592365869652716,3.242808028639913,-1.2653871370287189,-95.33464838722746,19.534727209536516
7.491249900000001,-2.648940009759347,-8.024536882632393,4.111989302411689,-5.492186900441924,-98.37383727483264,18.201778201676852
7.5012499,-2.43317635481983,-8.397920172879685,4.601255362628335,-8.729560876918262,-100.33527167187923,18.087079334681285
7.5112499,-2.614381207411579,-8.786062738275188,4.787332650998286,-9.630498140056918,-101.40094210296559,17.839781008488185
7.521249900000001,-2.7046929651457794,-9.118979909847504,4.722239044318331,-7.5251178255245845,-102.57756570537398,17.371983343811138
7.531249900000001,-2.4966453658711214,-9.13493943160074,4.641815342032339,-6.414721491802762,-104.00082460073178,16.557583475381705
7.5412499,-2.2316045358570946,-9.034663316548928,4.918501580386653,-7.080016880248537,-104.89867557796067,15.138968806447307
7.5512499,-1.7711243012291342,-9.084756681530699,5.474756481400881,-9.827345477784588,-103.5535335459776,14.353155174817013
7.561249900000001,-1.4601852421353472,-9.455293600798877,6.0285216770537655,-11.440114447579823,-98.33281658128352,14.964181358949675
7.571249900000001,-1.9058599972753505,-9.825707971363855,6.133851360568954,-8.026462876444686,-90.62006770528134,16.05096621784554
7.5812499,-2.9400262644316406,-9.743129487573928,5.76974890782036,-2.2230735320252366,-83.39273673692074,18.794457425574972
7.5912499,-3.670619314523391,-9.401193522769407,5.261444875455778,4.617142764655858,-78.40018854891534,22.168920477296197
7.601249900000001,-3.7579033333377247,-8.733133190369111,4.80782607234063,8.019955691488887,-76.3879668209698,23.63042298603106
7.611249900000001,-3.1253945404978665,-7.955323972932735,4.770647161897566,5.894628821471412,-76.68714248969648,23.192247773084635
7.6212499,-2.515261281798613,-7.960190565440977,4.823773482663128,1.138213048919146,-76.79871785836666,23.122405697111954
7.6312499,-2.8972001903058264,-8.438102095838866,4.707399312408768,-2.4699255122550845,-75.92570560313102,24.337752440007986
7.641249900000001,-3.062953714129679,-8.432875788329593,4.620483714333137,-5.624822106524395,-75.03703270501109,24.913112651715675
7.651249900000001,-2.7765354591030604,-8.393049898475239,4.834570562574899,-9.442969539013015,-74.23175185341664,25.196085397609803
7.6612499,-2.7742443676696156,-8.668614404080879,5.287948431330102,-11.947480401735064,-73.02644108479167,26.10273494430069
7.6712499,-2.801672169655568,-8.834827740957206,5.527947693377463,-13.37744890751862,-70.81094871535258,27.46452227464726
7.6812499,-2.624307403973739,-8.808797962091981,5.617007281878396,-13.94133997608736,-67.70224422676425,29.095132852545884
7.691249900000001,-2.2003329099353857,-8.711270853761283,5.596728833521919,-13.679023020868776,-63.67478035630998,29.50587999399391
7.7012499,-2.243509882824984,-8.504869158519323,5.41662635552124,-15.093440240682616,-59.187203030970515,29.83832212564935
7.7112499,-2.592690750231144,-8.336786011648487,5.089188922011853,-17.318540870278113,-54.478972774538775,29.807367470304047
7.7212499,-2.748630512198466,-8.116303241396064,4.593391686617191,-19.778427747834012,-50.183702344037975,29.87304483646885
7.731249900000001,-2.5003258572526854,-7.694935332820447,3.9739496066879485,-24.22699793577834,-46.68202711806574,28.615618288615202
7.741249900000001,-2.3423982623679986,-7.205585584422817,3.4835088732989514,-32.301139926718385,-43.92335203016522,26.007309597679747
7.7512499,-2.522423169272034,-6.935327074825285,3.2826765559015123,-44.03020266578215,-41.84629859339694,23.97505130769096
7.7612499,-2.736852015479237,-6.747681782214839,3.207953680196358,-59.872498726884125,-39.19950050628027,22.91680998037641
7.771249900000001,-2.9915785901988268,-6.623186873006636,3.1830691921003385,-79.8520677111036,-35.98514709266078,21.950721676873318
7.781249900000001,-3.2996447135132234,-6.796781733191459,3.267474916172277,-100.62569763503845,-33.193693489005355,20.195382253407615
7.7912499,-3.566605478960605,-7.1218525518529905,3.1856026853512085,-118.10716702717704,-31.430386716347872,18.449053544468388
7.8012499,-3.559540822354912,-7.503266783786387,2.897613731744956,-130.91072316685967,-30.106998805393868,16.485918032178
7.811249900000001,-3.5027458104396123,-7.950238227647087,2.835796108081465,-138.28931591088534,-29.329732045889404,14.609745197747928
7.821249900000001,-3.577366523925425,-8.2518670364419,2.9950574403686554,-141.77749832051256,-29.35519140015049,14.526104487550814
7.8312499,-3.6522993379348785,-8.42789853846435,3.1977194760742655,-141.39112128203513,-29.234772026498533,17.78043923200988
7.8412499,-3.5936408389781396,-8.581175045406765,3.294637136389622,-136.9879451750552,-26.575160087412605,23.507733581298947
7.851249900000001,-3.5559813991680262,-8.686162099011561,3.214566518978616,-128.94134171952007,-20.89292333607677,29.119077691150906
7.861249900000001,-3.6837726308052194,-8.438672118968105,2.98012091257723,-116.58004668184788,-13.427578357248308,34.65698852484623
7.8712499,-3.836650891582989,-7.930431445317853,2.5043683292101973,-102.64497022651031,-3.80756676773937,39.635267694924615
7.8812499,-4.00845891315692,-7.547323444543547,1.9411044523896008,-87.98593577360822,6.50989570802902,43.68443150358271
7.891249900000001,-4.168818170188703,-6.988181944289831,1.2742765594820458,-76.1613614692258,16.38753854671513,46.8823950837613
7.901249900000001,-4.375946605797808,-6.247507056537965,0.7488022175803991,-70.55842948272601,24.624520821989144,49.96915863736107
7.9112499,-4.450140526584618,-5.776928286795855,0.58429183139873,-70.04982838350995,31.845722071643543,53.859018442319595
7.9212499,-4.354338636147776,-5.404060065297726,0.5761872631493773,-73.15528136663828,40.08389837746168,58.32455020881305
7.931249900000001,-4.400375418435009,-4.830474488494768,0.5717162444110003,-80.53872102120665,49.10966405301457,63.41244368265916
7.941249900000001,-4.548674091043236,-4.399662602027683,0.49922802354045154,-90.41394996399015,58.24664509906161,69.13286702203966
7.9512499,-4.691565908296987,-4.303710201101324,0.29202124480528685,-100.8031321985085,66.5103273534338,75.42198731785568
7.9612499,-4.921120422955358,-4.425550331524438,0.04208368901771617,-113.09872301949267,73.3423962909939,83.25457510293809
7.9712499,-5.2379412048252325,-4.592855313235247,-0.09389382369189493,-126.34915525524005,79.67930440743935,92.18125881914426
7.981249900000001,-5.703715417112086,-4.669326238411425,-0.2391423527230816,-139.56588999955386,84.5702695576241,99.65298905532653
7.991249900000001,-6.206485190421499,-4.691167934091831,-0.412015044905371,-153.3314294325152,85.59629621601594,104.91751529459398
8.0012499,-6.313763462513802,-4.67033717944256,-0.6059356268319711,-167.87981258900714,84.68629439322075,108.80801026674398
8.0112499,-6.2663364741875425,-4.75355574676381,-0.829743397287326,-183.29221144548748,83.68013939110985,111.67635810204922
8.021249899999999,-6.492105972685249,-4.991489012185272,-1.0503738880285851,-197.97442026371868,82.38382660841894,114.46560690508974
8.031249899999999,-6.924022136082225,-5.324444713248484,-1.2519127683052138,-210.20793875584442,80.7116604901393,117.66069912112337
8.0412499,-7.3294108207302795,-6.007514090512674,-1.3035706734929733,-217.8634925809839,78.43030891730022,121.72641938409168
8.0512499,-7.547366085378022,-6.673312539735717,-1.190170512516771,-221.60802777460228,74.88301607215615,127.83020621175993
8.0612499,-7.574930907506304,-7.251571997121623,-1.25921058022456,-222.20173990545499,71.18732946254337,136.1519679440688
8.0712499,-7.959181239233368,-8.125062633356057,-1.6101323667709466,-220.40044866273163,66.36820613781606,146.55988300869865
8.0812499,-8.715484302284299,-8.86423807503327,-2.011173965846679,-215.60157618287045,59.71866877589571,158.2732092087363
8.0912499,-9.28340251740905,-9.118505713674132,-2.3573733070483,-207.04239514120417,50.96673741102349,168.50201810565335
8.1012499,-9.433788698974015,-9.260662662050569,-2.575094744313448,-193.65396122279301,40.6546203328591,175.52700698109834
8.111249899999999,-9.274165408603576,-9.409069737663398,-2.7116429769803734,-174.96034554238173,30.9272050713329,179.80365358633333
8.1212499,-9.160579403185553,-9.63089821088187,-2.8458893952071804,-148.24425939437631,22.26051285509214,182.6767032595481
8.1312499,-9.0562409585632,-10.170272887276417,-2.9088896385162264,-113.95892377750366,14.838348768168057,185.4057896221876
8.1412499,-8.794508323897949,-11.157976744232826,-2.5732837643593562,-73.25949024943225,10.660800810280648,189.3904547460433
8.1512499,-8.777508677781016,-11.925563196390163,-2.0373274813745454,-21.932811090887558,11.310027387956715,196.48917146718844
8.1612499,-9.16479348393012,-12.084783662643115,-1.69922473956953,35.34329025121078,14.389368769155439,205.59784005212072
8.1712499,-9.390784951251456,-12.427258534526814,-1.6452854889972894,100.77194327471223,19.355990761172226,212.90793995355597
8.1812499,-9.111442559130408,-12.360292382747039,-1.8410568136546692,169.24537921743143,27.434074339196794,216.62043980914405
8.191249899999999,-8.557305736628145,-11.829130101865296,-2.149708728533591,233.79031827390287,41.09927342823871,217.55277197303153
8.201249899999999,-8.496309545907797,-11.0938265627655,-2.5930784290673223,296.04420475513615,58.40583102984923,213.02910696044074
8.2112499,-8.658003039381581,-10.130365322259397,-2.86125868025895,347.17506325570247,74.1128819161538,207.9030327943227
8.2212499,-8.448237539452647,-10.806347531619714,-2.435657185480291,387.5350832551549,88.75330365789489,208.8122097040827
8.2312499,-8.361541130298427,-11.495011737730168,-2.031739780003268,414.5387210275712,105.0806662867603,211.77026607664718
8.2412499,-8.57803960121714,-10.190716553978858,-2.279080590902845,428.62234947926123,123.80311793689769,209.18078619361285
8.2512499,-8.711734324222384,-8.100760015943973,-2.7822181774102597,429.63297666746485,141.10396948840634,196.40590217080418
8.2612499,-8.818566974612446,-6.065667505770769,-3.1854673413783194,413.008648643342,153.27590478784003,175.8456007316681
8.271249899999999,-9.411330306265793,-4.581956977457403,-3.2145713079130207,380.71400054824056,159.30488532749047,150.53800606702413
8.281249899999999,-10.648598110659755,-4.133488899275041,-2.695899146046883,337.3299725281602,158.7539396981234,123.50429940895263
8.2912499,-11.96247980484711,-4.014297484880192,-1.6450818172826043,289.26174308629487,151.38060531119305,102.83473741390982
8.3012499,-12.857838480211624,-3.3070324716731445,-1.022601412470807,235.8716845495335,139.0807697210198,87.65322355025042
8.3112499,-13.31395983528559,-1.9674053018110134,-1.3466175228193429,173.36020589549452,122.83583294937989,72.91400935871191
8.3212499,-12.994161177232916,-0.7607250707441133,-1.8224192286847087,102.07700826886104,103.34720359082914,60.98925209042293
8.3312499,-12.131669138178337,-0.5548707569706857,-1.9291773211447174,26.966253254355983,82.31536723058338,54.64530228299665
8.3412499,-11.599188927771765,-0.6607638378292177,-1.918417960891901,-46.76309769878863,62.98523668292916,52.04312276643141
8.3512499,-11.913464121704079,-0.36805057781957135,-2.3890279539413166,-117.54789518301426,45.25770878117529,49.288205404211745
8.361249899999999,-12.412668039561717,-0.25257251470673536,-3.3287279210407585,-185.89131607743502,28.30400481966252,45.449617915017846
8.3712499,-12.540123788091355,-0.6767339104417748,-4.413314690453947,-247.6267648659672,14.680846190959377,40.252685310382894
8.3812499,-12.595600126727204,-1.395766257160552,-5.514656170660736,-300.8056753397389,0.6147757464102045,32.24498682711933
8.3912499,-12.00766362696663,-2.7937377044877714,-6.170675213742478,-344.8919857508199,-14.301742310520446,23.507055572316766
8.4012499,-11.069419121794173,-4.628113784387852,-6.212201561628908,-377.70585866024203,-25.751615026967055,16.396725574191372
8.4112499,-10.278963776645185,-5.8211486808194834,-6.240293033728884,-402.3148366151022,-32.731598679364446,11.026463357247964
8.4212499,-9.43463069044634,-6.736163972703452,-6.305281538627888,-418.49789640314117,-36.558202114524136,6.954456978334124
8.4312499,-8.679559485374307,-7.45414351313856,-6.172088085156629,-424.88039526876696,-39.55222246495422,4.283713755196168
8.441249899999999,-7.963554743255122,-7.674853004358088,-6.32279941434847,-422.8479554649053,-41.55909178849669,1.556848855146983
8.451249899999999,-7.404582125582486,-7.86182270180689,-6.568261937733787,-412.0589824161458,-44.36373202949551,-2.0535053586407837
8.4612499,-7.082541374942873,-8.051099773735116,-6.297503973273486,-393.0005903239843,-48.99377597649375,-5.7388107902347105
8.4712499,-6.791073546549469,-7.875821987831636,-5.891033026641421,-368.14248264628094,-53.34580201458616,-9.926700333588633
8.4812499,-6.589431677591737,-7.320972074796192,-5.817183708690208,-341.1322026334673,-55.267031989407926,-15.775796549865106
8.4912499,-6.82032990195361,-6.706623758703587,-5.82074520334751,-314.9496225538641,-55.898870082370536,-23.43762635711491
8.5012499,-7.235399520300028,-6.070085633666357,-5.682311233679558,-290.2559813921827,-56.42481734807541,-32.57228447873155
8.5112499,-7.364051340652356,-4.950198261545866,-5.5677835827856414,-271.06566032611744,-56.93401380880168,-43.08731772714971
8.521249899999999,-7.327061162002499,-3.668329123911289,-5.880691135016659,-261.24854074782604,-54.4618491980075,-54.926254021642656
8.531249899999999,-7.597044815213898,-2.913914624204722,-6.193215567837221,-258.1420172093435,-50.35119782044662,-67.48058940084366
8.5412499,-7.965537505683433,-2.491974520991221,-6.211037020631206,-258.8976851811155,-47.410376155531395,-79.6628068139382
8.5512499,-8.046966647892289,-2.3521898673816883,-6.362911401771493,-260.7817773203545,-43.71436338734486,-89.77902674140263
8.5612499,-8.043893101865299,-2.665632797961321,-6.563449126490391,-259.4510171287496,-40.533767460079396,-97.46628104168707
8.5712499,-8.185779574295816,-3.0646150720223857,-6.955241964328719,-254.0343207748085,-39.010242637889256,-103.05600744827063
8.5812499,-8.464654640488405,-3.526667728597384,-7.280849109408707,-245.05451356074875,-38.70934794933994,-105.75809118047594
8.5912499,-8.489272002996467,-4.016505381540568,-7.005982424240455,-231.45083389346826,-38.94420482757117,-106.22317081048446
8.6012499,-8.17949664134979,-4.167322347495286,-6.6214515809288725,-215.5312237603324,-38.766140678495105,-105.36053806311902
8.611249899999999,-7.783422109401727,-4.129830416838124,-6.387084849743725,-198.5427945268274,-34.93389144181635,-103.11282203393735
8.6212499,-7.5786846279657105,-4.099161018684908,-6.050110947752115,-180.58671521872873,-26.765535157277995,-99.72124876001911
8.6312499,-7.6390571231457445,-4.114474137355923,-5.6709317655726075,-160.59953896396976,-18.677920547785487,-95.89567720208538
8.6412499,-7.281806842963426,-4.136041202448215,-5.383236339550693,-138.0875455317514,-11.188382520364602,-92.00918038887067
8.6512499,-6.556764767284887,-4.2505180995173255,-5.080368080442632,-113.57441873968399,0.5322539437839391,-88.639151298154
8.6612499,-6.615460501907059,-4.4203525991438815,-4.699312480086837,-83.1191343699719,12.870510695965685,-86.42009206609349
8.6712499,-6.753559753846263,-4.8577252313019486,-4.520587112349005,-43.894901158140556,22.012413131438645,-84.76298907005754
8.6812499,-6.1970486907218225,-5.992296472599257,-4.391139320043301,6.677703692565062,34.22703334691217,-84.53493172955362
8.691249899999999,-6.307624855104303,-6.6656237702056425,-3.857347917832185,66.34704926956684,44.64674391118539,-85.58050795880547
8.7012499,-6.200085033226543,-6.73703676866354,-3.2522799683832835,129.2285247010468,48.53385010229497,-84.3126128810999
8.7112499,-4.839208118618514,-7.970013015670106,-3.1778070048466627,195.88990333284127,52.94706454618668,-79.17091808263919
8.7212499,-3.9803302902056816,-9.456295862274388,-3.4122585915184493,264.922661990467,57.92588757483038,-70.48825659726522
8.7312499,-3.960133194831517,-9.394809161618644,-3.6101242781710963,329.82158624136684,61.86634655480393,-59.56323249359934
8.7412499,-3.763028183456995,-8.938810884360898,-3.914559310334824,388.02254055187205,67.0495209772461,-49.010674993584416
8.7512499,-3.672016616522815,-8.8294086394482,-4.406034739893113,442.32635569587677,73.07300671472339,-40.55399404906246
8.7612499,-3.922801736147342,-8.387096205398107,-4.754089398021207,487.6000937881649,76.95301876173457,-35.53757044214487
8.771249899999999,-3.848337431588818,-7.4228017550294565,-5.013076002502594,502.0237577221824,80.223028697202,-34.70343557380806
8.781249899999999,-4.035293213071324,-6.1988998123518595,-5.391843830494631,499.1288822912939,83.35604886086277,-35.66279618010967
8.7912499,-5.217831924719683,-4.855724739379124,-5.547823584184255,500.2767014106425,83.69563136204923,-35.38663348657768
8.8012499,-6.891801578919719,-3.388516844786747,-5.296910642942867,500.18885891806445,79.61781334417304,-33.40451999985924
8.8112499,-8.355949744740904,-1.7372101863151876,-4.906006589099303,470.3815913176052,70.87550160214609,-29.09250018381229
8.8212499,-9.29373156241217,0.3598841743073913,-4.416021477421459,407.14203641113625,58.35845866637989,-23.120472290218032
8.8312499,-10.036063493931344,3.103387251909145,-3.508601283265895,326.1440190541221,39.60408155610126,-16.847125857083256
8.8412499,-10.335844497865706,5.624237090644499,-2.5506229934864293,230.3848331919405,17.197739302968277,-10.957024309854425
8.8512499,-10.119980682990944,7.196077575948053,-2.28517061680532,123.1409862971552,-1.8079060001606202,-4.40907454685863
8.861249899999999,-10.461710085715772,9.572890957927232,-2.153676628494013,-4.770739585673856,-22.55303979682303,4.373493010075558
8.8712499,-11.141924857371675,12.075384805776604,-2.405862851171729,-149.02785687560356,-47.30206339366895,12.116264622359564
8.8812499,-11.195670202066411,12.97816248046246,-3.760698025213148,-304.8061486187667,-69.05756065069934,17.458440650022578
8.8912499,-11.48857165317759,13.256781801588676,-5.937187162254708,-454.5497774882304,-88.10526826147681,21.067981849802326
8.9012499,-12.078802588193394,11.665970986170056,-8.811045168931582,-506.6056652537007,-105.40703768777556,21.380519128771027
8.9112499,-12.40457783491679,8.659737880122234,-12.029293103231497,-498.4771031018132,-121.08078692908329,17.298323577778547
8.9212499,-12.695400181941926,6.075017615888132,-14.674775718146618,-499.7538171192616,-139.79365404573622,6.32525520094583
8.9312499,-12.153505873883821,3.428725051733505,-16.564677804548662,-500.421593965089,-159.30443701379505,-13.589396154186039
8.941249899999999,-10.317202971504972,0.6359572947768218,-18.19709284239396,-499.79976844173876,-172.8210675291997,-39.1886636412536
8.9512499,-8.276868751951673,-2.3651479135785167,-19.20662751732489,-500.037334879684,-181.90532148134363,-63.8322558060437
8.9612499,-6.604049791945069,-5.766981225516217,-19.222029581610077,-500.05805435302443,-185.01654881006453,-82.64964908375869
8.9712499,-5.970860070341156,-8.924762383569943,-17.923467762481373,-499.8510144884853,-181.7118478234195,-92.89406566543924
8.9812499,-6.3478500093376695,-11.641076673702456,-15.505444342949188,-500.17167238842006,-172.9268980992792,-91.61025449884686
8.9912499,-6.698327205737571,-13.853679436224379,-12.437635741455638,-500.2788174296689,-154.70482431043507,-77.40602047752768
9.0012499,-7.431932683014851,-15.232779608420774,-8.576859391874612,-498.0937207420469,-129.89156105905454,-51.81607487242149
9.0112499,-8.517405240486667,-16.067435100670703,-4.422996051795948,-505.2131115685625,-104.93613974624927,-18.871232258842788
9.0212499,-8.803962131036334,-16.342822960620897,-1.0157216952062493,-478.1353819108789,-79.68728484773045,17.687980833357006
9.0312499,-8.42006675100475,-15.291467014764818,1.1067519553024918,-354.2428580876759,-52.46786463200279,54.074229006010235
9.0412499,-8.573163212473887,-13.653432903908728,1.8598705332765677,-206.7849502316786,-28.359873452398173,86.08496662134745
9.0512499,-8.724695058212745,-13.596189322040686,1.751850151146256,-69.9601926961208,-5.34248722030376,112.1036576618109
9.0612499,-8.554176397071732,-14.071700733692138,1.3187440235968628,67.80951063597306,20.61049173510394,132.3228046480296
9.0712499,-8.965913584759235,-13.542059878603999,0.43945259901195716,193.95170030414334,44.11210563046197,147.19546006127572
9.0812499,-9.509116060605045,-12.949829989139813,-0.6040112448945658,303.14763841567765,62.029528980561984,156.11243745621596
9.0912499,-9.726760817534975,-12.189376063636816,-1.939849741149729,397.76561826404713,75.43868682104029,156.94231959792904
9.1012499,-10.0191812867209,-10.770627770549476,-3.6463337971767444,471.28661136818863,84.42014149091196,149.02443004612272
9.1112499,-10.479272370064136,-7.943633049493391,-4.856693604536334,499.9251702139974,88.46879826367206,133.04137788140383
9.1212499,-11.411218596701534,-4.651958310427651,-4.6554737567156375,501.1420648971489,83.29288291828244,107.47587928086529
9.1312499,-12.703787190544464,-1.6450352755514854,-5.215078101218721,497.3273875911393,68.95017261713404,71.54634140988175
9.1412499,-13.859583783318906,2.678467873031991,-6.628128597284387,453.6424294047796,49.878139335686534,28.861014229880272
9.1512499,-14.38975215564744,6.587185441530294,-6.686133571498591,375.0356620465333,28.43269653507833,-12.3952272685243
9.1612499,-14.156761590664896,8.527900860963161,-6.178725989226016,286.15122907078256,8.184720756660466,-47.0834665706662
9.1712499,-14.025932270064303,9.581207373094234,-5.8744521003765815,183.9248797341785,-12.114694703025034,-70.88148423565337
9.1812499,-13.932889135763894,10.050639167793545,-5.49356735459014,69.6700284895178,-35.00439208808983,-84.05912005089199
9.1912499,-12.93050921873163,9.933770742509646,-5.216426000979418,-45.43799668696486,-56.27724767266817,-91.7732849765812
9.2012499,-11.66267177784253,9.85915832458153,-5.221282424483918,-164.56607755167565,-75.45613770181828,-97.26124223679491
9.2112499,-10.795178175182684,9.140304263841434,-4.876697425200316,-280.69176918538,-94.77042495700654,-102.63987176049967
9.2212499,-9.64863383185535,7.59235311923375,-5.332865635607183,-386.2279491182722,-106.86580574029081,-109.5477957593641
9.2312499,-8.938441745291785,5.813761181831366,-6.737559206322493,-471.84667201895246,-111.63748895271563,-117.9708879827712
9.2412499,-8.941085887748732,3.880400841243803,-7.802025432684709,-502.29252214863607,-114.29430425853855,-128.8873492883698
9.2512499,-8.277492845322834,1.6997321995665682,-8.680315929616432,-499.4777202005849,-113.15903201419152,-141.57798280366748
9.2612499,-7.19572330612489,-0.8444406377668275,-9.034572056647644,-500.06389889453055,-109.41751692932331,-153.07364566400952
9.2712499,-6.230326608751237,-3.958708455038287,-8.324839617895357,-499.84135373098866,-103.47797154556736,-160.47384119892092
9.2812499,-5.369091854275264,-7.326421203037437,-7.18992330789288,-499.6569077254406,-93.67525969621302,-159.78568330355134
9.2912499,-5.132046706534098,-9.342971820022607,-6.0312624953842935,-502.5189342754797,-82.38933718154443,-150.420038523633
9.3012499,-5.133859457922407,-10.00507751671966,-4.416212474584167,-464.8442072104939,-68.15210502390629,-135.10356344894285
9.3112499,-4.905661175437401,-10.805492022419488,-2.510578639488503,-369.5075000262834,-49.49850921119716,-116.75518690669531
9.3212499,-4.747094909791941,-11.750131518935182,-1.04339314212741,-254.81326817556737,-25.65573143872051,-95.77871596409426
9.3312499,-5.381199720153812,-12.496369972017504,0.29477649734658223,-129.02708295278103,-0.2732678046822929,-69.68107824818883
9.3412499,-6.588407548675006,-13.78582529050563,1.884010277449605,7.505615545274954,19.169806680753435,-37.82585024738175
9.3512499,-6.6287825318637354,-14.71583894783905,2.2605349104928636,143.2547323983498,32.41615740538462,-6.1469611948501575
9.3612499,-5.196117274978032,-14.055460550630718,0.6613631905671404,268.3421631690927,47.475074091165894,18.800626274220672
9.3712499,-4.53830640771861,-12.47384772979862,-1.5192290469051792,378.2594174691284,61.596456107138806,34.32375239495318
9.3812499,-4.947964810810457,-11.355533037685003,-3.3940574491900195,466.37175636197367,69.9217826662251,40.820495327330875
9.3912499,-5.443612808388567,-10.838992050043759,-5.079770009401525,502.233109644509,74.93431002153616,41.033409748361784
9.4012499,-6.126305787851123,-10.055479662198312,-6.632664657441588,499.82804272562345,76.99400700137893,37.153271272321206
9.4112499,-7.034933404400697,-8.988274762370327,-8.127943879471255,499.59393635622297,75.98655463614715,29.508996691985686
9.4212499,-8.182771422159664,-7.70229219774737,-9.367593827971415,500.27655001536516,71.46519245187848,20.27808275014676
9.4312499,-9.366048123195958,-6.35782763824252,-10.121966063316384,499.85399981310445,63.38555751575028,11.120767997173413
9.4412499,-10.389072916243311,-5.245015307294516,-10.167360699199754,499.9924161293312,51.57417981783569,2.8588419246388828
9.4512499,-10.953936102000945,-3.937549559742411,-9.376323504080892,500.26022486055194,39.3324565966842,-3.2251096919535
