# Time (seconds),Accel_X,Accel_Y,Accel_Z,Gyro_X,Gyro_Y,Gyro_Z
0.0099999,8.892065048217773,-2.784456491470337,2.4468741416931152,-29.388427734375,0.457763671875,1.800537109375
0.029999900000000003,9.107542991638184,-2.782062292098999,2.33913516998291,-28.076171875,0.5950927734375,2.8228759765625
0.0499999,9.248801231384277,-2.832340717315674,2.3127987384796143,-25.5126953125,-0.885009765625,5.462646484375
0.0699999,9.287108421325684,-2.9544448852539062,2.3702597618103027,-25.390625,-1.3885498046875,6.0272216796875
0.08999990000000001,9.248801231384277,-3.093308687210083,2.451662540435791,-27.6947021484375,0.8392333984375,3.96728515625
0.10999990000000001,9.153033256530762,-3.1914708614349365,2.540247917175293,-28.9459228515625,3.9520263671875,0.9613037109375
0.1299999,9.047688484191895,-3.2585084438323975,2.5929205417633057,-27.89306640625,6.317138671875,-3.5552978515625
0.14999990000000002,8.944737434387207,-3.2968156337738037,2.6024973392486572,-26.397705078125,7.75146484375,-5.889892578125
0.1699999,8.863334655761719,-3.308786630630493,2.580949544906616,-24.1241455078125,8.48388671875,-4.2572021484375
0.1899999,8.810662269592285,-3.3470940589904785,2.542642116546631,-18.9666748046875,7.4462890625,-2.9144287109375
0.20999990000000002,8.779537200927734,-3.3901896476745605,2.5019407272338867,-14.2974853515625,4.39453125,-0.9765625
0.2299999,8.767566680908203,-3.428496837615967,2.4827871322631836,-14.5111083984375,1.0833740234375,2.4566650390625
0.2499999,8.746018409729004,-3.485957622528076,2.449268341064453,-17.547607421875,-0.4730224609375,4.2724609375
0.2699999,8.719682693481445,-3.5697548389434814,2.406172752380371,-18.9666748046875,-2.166748046875,4.39453125
0.28999990000000003,8.688557624816895,-3.6774938106536865,2.360682964324951,-18.0206298828125,-3.9825439453125,4.608154296875
0.3099999,8.671798706054688,-3.8139634132385254,2.3104045391082764,-14.4500732421875,-4.0130615234375,4.1046142578125
0.3299999,8.681375503540039,-3.931279182434082,2.2601263523101807,-8.6212158203125,-2.899169921875,3.1890869140625
0.34999990000000003,8.710105895996094,-3.9863457679748535,2.1954829692840576,-5.401611328125,-1.5411376953125,1.739501953125
0.3699999,8.736441612243652,-3.976768970489502,2.0853497982025146,-7.7667236328125,-0.79345703125,-0.91552734375
0.3899999,8.746018409729004,-3.9001545906066895,1.9512743949890137,-13.4735107421875,-0.885009765625,-3.1280517578125
0.40999990000000003,8.743624687194824,-3.7924153804779053,1.8291701078414917,-18.280029296875,-0.3509521484375,-4.6844482421875
0.4299999,8.741230010986328,-3.7014358043670654,1.7621324062347412,-20.7672119140625,0.2288818359375,-5.2947998046875
0.4499999,8.753201484680176,-3.6343982219696045,1.7812861204147339,-21.1029052734375,-0.2593994140625,-4.150390625
0.4699999,8.791508674621582,-3.641580820083618,1.8483237028121948,-19.287109375,-2.3651123046875,-2.0904541015625
0.4899999,8.846575736999512,-3.708618402481079,1.9273324012756348,-15.19775390625,-4.3182373046875,1.2359619140625
0.5099999,8.925583839416504,-3.8163576126098633,1.9919757843017578,-7.659912109375,-6.4544677734375,5.218505859375
0.5299999,9.014169692993164,-3.9193081855773926,2.0231003761291504,2.044677734375,-7.9498291015625,5.9356689453125
0.5499999,9.093177795410156,-3.974374771118164,2.0254945755004883,8.9263916015625,-7.1563720703125,4.39453125
0.5699999,9.14345645904541,-3.971980571746826,2.0254945755004883,12.5579833984375,-5.55419921875,1.617431640625
0.5899998999999999,9.155426979064941,-3.9169139862060547,2.0374655723571777,14.9688720703125,-3.814697265625,-1.0223388671875
0.6099998999999999,9.10993766784668,-3.8307228088378906,2.075772762298584,16.7236328125,-2.960205078125,-3.5247802734375
0.6299999,9.02135181427002,-3.7205893993377686,2.1380221843719482,14.3585205078125,-2.9296875,-4.8675537109375
0.6499999,8.9064302444458,-3.598485231399536,2.2026655673980713,8.6669921875,-3.6468505859375,-4.974365234375
0.6699999,8.791508674621582,-3.4787750244140625,2.2577321529388428,3.7994384765625,-5.218505859375,-3.84521484375
0.6899999,8.705317497253418,-3.375824451446533,2.2912509441375732,2.105712890625,-6.40869140625,-1.9989013671875
0.7099999,8.664615631103516,-3.31118106842041,2.296039342880249,3.0975341796875,-6.3323974609375,-0.5950927734375
0.7299998999999999,8.681375503540039,-3.28963303565979,2.298433542251587,6.1798095703125,-6.103515625,0.6561279296875
0.7499998999999999,8.743624687194824,-3.3016040325164795,2.2649147510528564,10.5743408203125,-5.5084228515625,2.9449462890625
0.7699999,8.827422142028809,-3.313575267791748,2.2218191623687744,13.12255859375,-4.9285888671875,4.6844482421875
0.7899999,8.908824920654297,-3.308786630630493,2.145204782485962,10.80322265625,-4.39453125,4.1961669921875
0.8099999,8.973467826843262,-3.2824504375457764,2.0805611610412598,4.5166015625,-4.119873046875,3.1890869140625
0.8299999,9.009381294250488,-3.268085241317749,2.032677173614502,0.1983642578125,-3.3721923828125,2.593994140625
0.8499998999999999,9.01895809173584,-3.28963303565979,2.0254945755004883,2.1514892578125,-2.4566650390625,1.9989013671875
0.8699998999999999,9.011775016784668,-3.3494882583618164,2.049436569213867,6.7596435546875,-1.678466796875,2.105712890625
0.8899999,8.992621421813965,-3.4332852363586426,2.073378562927246,9.185791015625,-0.8697509765625,2.8839111328125
0.9099999,8.968679428100586,-3.49314022064209,2.0805611610412598,8.8653564453125,0,3.3416748046875
0.9299999,8.947132110595703,-3.5242648124694824,2.0470423698425293,5.4779052734375,0.8087158203125,2.25830078125
0.9499999,8.923190116882324,-3.531447410583496,1.98958158493042,0.5035400390625,0.732421875,0.9002685546875
0.9699998999999999,8.901641845703125,-3.529053211212158,1.9273324012756348,-3.3721923828125,0.518798828125,1.03759765625
0.9899998999999999,8.887276649475098,-3.5434184074401855,1.8914192914962769,-4.547119140625,0.91552734375,1.0986328125
1.0099999,8.87051773071289,-3.5697548389434814,1.8962076902389526,-3.3721923828125,2.0904541015625,0.79345703125
1.0299999,8.846575736999512,-3.6152446269989014,1.9345149993896484,-0.91552734375,3.23486328125,0.67138671875
1.0499999,8.81784439086914,-3.643975019454956,1.9967641830444336,0.8697509765625,3.021240234375,0.701904296875
1.0699999,8.803479194641113,-3.6511576175689697,2.070984363555908,1.0833740234375,2.7618408203125,0.2288818359375
1.0899999,8.827422142028809,-3.60566782951355,2.140416383743286,-0.701904296875,3.448486328125,-0.06103515625
1.1099999,8.882488250732422,-3.4979286193847656,2.2002713680267334,-3.2501220703125,4.119873046875,-0.2593994140625
1.1299999,8.956708908081055,-3.378218650817871,2.2170307636260986,-6.744384765625,4.0740966796875,-0.5035400390625
1.1499999,9.026140213012695,-3.272873640060425,2.207453966140747,-10.0555419921875,3.41796875,0.3814697265625
1.1699998999999999,9.062053680419922,-3.2297780513763428,2.169146776199341,-11.962890625,3.6468505859375,1.6632080078125
1.1899998999999999,9.064447402954102,-3.270479440689087,2.1356279850006104,-11.7645263671875,4.69970703125,2.0599365234375
1.2099999,9.014169692993164,-3.375824451446533,2.1092917919158936,-10.2386474609375,5.5999755859375,2.4261474609375
1.2299999,8.927978515625,-3.509899616241455,2.1045033931732178,-8.48388671875,5.4473876953125,2.655029296875
1.2499999,8.822632789611816,-3.6367924213409424,2.123656988143921,-7.26318359375,5.2947998046875,1.861572265625
1.2699999,8.729259490966797,-3.713406801223755,2.145204782485962,-7.0343017578125,6.378173828125,0.54931640625
1.2899999,8.681375503540039,-3.7277719974517822,2.169146776199341,-9.1400146484375,7.2174072265625,-0.1983642578125
1.3099999,8.681375503540039,-3.6798880100250244,2.1787235736846924,-12.2528076171875,7.3394775390625,0.701904296875
1.3299999,8.71728801727295,-3.603273630142212,2.1499931812286377,-12.3138427734375,6.77490234375,2.0904541015625
1.3499999,8.78193187713623,-3.512293815612793,2.1140801906585693,-11.444091796875,5.340576171875,4.2266845703125
1.3699999,8.83939266204834,-3.423708438873291,2.075772762298584,-12.20703125,3.9215087890625,6.65283203125
1.3899999,8.892065048217773,-3.339911460876465,2.0661959648132324,-12.237548828125,2.25830078125,8.30078125
1.4099999,8.904036521911621,-3.2632968425750732,2.0829553604125977,-9.0789794921875,0.0152587890625,9.2620849609375
1.4299998999999999,8.87291145324707,-3.2082302570343018,2.1045033931732178,-5.401611328125,-1.8157958984375,11.383056640625
1.4499999,8.78432559967041,-3.1531636714935303,2.0661959648132324,-5.096435546875,-3.387451171875,16.357421875
1.4699999,8.664615631103516,-3.1028854846954346,1.9129672050476074,-8.4228515625,-5.6915283203125,23.6968994140625
1.4899999,8.537723541259766,-3.0334534645080566,1.601720929145813,-16.1285400390625,-8.087158203125,33.477783203125
1.5099999,8.4108304977417,-2.9712042808532715,1.0989385843276978,-29.0069580078125,-9.9945068359375,47.821044921875
1.5299999,8.355764389038086,-2.918531894683838,0.45250412821769714,-44.0216064453125,-14.6484375,69.000244140625
1.5499999,8.468291282653809,-2.920926094055176,-0.2753331959247589,-59.6466064453125,-21.97265625,96.37451171875
1.5699999,8.935160636901855,-2.9735984802246094,-1.05105459690094,-76.3397216796875,-32.0892333984375,127.685546875
1.5899999,10.170568466186523,-2.9544448852539062,-1.8555063009262085,-105.926513671875,-47.2869873046875,163.1011962890625
1.6099999,12.538434028625488,-2.7269957065582275,-2.801215887069702,-165.618896484375,-72.967529296875,197.2808837890625
1.6299999,16.361974716186523,-2.049436569213867,-3.6607344150543213,-261.199951171875,-99.212646484375,220.1385498046875
1.6499999,21.495141983032227,-1.094150185585022,-4.1180267333984375,-361.602783203125,-112.2589111328125,224.639892578125
1.6699999,26.819847106933594,0.13168109953403473,-3.663128614425659,-423.187255859375,-117.8131103515625,225.8148193359375
1.6899998999999999,30.73436737060547,1.2641384601593018,-2.5929205417633057,-455.1239013671875,-124.1912841796875,230.5450439453125
1.7099999,30.91393280029297,1.7741034030914307,-1.3670891523361206,-495.758056640625,-131.744384765625,250.2288818359375
1.7299999,25.675418853759766,1.3838485479354858,-0.49320554733276367,-500,-144.378662109375,299.957275390625
1.7499999,13.982137680053711,0.5147533416748047,-0.7757213711738586,-500,-150.3448486328125,389.83154296875
1.7699999,-3.2321722507476807,-1.2665326595306396,-2.935291290283203,-484.19189453125,-135.2386474609375,454.58984375
1.7899999,-21.03784942626953,-2.9520506858825684,-4.8722004890441895,-383.3770751953125,-64.5751953125,401.9012451171875
1.8099999,-33.775001525878906,-3.485957622528076,-5.427655220031738,-237.0452880859375,67.901611328125,217.34619140625
1.8299999,-38.74776077270508,-4.355052947998047,-5.614402770996094,19.3023681640625,139.434814453125,-96.7254638671875
1.8499999,-36.43975067138672,-4.865017890930176,-4.865017890930176,356.231689453125,65.00244140625,-310.05859375
1.8699999,-30.102298736572266,-5.058948040008545,-5.2672438621521,485.595703125,-30.5023193359375,-267.4713134765625
1.8899999,-23.31713104248047,-4.771644115447998,-7.3885064125061035,371.5667724609375,-63.8275146484375,-172.1649169921875
1.9099999,-17.046716690063477,-3.9480385780334473,-9.337387084960938,191.10107421875,-32.65380859375,-192.4285888671875
1.9299998999999999,-10.407594680786133,-2.784456491470337,-10.651803016662598,73.0438232421875,25.9857177734375,-221.4202880859375
1.9499999,-4.062960147857666,-2.564189910888672,-10.742782592773438,40.008544921875,55.145263671875,-196.0601806640625
1.9699999,1.338358759880066,-3.5649664402008057,-10.072406768798828,68.6187744140625,70.5413818359375,-156.92138671875
1.9899999,5.513846397399902,-5.25527286529541,-8.822632789611816,135.009765625,98.4954833984375,-125.5950927734375
2.0099999,8.497021675109863,-6.744466304779053,-7.55131196975708,215.2862548828125,115.814208984375,-102.2186279296875
2.0299999,10.488997459411621,-7.714118003845215,-6.382941722869873,281.8603515625,101.0589599609375,-91.24755859375
2.0499999,11.717223167419434,-7.826645374298096,-5.702988624572754,307.2052001953125,77.7740478515625,-87.1734619140625
2.0699999,12.15057373046875,-7.194576263427734,-5.303156852722168,291.9921875,69.671630859375,-95.5047607421875
2.0899999,11.99255657196045,-6.0621185302734375,-4.944026470184326,265.472412109375,81.60400390625,-124.7100830078125
2.1099999,11.738770484924316,-5.106832027435303,-4.3191399574279785,237.6861572265625,93.1396484375,-159.6832275390625
2.1299999,11.396400451660156,-4.359841346740723,-3.5266590118408203,214.3096923828125,96.6949462890625,-167.96875
2.1499999,11.082759857177734,-4.060565948486328,-2.5546131134033203,192.6727294921875,89.0960693359375,-161.529541015625
2.1699999,10.60391902923584,-3.797203779220581,-1.599326729774475,176.9256591796875,78.2623291015625,-157.7911376953125
2.1899999,10.0580415725708,-3.4787750244140625,-0.6823474764823914,160.308837890625,64.5294189453125,-147.796630859375
2.2099999,9.643844604492188,-2.983175277709961,-0.023942016065120697,140.4876708984375,48.9349365234375,-126.03759765625
2.2299999,9.461885452270508,-2.4372973442077637,0.35434186458587646,113.311767578125,33.5693359375,-101.98974609375
2.2499999,9.526528358459473,-1.920149803161621,0.49559974670410156,83.5418701171875,22.1405029296875,-89.935302734375
2.2699999,9.739612579345703,-1.580173134803772,0.5482721924781799,63.1866455078125,13.3209228515625,-82.9620361328125
2.2899999,9.986215591430664,-1.4939818382263184,0.6703764796257019,57.830810546875,6.7138671875,-69.9615478515625
2.3099999,10.093954086303711,-1.6735470294952393,0.8930372595787048,55.816650390625,3.570556640625,-53.466796875
2.3299999,10.031704902648926,-2.0638017654418945,1.237802267074585,51.910400390625,2.1820068359375,-44.3572998046875
2.3499999,9.75397777557373,-2.5234885215759277,1.5466543436050415,53.131103515625,3.2501220703125,-43.2586669921875
2.3699999,9.3828763961792,-2.9759926795959473,1.946485996246338,55.694580078125,4.6539306640625,-39.4439697265625
2.3899999,8.995016098022461,-3.3494882583618164,2.2457611560821533,50.29296875,7.8277587890625,-28.6102294921875
2.4099999,8.676587104797363,-3.60566782951355,2.4420857429504395,45.3948974609375,5.7830810546875,-18.0511474609375
2.4299999,8.482656478881836,-3.6391866207122803,2.454056739807129,42.938232421875,-2.532958984375,-9.6435546875
2.4499999,8.458714485168457,-3.4787750244140625,2.27209734916687,33.966064453125,-10.19287109375,0
2.4699999,8.667010307312012,-3.179499864578247,1.987187385559082,17.1966552734375,-15.167236328125,6.77490234375
2.4899999,9.01895809173584,-2.87064790725708,1.7334020137786865,-1.2664794921875,-15.5487060546875,8.9263916015625
2.5099999,9.41639518737793,-2.655169725418091,1.5658079385757446,-10.650634765625,-12.481689453125,9.8876953125
2.5299999,9.706093788146973,-2.607285737991333,1.5873557329177856,-7.415771484375,-9.918212890625,11.71875
2.5499999,9.78989028930664,-2.717418909072876,1.7357962131500244,2.0904541015625,-8.3465576171875,12.9241943359375
2.5699999,9.672574996948242,-2.935291290283203,1.9752163887023926,10.101318359375,-7.75146484375,10.55908203125
2.5899999,9.452308654785156,-3.1316158771514893,2.229001760482788,13.5650634765625,-8.4228515625,8.9874267578125
2.6099999,9.208099365234375,-3.292027235031128,2.3774423599243164,11.7340087890625,-8.97216796875,7.5836181640625
2.6299999,9.026140213012695,-3.3662476539611816,2.425326347351074,5.096435546875,-10.4522705078125,5.2947998046875
2.6499999,8.93037223815918,-3.3877954483032227,2.3511061668395996,-3.90625,-12.4359130859375,2.6397705078125
2.6699999,8.935160636901855,-3.3710360527038574,2.2194249629974365,-8.9263916015625,-13.73291015625,0.06103515625
2.6899999,9.004592895507812,-3.3518824577331543,2.051830768585205,-9.185791015625,-12.5885009765625,-2.593994140625
2.7099999,9.095572471618652,-3.3686418533325195,1.9105730056762695,-7.232666015625,-10.55908203125,-4.6234130859375
2.7299999,9.160215377807617,-3.397372245788574,1.7693150043487549,-2.62451171875,-9.5977783203125,-4.2266845703125
2.7499999,9.14585018157959,-3.4739866256713867,1.6376339197158813,4.730224609375,-9.307861328125,-2.349853515625
2.7699999,9.081207275390625,-3.5242648124694824,1.53707754611969,9.0789794921875,-8.30078125,1.3580322265625
2.7899999,8.983044624328613,-3.5266590118408203,1.4748282432556152,8.3160400390625,-6.4544677734375,3.3416748046875
2.8099999,8.892065048217773,-3.490746021270752,1.479616641998291,3.3416748046875,-4.8065185546875,2.7313232421875
2.8299999,8.834604263305664,-3.423708438873291,1.556231141090393,-1.1444091796875,-3.936767578125,2.01416015625
2.8499999,8.813055992126465,-3.375824451446533,1.678335428237915,-0.518798828125,-2.655029296875,1.4495849609375
2.8699999,8.81784439086914,-3.3686418533325195,1.7956513166427612,3.631591796875,-1.89208984375,1.251220703125
2.8899999,8.853757858276367,-3.3518824577331543,1.867477297782898,6.4697265625,-3.1585693359375,2.227783203125
2.9099999,8.89445972442627,-3.332728862762451,1.8507179021835327,3.997802734375,-4.4097900390625,1.5716552734375
2.9299999,8.949525833129883,-3.294421434402466,1.7717092037200928,-2.9144287109375,-4.08935546875,0.9307861328125
2.9499999,9.006986618041992,-3.294421434402466,1.6543933153152466,-8.056640625,-2.8228759765625,0.9765625
2.9699999,9.059659004211426,-3.3470940589904785,1.580173134803772,-8.1787109375,-1.617431640625,2.0599365234375
2.9899999,9.095572471618652,-3.450044631958008,1.5610195398330688,-5.157470703125,-0.3662109375,4.1351318359375
3.0099999,9.095572471618652,-3.5936968326568604,1.5825673341751099,0.1068115234375,0.7171630859375,3.936767578125
3.0299999,9.074024200439453,-3.7038300037384033,1.644816517829895,3.84521484375,-0.54931640625,4.180908203125
3.0499999,9.047688484191895,-3.7421371936798096,1.6950948238372803,2.6397705078125,-2.105712890625,4.180908203125
3.0699999,9.033323287963867,-3.711012601852417,1.7405846118927002,-3.265380859375,-1.77001953125,1.77001953125
3.0899999,9.030928611755371,-3.6296098232269287,1.766920804977417,-10.8642578125,-0.640869140625,-1.2359619140625
3.1099999,9.026140213012695,-3.555389642715454,1.7693150043487549,-13.702392578125,-0.457763671875,-3.082275390625
3.1299999,8.999804496765137,-3.5170822143554688,1.7525556087493896,-10.406494140625,-2.1820068359375,-2.8076171875
3.1499999,8.96149730682373,-3.5218706130981445,1.721431016921997,-6.53076171875,-3.1280517578125,-1.495361328125
3.1699999,8.918401718139648,-3.5458126068115234,1.6639702320098877,-4.058837890625,-1.800537109375,-0.7171630859375
3.1899999,8.911218643188477,-3.531447410583496,1.6136919260025024,-3.2806396484375,-0.6103515625,0.6103515625
3.2099999,8.927978515625,-3.49314022064209,1.558625340461731,-4.4403076171875,1.2664794921875,1.52587890625
3.2299999,8.956708908081055,-3.4380736351013184,1.5155296325683594,-6.0577392578125,3.814697265625,2.3345947265625
3.2499999,8.995016098022461,-3.383007049560547,1.5131354331970215,-6.195068359375,4.1961669921875,3.326416015625
3.2699999,9.009381294250488,-3.380612850189209,1.5394717454910278,-5.6915283203125,3.8909912109375,3.72314453125
3.2899999,9.006986618041992,-3.4165258407592773,1.599326729774475,-4.974365234375,3.4332275390625,3.9215087890625
3.3099999,9.002198219299316,-3.488351821899414,1.6687586307525635,-4.0283203125,2.410888671875,3.5400390625
3.3299999000000002,8.992621421813965,-3.5721490383148193,1.7262194156646729,-3.7078857421875,1.739501953125,1.678466796875
3.3499999,8.990227699279785,-3.6367924213409424,1.7501614093780518,-4.5623779296875,1.3427734375,0.274658203125
3.3699999,9.004592895507812,-3.665522813796997,1.7357962131500244,-5.7830810546875,0.9918212890625,-0.3204345703125
3.3899999,9.014169692993164,-3.670311212539673,1.6950948238372803,-6.9427490234375,1.1749267578125,-1.5869140625
3.4099999,9.016563415527344,-3.6511576175689697,1.6376339197158813,-6.4697265625,2.5787353515625,-2.4871826171875
3.4299999,9.009381294250488,-3.6152446269989014,1.5873557329177856,-4.8065185546875,3.326416015625,-1.7852783203125
3.4499999,8.98543930053711,-3.579331636428833,1.5442601442337036,-3.4027099609375,3.0670166015625,-0.1983642578125
3.4699999,8.956708908081055,-3.5458126068115234,1.522712230682373,-2.3956298828125,2.3345947265625,2.349853515625
3.4899999,8.942343711853027,-3.514688014984131,1.5275006294250488,-2.8839111328125,1.89208984375,6.0272216796875
3.5099999,8.937555313110352,-3.507505416870117,1.5514427423477173,-4.791259765625,2.349853515625,7.3394775390625
3.5299999,8.939949035644531,-3.5458126068115234,1.5969325304031372,-6.6375732421875,2.74658203125,6.378173828125
3.5499999,8.949525833129883,-3.603273630142212,1.6424223184585571,-5.828857421875,3.5858154296875,6.0272216796875
3.5699999,8.96149730682373,-3.6798880100250244,1.680729627609253,-3.35693359375,4.7607421875,6.0577392578125
3.5899999,8.968679428100586,-3.7421371936798096,1.7094600200653076,-0.762939453125,5.401611328125,5.279541015625
3.6099999,8.966285705566406,-3.7469255924224854,1.702277421951294,0.396728515625,4.7454833984375,4.9896240234375
3.6299999,8.942343711853027,-3.6990416049957275,1.680729627609253,-2.25830078125,3.5400390625,5.3253173828125
3.6499999,8.899248123168945,-3.6128504276275635,1.644816517829895,-6.2255859375,2.1209716796875,6.378173828125
3.6699999,8.856152534484863,-3.5170822143554688,1.623268723487854,-6.6375732421875,0.213623046875,7.2021484375
3.6899999,8.825027465820312,-3.442862033843994,1.623268723487854,-5.6304931640625,-0.6561279296875,7.4920654296875
3.7099999,8.87291145324707,-3.3734302520751953,1.678335428237915,-3.143310546875,1.2664794921875,8.514404296875
3.7299999,8.916007041931152,-3.383007049560547,1.678335428237915,-2.3651123046875,2.4871826171875,8.11767578125
3.7499999,8.939949035644531,-3.3901896476745605,1.647210717201233,-1.89208984375,1.8768310546875,7.87353515625
3.7699999,8.923190116882324,-3.3854012489318848,1.5634137392044067,-1.068115234375,-0.30517578125,7.8582763671875
3.7899999,8.880094528198242,-3.3662476539611816,1.460463047027588,-2.471923828125,-3.2501220703125,9.429931640625
3.8099999,8.827422142028809,-3.3279404640197754,1.3407529592514038,-6.591796875,-6.8511962890625,15.6402587890625
3.8299999000000002,8.832210540771484,-3.2800562381744385,1.237802267074585,-10.6658935546875,-9.521484375,25.0091552734375
3.8499999,8.89685344696045,-3.2130186557769775,1.1228805780410767,-13.641357421875,-10.3607177734375,33.6151123046875
3.8699999,8.99740982055664,-3.138798475265503,0.9002198576927185,-18.829345703125,-10.07080078125,41.8853759765625
3.8899999,9.126696586608887,-3.028665065765381,0.5027823448181152,-31.5093994140625,-14.2822265625,56.121826171875
3.9099999,9.311050415039062,-2.8610711097717285,-0.21547815203666687,-58.2122802734375,-19.500732421875,77.1484375
3.9299999,9.66539192199707,-2.631227731704712,-1.3024457693099976,-103.0426025390625,-23.040771484375,103.1036376953125
3.9499999,10.505757331848145,-2.2625205516815186,-2.7293899059295654,-162.3992919921875,-29.0069580078125,135.0860595703125
3.9699999,12.22000503540039,-1.8794482946395874,-4.290409564971924,-227.60009765625,-36.865234375,171.051025390625
3.9899999,14.999673843383789,-1.4724340438842773,-5.698200225830078,-283.721923828125,-50.933837890625,211.5631103515625
4.0099999,18.986019134521484,-0.9768342971801758,-6.512228488922119,-329.2999267578125,-81.8328857421875,248.10791015625
4.029999900000001,23.51824378967285,-0.5339069962501526,-6.311115741729736,-369.68994140625,-122.3907470703125,261.474609375
4.0499999,27.303476333618164,-0.11013327538967133,-5.200206279754639,-408.5693359375,-136.3372802734375,262.6800537109375
4.069999900000001,28.395231246948242,0.2801215946674347,-3.2968156337738037,-466.064453125,-124.481201171875,286.041259765625
4.0899999000000005,24.9140625,0.28730419278144836,-1.2665326595306396,-500,-110.321044921875,324.1729736328125
4.1099999,14.97573184967041,0.06464344263076782,-0.5650315880775452,-500,-94.3603515625,364.013671875
4.1299999000000005,-1.3072341680526733,-1.1994950771331787,-2.6240451335906982,-500,-110.198974609375,406.79931640625
4.1499999,-19.055450439453125,-2.875436305999756,-4.891354084014893,-442.9168701171875,-116.7449951171875,408.203125
4.1699999000000005,-32.295387268066406,-3.2752678394317627,-5.805939197540283,-333.9080810546875,27.0233154296875,253.0670166015625
4.1899999,-37.75416564941406,-4.242525577545166,-5.688623428344727,-106.87255859375,171.6156005859375,-85.3118896484375
4.209999900000001,-35.427001953125,-4.838681697845459,-4.309563159942627,296.661376953125,107.72705078125,-324.737548828125
4.2299999,-28.828582763671875,-5.315127849578857,-4.144362926483154,499.9847412109375,-21.026611328125,-275.7568359375
4.249999900000001,-21.356279373168945,-5.57370138168335,-6.45476770401001,498.5504150390625,-91.888427734375,-134.8419189453125
4.2699999,-14.777012825012207,-5.1116204261779785,-9.02135181427002,303.4515380859375,-72.5860595703125,-138.0157470703125
4.289999900000001,-7.922413349151611,-3.40216064453125,-10.862493515014648,128.1890869140625,-16.3421630859375,-173.553466796875
4.3099999,-1.7549498081207275,-2.360682964324951,-11.499350547790527,29.72412109375,31.219482421875,-176.177978515625
4.329999900000001,2.8850131034851074,-2.715024709701538,-11.027692794799805,21.3775634765625,67.7947998046875,-164.9017333984375
4.3499999,5.856217384338379,-4.381389141082764,-9.720458984375,79.9560546875,101.1962890625,-137.8936767578125
4.369999900000001,7.433996200561523,-6.710947513580322,-8.111555099487305,192.44384765625,122.711181640625,-110.7330322265625
4.3899999,8.066065788269043,-8.83939266204834,-6.7061591148376465,304.6112060546875,108.917236328125,-89.8895263671875
4.409999900000001,8.29830265045166,-10.077195167541504,-5.78678560256958,353.5919189453125,71.1517333984375,-86.1968994140625
4.4299999,8.456320762634277,-9.99339771270752,-5.410895824432373,326.9805908203125,50.1861572265625,-98.08349609375
4.449999900000001,8.705317497253418,-8.877699851989746,-5.130774021148682,257.14111328125,61.8896484375,-124.8016357421875
4.4699999,9.167398452758789,-7.247248649597168,-4.687847137451172,180.2520751953125,88.104248046875,-145.9808349609375
4.489999900000001,9.768342971801758,-5.722142219543457,-4.017470359802246,124.8626708984375,100.9368896484375,-152.557373046875
4.5099999,10.14902114868164,-4.697423934936523,-3.294421434402466,101.07421875,97.4884033203125,-154.327392578125
4.529999900000001,10.232817649841309,-4.2090067863464355,-2.583343744277954,104.0802001953125,87.7685546875,-152.52685546875
4.5499999,9.995792388916016,-4.1395745277404785,-1.9057846069335938,122.1923828125,77.1026611328125,-142.7459716796875
4.569999900000001,9.643844604492188,-4.151545524597168,-1.3527239561080933,132.62939453125,70.0836181640625,-124.1912841796875
4.5899999000000005,9.320627212524414,-4.101267337799072,-0.8954314589500427,123.1689453125,63.873291015625,-112.0147705078125
4.609999900000001,9.148244857788086,-3.797203779220581,-0.5722141861915588,105.621337890625,55.633544921875,-107.4066162109375
4.6299999000000005,9.172186851501465,-3.4524388313293457,-0.21547815203666687,92.620849609375,46.32568359375,-102.7984619140625
4.6499999,9.29189682006836,-3.07415509223938,0.1388636976480484,80.6121826171875,39.6881103515625,-85.2813720703125
4.6699999000000005,9.493009567260742,-2.896984100341797,0.5099649429321289,60.3179931640625,30.059814453125,-63.4002685546875
4.6899999,9.593565940856934,-2.7724854946136475,0.8259995579719543,43.6553955078125,14.3585205078125,-48.1109619140625
4.709999900000001,9.5624418258667,-2.676717519760132,1.0965443849563599,35.1715087890625,-1.0223388671875,-38.5284423828125
4.7299999,9.44991397857666,-2.626439332962036,1.3263877630233765,30.3955078125,-8.9263916015625,-33.5235595703125
4.749999900000001,9.327810287475586,-2.607285737991333,1.580173134803772,27.0233154296875,-8.758544921875,-28.2745361328125
4.7699999,9.248801231384277,-2.652775526046753,1.86508309841156,24.3988037109375,-7.171630859375,-22.186279296875
4.789999900000001,9.2033109664917,-2.717418909072876,2.030282974243164,21.4691162109375,-5.3253173828125,-17.364501953125
4.8099999,9.205705642700195,-2.7892448902130127,2.0877439975738525,21.026611328125,-4.0435791015625,-14.9993896484375
4.829999900000001,9.239224433898926,-2.8371291160583496,2.013523578643799,20.599365234375,-3.0517578125,-10.6964111328125
4.8499999,9.275136947631836,-2.9161376953125,1.8698714971542358,20.0347900390625,-1.953125,-4.39453125
4.869999900000001,9.299078941345215,-3.028665065765381,1.7046716213226318,20.7366943359375,-3.082275390625,2.0751953125
4.8899999,9.29189682006836,-3.1675288677215576,1.6041151285171509,19.439697265625,-5.828857421875,5.7830810546875
4.909999900000001,9.251194953918457,-3.2992098331451416,1.5825673341751099,15.960693359375,-7.5225830078125,6.683349609375
4.9299999,9.191340446472168,-3.450044631958008,1.6639702320098877,12.3748779296875,-8.3160400390625,6.2103271484375
4.949999900000001,9.131484985351562,-3.557783842086792,1.7860745191574097,11.2762451171875,-9.46044921875,6.439208984375
4.9699999,9.07641887664795,-3.646369218826294,1.941697597503662,11.9171142578125,-10.772705078125,4.791259765625
4.989999900000001,9.040505409240723,-3.713406801223755,2.0398597717285156,14.22119140625,-11.41357421875,1.6632080078125
5.0099999,9.030928611755371,-3.73016619682312,2.070984363555908,19.317626953125,-11.5509033203125,0.8087158203125
5.029999900000001,9.047688484191895,-3.7205893993377686,2.0159177780151367,22.2015380859375,-11.627197265625,2.2125244140625
5.0499999,9.083600997924805,-3.6727054119110107,1.8938134908676147,21.514892578125,-11.3525390625,3.8299560546875
5.069999900000001,9.097966194152832,-3.5936968326568604,1.7142484188079834,18.1121826171875,-10.1165771484375,4.39453125
5.0899999000000005,9.095572471618652,-3.536235809326172,1.5514427423477173,11.16943359375,-9.765625,3.9215087890625
5.109999900000001,9.066842079162598,-3.533841609954834,1.4652514457702637,3.3111572265625,-9.124755859375,4.08935546875
5.1299999000000005,8.999804496765137,-3.598485231399536,1.4413094520568848,1.0986328125,-7.2479248046875,4.7607421875
5.1499999,8.913613319396973,-3.7229835987091064,1.5083470344543457,5.92041015625,-6.6986083984375,4.180908203125
5.1699999000000005,8.810662269592285,-3.8522706031799316,1.5849615335464478,11.6424560546875,-7.26318359375,4.1046142578125
5.1899999,8.712499618530273,-3.9264907836914062,1.6496049165725708,13.153076171875,-7.9803466796875,4.3792724609375
5.209999900000001,8.640673637390137,-3.936067581176758,1.6663644313812256,9.4146728515625,-8.331298828125,4.5623779296875
5.2299999,8.621520042419434,-3.8762125968933105,1.6711528301239014,2.532958984375,-7.537841796875,5.126953125
5.249999900000001,8.65982723236084,-3.799597978591919,1.6974890232086182,-1.220703125,-6.6986083984375,4.241943359375
5.2699999,8.729259490966797,-3.751713991165161,1.7501614093780518,2.0294189453125,-6.2713623046875,2.4261474609375
5.289999900000001,8.813055992126465,-3.7445313930511475,1.821987509727478,8.6212158203125,-5.7373046875,1.708984375
5.3099999,8.884882926940918,-3.773261785507202,1.8602946996688843,13.5955810546875,-5.889892578125,0.48828125
5.329999900000001,8.93037223815918,-3.799597978591919,1.8267759084701538,15.5181884765625,-6.683349609375,-1.5411376953125
5.3499999,8.959102630615234,-3.794809579849243,1.7310078144073486,12.4359130859375,-7.598876953125,-1.7852783203125
5.369999900000001,8.98543930053711,-3.77565598487854,1.601720929145813,5.8746337890625,-7.14111328125,-1.4190673828125
5.3899999,8.99740982055664,-3.7660791873931885,1.4724340438842773,1.312255859375,-5.5999755859375,-1.5716552734375
5.409999900000001,9.002198219299316,-3.7876269817352295,1.4053963422775269,0.91552734375,-4.9285888671875,-0.7781982421875
5.4299999,8.987833023071289,-3.8283286094665527,1.3766659498214722,3.8909912109375,-5.218505859375,1.129150390625
5.449999900000001,8.949525833129883,-3.8810009956359863,1.3742717504501343,6.89697265625,-5.615234375,1.9073486328125
5.4699999,8.911218643188477,-3.8953661918640137,1.403002142906189,4.669189453125,-5.8135986328125,2.6702880859375
5.489999900000001,8.887276649475098,-3.8738183975219727,1.4221558570861816,-0.2899169921875,-4.486083984375,2.227783203125
5.5099999,8.87291145324707,-3.818751811981201,1.4628572463989258,-3.143310546875,-2.4871826171875,0.3814697265625
5.529999900000001,8.87051773071289,-3.758896589279175,1.5107412338256836,-3.631591796875,-0.8392333984375,-1.190185546875
5.5499999,8.853757858276367,-3.7421371936798096,1.5634137392044067,-0.9613037109375,0.1678466796875,-2.3651123046875
5.569999900000001,8.832210540771484,-3.7612907886505127,1.6136919260025024,3.23486328125,-0.4119873046875,-1.556396484375
5.5899999000000005,8.825027465820312,-3.797203779220581,1.6519991159439087,6.1492919921875,-1.0528564453125,0.5645751953125
5.609999900000001,8.829815864562988,-3.8163576126098633,1.656787633895874,6.805419921875,-0.8544921875,1.3580322265625
5.6299999000000005,8.856152534484863,-3.799597978591919,1.6328455209732056,3.6773681640625,-0.7171630859375,1.3885498046875
5.6499999,8.882488250732422,-3.7708675861358643,1.5705963373184204,-1.190185546875,-1.4495849609375,2.0599365234375
5.6699999000000005,8.9064302444458,-3.756502389907837,1.5131354331970215,-3.1280517578125,-1.495361328125,3.082275390625
5.6899999,8.925583839416504,-3.754108190536499,1.4772224426269531,-2.9296875,-0.0762939453125,3.9215087890625
5.709999900000001,8.93037223815918,-3.77565598487854,1.482010841369629,-2.9296875,1.800537109375,3.84521484375
5.7299999,8.925583839416504,-3.797203779220581,1.5179238319396973,-3.753662109375,2.4566650390625,3.0517578125
5.749999900000001,8.908824920654297,-3.8163576126098633,1.5538369417190552,-4.0740966796875,2.0751953125,1.953125
5.7699999,8.892065048217773,-3.847482204437256,1.5945383310317993,-3.8909912109375,2.227783203125,0.9765625
5.789999900000001,8.892065048217773,-3.8714241981506348,1.6304513216018677,-3.4637451171875,2.777099609375,1.1444091796875
5.8099999,8.899248123168945,-3.8786067962646484,1.6543933153152466,-1.5716552734375,2.5482177734375,0.762939453125
5.829999900000001,8.89445972442627,-3.8786067962646484,1.644816517829895,-0.1068115234375,1.40380859375,0.3509521484375
5.8499999,8.880094528198242,-3.8570590019226074,1.601720929145813,-1.6937255859375,0.579833984375,1.1138916015625
5.869999900000001,8.853757858276367,-3.8307228088378906,1.5490485429763794,-6.103515625,1.2359619140625,1.434326171875
5.8899999,8.829815864562988,-3.818751811981201,1.501164436340332,-10.528564453125,3.3111572265625,0.9613037109375
5.909999900000001,8.820239067077637,-3.8331170082092285,1.4987702369689941,-11.016845703125,5.126953125,1.1444091796875
5.9299999,8.825027465820312,-3.8738183975219727,1.5275006294250488,-6.1492919921875,5.7830810546875,2.0294189453125
5.949999900000001,8.841787338256836,-3.9217023849487305,1.5849615335464478,-0.6866455078125,5.79833984375,2.62451171875
5.9699999,8.863334655761719,-3.950432777404785,1.6304513216018677,0.457763671875,5.126953125,2.62451171875
5.989999900000001,8.887276649475098,-3.936067581176758,1.6424223184585571,-2.8533935546875,3.9825439453125,1.8157958984375
6.0099999,8.9064302444458,-3.9049429893493652,1.6136919260025024,-8.0718994140625,2.8076171875,0.7476806640625
6.029999900000001,8.927978515625,-3.8786067962646484,1.5729905366897583,-11.8560791015625,2.0599365234375,0.762939453125
6.0499999,8.944737434387207,-3.866635799407959,1.5418659448623657,-11.4288330078125,2.5482177734375,0.9765625
6.069999900000001,8.949525833129883,-3.88818359375,1.525106430053711,-8.544921875,3.7384033203125,0.244140625
6.0899999000000005,8.944737434387207,-3.8953661918640137,1.5322890281677246,-4.8828125,3.90625,-0.30517578125
6.109999900000001,8.932766914367676,-3.885789394378662,1.5322890281677246,-2.7618408203125,4.0283203125,0.091552734375
6.1299999000000005,8.911218643188477,-3.84269380569458,1.5275006294250488,-3.4942626953125,4.1656494140625,0.5950927734375
6.149999900000001,8.889671325683594,-3.780444383621216,1.525106430053711,-5.5389404296875,4.1961669921875,1.1138916015625
6.1699999000000005,8.868123054504395,-3.7229835987091064,1.5107412338256836,-7.8887939453125,4.0740966796875,1.4190673828125
6.1899999,8.844181060791016,-3.706224203109741,1.5179238319396973,-8.4686279296875,4.0435791015625,1.708984375
6.209999900000001,8.820239067077637,-3.73016619682312,1.5275006294250488,-6.34765625,4.6539306640625,3.23486328125
6.2299999,8.796297073364258,-3.7852327823638916,1.5490485429763794,-2.5787353515625,5.4473876953125,5.2642822265625
6.249999900000001,8.762778282165527,-3.8379054069519043,1.558625340461731,-1.0223388671875,5.55419921875,6.2408447265625
6.2699999,8.7268648147583,-3.864241600036621,1.5538369417190552,-3.47900390625,5.31005859375,6.9122314453125
6.289999900000001,8.681375503540039,-3.8594532012939453,1.5179238319396973,-7.354736328125,5.2490234375,8.0718994140625
6.3099999,8.645462036132812,-3.823540210723877,1.4652514457702637,-8.85009765625,5.126953125,9.2620849609375
6.329999900000001,8.62630844116211,-3.7493197917938232,1.400607943534851,-8.1939697265625,4.7149658203125,11.3372802734375
6.3499999,8.614337921142578,-3.6320040225982666,1.3024457693099976,-7.4310302734375,6.317138671875,15.106201171875
6.369999900000001,8.619126319885254,-3.4763808250427246,1.192312479019165,-8.2855224609375,10.55908203125,20.599365234375
6.3899999,8.655038833618164,-3.251325845718384,1.0319008827209473,-11.932373046875,17.15087890625,29.4342041015625
6.409999900000001,8.765172004699707,-2.985569477081299,0.8379706144332886,-18.7530517578125,23.86474609375,40.2679443359375
6.4299999,8.96149730682373,-2.7102363109588623,0.5291185975074768,-28.13720703125,27.4810791015625,52.2003173828125
6.449999900000001,9.32541561126709,-2.4588451385498047,-0.014365210197865963,-44.0521240234375,23.49853515625,69.915771484375
6.4699999,9.964667320251465,-2.296039342880249,-0.8786720037460327,-71.59423828125,7.2784423828125,95.21484375
6.489999900000001,11.104307174682617,-2.1978771686553955,-2.0853497982025146,-119.354248046875,-13.153076171875,126.251220703125
6.5099999,13.043610572814941,-1.9728221893310547,-3.450044631958008,-195.4193115234375,-30.94482421875,162.078857421875
6.529999900000001,15.796942710876465,-1.5658079385757446,-4.788403511047363,-295.8831787109375,-49.1180419921875,192.657470703125
6.5499999,19.306842803955078,-1.0319008827209473,-5.743690013885498,-396.7437744140625,-76.47705078125,210.7086181640625
6.569999900000001,23.048980712890625,-0.6703764796257019,-5.78678560256958,-464.6453857421875,-111.38916015625,223.114013671875
6.5899999000000005,26.00821304321289,-0.6655880808830261,-4.7836151123046875,-487.3046875,-130.5389404296875,242.1722412109375
6.609999900000001,26.71929168701172,-1.237802267074585,-2.920926094055176,-492.034912109375,-131.0577392578125,277.64892578125
6.6299999000000005,23.491907119750977,-2.274491548538208,-1.048660397529602,-500,-135.3759765625,333.282470703125
6.649999900000001,14.899117469787598,-3.490746021270752,-0.23942017555236816,-500,-142.2882080078125,394.0277099609375
6.6699999000000005,0.45250412821769714,-4.831499099731445,-1.7477672100067139,-500,-138.8092041015625,424.4232177734375
6.6899999,-15.686809539794922,-5.643133640289307,-4.141968727111816,-426.544189453125,-78.6895751953125,397.552490234375
6.709999900000001,-28.014554977416992,-5.279214859008789,-5.166687488555908,-316.253662109375,74.8291015625,221.5576171875
6.7299999,-34.110191345214844,-5.116408824920654,-5.894524574279785,-72.75390625,191.7877197265625,-95.1995849609375
6.749999900000001,-33.54755401611328,-4.175487995147705,-5.0254292488098145,284.48486328125,92.041015625,-292.7398681640625
6.7699999,-28.411991119384766,-2.918531894683838,-4.738125324249268,438.8275146484375,-43.701171875,-269.22607421875
6.789999900000001,-22.668302536010742,-1.3766659498214722,-6.01423454284668,335.662841796875,-66.314697265625,-196.3043212890625
6.8099999,-16.735469818115234,0.629675030708313,-7.654263019561768,159.9578857421875,-22.4456787109375,-187.4542236328125
6.829999900000001,-10.290278434753418,1.900996208190918,-9.198522567749023,47.6226806640625,20.3399658203125,-193.2373046875
6.8499999,-4.441244125366211,1.4197616577148438,-10.096348762512207,40.252685546875,49.8046875,-177.734375
6.869999900000001,0.1867477297782898,-0.6584054827690125,-10.218452453613281,96.6949462890625,74.4476318359375,-140.8843994140625
6.8899999,3.5003228187561035,-3.713406801223755,-9.706093788146973,173.004150390625,99.6551513671875,-108.5052490234375
6.909999900000001,5.523423194885254,-6.423643112182617,-8.829815864562988,251.129150390625,111.5570068359375,-85.5712890625
6.9299999,6.933608055114746,-8.169015884399414,-7.864952564239502,299.0570068359375,101.13525390625,-75.9124755859375
6.949999900000001,8.061277389526367,-8.71489429473877,-7.046135425567627,296.661376953125,86.4715576171875,-85.99853515625
6.9699999,9.083600997924805,-8.24084186553955,-6.184223175048828,259.8419189453125,89.813232421875,-111.0382080078125
6.989999900000001,10.034099578857422,-7.2568254470825195,-5.183446884155273,215.75927734375,110.687255859375,-135.589599609375
7.0099999,10.869675636291504,-6.335057735443115,-3.952826976776123,190.36865234375,125.457763671875,-144.5159912109375
7.029999900000001,11.401188850402832,-5.544970989227295,-2.738966703414917,184.38720703125,117.5994873046875,-132.568359375
7.0499999,11.635820388793945,-5.07570743560791,-1.678335428237915,188.7054443359375,92.376708984375,-127.960205078125
7.069999900000001,11.504138946533203,-4.587290287017822,-0.8882488012313843,196.59423828125,64.7735595703125,-126.77001953125
7.0899999000000005,11.192893028259277,-4.127603530883789,-0.40940847992897034,195.61767578125,44.1436767578125,-120.1934814453125
7.109999900000001,10.812214851379395,-3.648763418197632,-0.181959331035614,180.23681640625,32.9742431640625,-107.60498046875
7.1299999000000005,10.45547866821289,-3.138798475265503,-0.1364694982767105,141.8609619140625,32.562255859375,-93.292236328125
7.149999900000001,10.098742485046387,-2.741360902786255,-0.20350714027881622,93.5821533203125,39.0167236328125,-88.56201171875
7.1699999000000005,9.794678688049316,-2.52109432220459,-0.30885201692581177,71.1669921875,41.56494140625,-86.212158203125
7.1899999,9.569623947143555,-2.513911724090576,-0.3016694188117981,80.4901123046875,33.050537109375,-75.5615234375
7.209999900000001,9.433155059814453,-2.7533318996429443,-0.13407529890537262,100.5401611328125,20.4010009765625,-66.0552978515625
7.2299999,9.48343276977539,-2.956839084625244,0.10773907601833344,109.283447265625,13.8092041015625,-57.80029296875
7.249999900000001,9.655815124511719,-3.0166940689086914,0.4405331015586853,98.7091064453125,11.5814208984375,-48.3245849609375
7.2699999,9.86889934539795,-2.868253707885742,0.7469909191131592,77.1026611328125,10.9100341796875,-41.351318359375
7.289999900000001,10.036493301391602,-2.676717519760132,1.0438719987869263,53.253173828125,9.7503662109375,-36.1175537109375
7.3099999,10.077195167541504,-2.5713725090026855,1.2952631711959839,29.937744140625,8.880615234375,-26.5045166015625
7.329999900000001,10.019734382629395,-2.6240451335906982,1.5275006294250488,13.031005859375,6.3323974609375,-15.6097412109375
7.3499999,9.888052940368652,-2.832340717315674,1.723825216293335,8.4075927734375,0.5950927734375,-9.0789794921875
7.369999900000001,9.710882186889648,-3.1244332790374756,1.8962076902389526,14.58740234375,-6.1492919921875,-4.364013671875
7.3899999,9.48343276977539,-3.375824451446533,2.0039467811584473,23.3612060546875,-10.6201171875,0.885009765625
7.409999900000001,9.215282440185547,-3.5434184074401855,2.0925323963165283,24.627685546875,-12.847900390625,4.5623779296875
7.4299999,8.939949035644531,-3.5889084339141846,2.1499931812286377,15.56396484375,-13.36669921875,6.4697265625
7.449999900000001,8.707711219787598,-3.536235809326172,2.183511972427368,4.6539306640625,-11.7034912109375,6.3629150390625
7.4699999,8.542511940002441,-3.445256233215332,2.1787235736846924,-0.6866455078125,-10.2691650390625,4.8980712890625
7.489999900000001,8.487444877624512,-3.399766445159912,2.140416383743286,0.5035400390625,-9.4757080078125,4.9285888671875
7.5099999,8.530540466308594,-3.40216064453125,2.0398597717285156,5.67626953125,-8.514404296875,7.293701171875
7.529999900000001,8.645462036132812,-3.4572272300720215,1.9369091987609863,10.9405517578125,-7.4462890625,9.368896484375
7.5499999,8.789113998413086,-3.531447410583496,1.8100165128707886,12.9241943359375,-6.561279296875,9.46044921875
7.569999900000001,8.939949035644531,-3.598485231399536,1.721431016921997,12.4969482421875,-7.38525390625,7.62939453125
7.5899999000000005,9.069235801696777,-3.622427225112915,1.6519991159439087,11.1541748046875,-8.1329345703125,5.2490234375
7.609999900000001,9.162610054016113,-3.6296098232269287,1.6160861253738403,7.965087890625,-7.781982421875,3.692626953125
7.6299999000000005,9.208099365234375,-3.624821424484253,1.6065093278884888,4.791259765625,-7.0648193359375,4.57763671875
7.649999900000001,9.210494041442871,-3.6296098232269287,1.6400281190872192,4.3182373046875,-7.080078125,4.9896240234375
7.6699999000000005,9.136273384094238,-3.6822822093963623,1.702277421951294,5.584716796875,-7.171630859375,3.7994384765625
7.6899999,9.023746490478516,-3.7445313930511475,1.766920804977417,7.0343017578125,-7.5531005859375,2.74658203125
7.709999900000001,8.877699851989746,-3.818751811981201,1.824381709098816,6.3629150390625,-8.30078125,1.708984375
7.7299999,8.746018409729004,-3.864241600036621,1.845929503440857,3.662109375,-8.5296630859375,1.5869140625
7.749999900000001,8.65743350982666,-3.8738183975219727,1.845929503440857,2.288818359375,-8.6212158203125,1.4495849609375
7.7699999,8.635885238647461,-3.84269380569458,1.800439715385437,1.312255859375,-7.843017578125,0.9307861328125
7.789999900000001,8.681375503540039,-3.7828385829925537,1.742978811264038,-1.40380859375,-7.2174072265625,0.8544921875
7.8099999,8.779537200927734,-3.708618402481079,1.6663644313812256,-2.8076171875,-6.1187744140625,0.9765625
7.829999900000001,8.89445972442627,-3.6535518169403076,1.5849615335464478,-1.0986328125,-3.997802734375,0.91552734375
7.8499999,8.990227699279785,-3.648763418197632,1.522712230682373,1.8463134765625,-2.3651123046875,1.312255859375
7.869999900000001,9.05487060546875,-3.6822822093963623,1.4867992401123047,3.5552978515625,-1.953125,2.9296875
7.8899999,9.057265281677246,-3.754108190536499,1.4772224426269531,4.2877197265625,-2.0904541015625,4.08935546875
7.909999900000001,9.016563415527344,-3.8307228088378906,1.4748282432556152,2.4261474609375,-1.7547607421875,3.0364990234375
7.9299999,8.947132110595703,-3.8977603912353516,1.5083470344543457,-1.953125,-1.3427734375,0.8697509765625
7.949999900000001,8.87051773071289,-3.950432777404785,1.534683346748352,-4.9896240234375,-0.42724609375,0.213623046875
7.9699999,8.796297073364258,-3.9911341667175293,1.577778935432434,-5.55419921875,0.7476806640625,0.9002685546875
7.989999900000001,8.734047889709473,-4.027047157287598,1.6089035272598267,-6.5460205078125,1.4190673828125,1.15966796875
8.0099999,8.681375503540039,-4.048594951629639,1.6304513216018677,-7.50732421875,1.678466796875,0.732421875
8.0299999,8.643068313598633,-4.036623954772949,1.6376339197158813,-7.7362060546875,2.5787353515625,1.190185546875
8.049999900000001,8.621520042419434,-4.0078935623168945,1.6184803247451782,-9.246826171875,3.7689208984375,2.1514892578125
8.069999900000001,8.62630844116211,-3.9432501792907715,1.6160861253738403,-11.23046875,3.90625,3.692626953125
8.0899999,8.633491516113281,-3.8714241981506348,1.5729905366897583,-11.9476318359375,4.1656494140625,5.0506591796875
8.1099999,8.640673637390137,-3.825934410095215,1.5131354331970215,-12.0697021484375,4.3487548828125,6.04248046875
8.129999900000001,8.669404029846191,-3.799597978591919,1.436521053314209,-13.0462646484375,3.6773681640625,7.568359375
8.149999900000001,8.71728801727295,-3.797203779220581,1.381454348564148,-15.5487060546875,4.8370361328125,8.4991455078125
8.1699999,8.793902397155762,-3.804386615753174,1.3670891523361206,-17.4560546875,8.1329345703125,7.8277587890625
8.1899999,8.856152534484863,-3.794809579849243,1.4053963422775269,-16.265869140625,10.3302001953125,6.988525390625
8.2099999,8.877699851989746,-3.7660791873931885,1.455674648284912,-14.312744140625,10.3302001953125,8.4228515625
8.229999900000001,8.822632789611816,-3.6966474056243896,1.4844050407409668,-14.2822265625,7.7362060546875,13.671875
8.2499999,8.69095230102539,-3.6128504276275635,1.436521053314209,-15.68603515625,3.3111572265625,21.392822265625
8.2699999,8.513781547546387,-3.514688014984131,1.3000515699386597,-18.8751220703125,-1.9378662109375,32.1044921875
8.2899999,8.358158111572266,-3.4356794357299805,1.0582371950149536,-27.34375,-6.4544677734375,45.47119140625
8.309999900000001,8.248024940490723,-3.3925838470458984,0.7206547260284424,-41.473388671875,-9.2620849609375,58.807373046875
8.3299999,8.195352554321289,-3.3949780464172363,0.21787235140800476,-60.1348876953125,-12.0697021484375,75.164794921875
8.3499999,8.336610794067383,-3.380612850189209,-0.5530605912208557,-87.188720703125,-20.8587646484375,102.783203125
8.3699999,8.966285705566406,-3.2178070545196533,-1.6496049165725708,-129.8065185546875,-37.0941162109375,140.7623291015625
8.389999900000001,10.556035041809082,-2.7126305103302,-2.964021682739258,-191.131591796875,-53.3599853515625,181.82373046875
8.4099999,13.498509407043457,-1.7405846118927002,-4.1395745277404785,-261.8255615234375,-67.3980712890625,213.2415771484375
8.4299999,17.937358856201172,-0.569819986820221,-4.757278919219971,-323.028564453125,-76.96533203125,223.8006591796875
8.4499999,23.34107208251953,0.3878606855869293,-4.594472885131836,-359.8175048828125,-88.37890625,222.7783203125
8.469999900000001,28.37368392944336,0.7445967197418213,-3.6128504276275635,-370.208740234375,-115.1885986328125,221.8017578125
8.4899999,31.498117446899414,0.16759411990642548,-2.1523873805999756,-363.2965087890625,-140.9454345703125,225.494384765625
8.5099999,30.418333053588867,-0.8212111592292786,-0.730231523513794,-365.081787109375,-141.4642333984375,253.6773681640625
8.5299999,23.309947967529297,-1.7836803197860718,0.3232172429561615,-404.1900634765625,-125.6561279296875,315.9942626953125
8.549999900000001,9.50737476348877,-1.8698714971542358,-0.45250412821769714,-471.0845947265625,-97.3358154296875,396.6064453125
8.569999900000001,-8.439560890197754,-1.53707754611969,-2.6024973392486572,-479.06494140625,-75.958251953125,414.00146484375
8.5899999,-25.309106826782227,-0.8355764150619507,-4.548983097076416,-389.007568359375,-30.3802490234375,303.466796875
8.6099999,-36.286521911621094,0.2059013396501541,-5.815515995025635,-222.869873046875,76.385498046875,119.140625
8.629999900000001,-39.533058166503906,-0.24420857429504395,-5.7341132164001465,49.957275390625,112.8692626953125,-110.3057861328125
8.649999900000001,-36.81803512573242,-0.7493851184844971,-5.094861030578613,333.19091796875,18.1427001953125,-215.423583984375
8.6699999,-30.49734115600586,-1.2401964664459229,-5.233725070953369,428.3447265625,-68.359375,-161.4227294921875
8.6899999,-23.671472549438477,-1.647210717201233,-6.36378812789917,332.3211669921875,-76.2481689453125,-137.8173828125
8.709999900000001,-16.16804313659668,-1.6711528301239014,-7.7643961906433105,181.94580078125,-35.186767578125,-156.2957763671875
8.729999900000001,-8.549694061279297,-2.2170307636260986,-8.743624687194824,88.531494140625,7.659912109375,-152.069091796875
8.7499999,-1.558625340461731,-3.931279182434082,-9.050082206726074,80.5816650390625,55.3131103515625,-121.4599609375
8.7699999,4.120420932769775,-6.732495307922363,-8.69095230102539,137.0697021484375,107.91015625,-99.6551513671875
8.7899999,8.161833763122559,-9.552865028381348,-7.9631147384643555,221.9696044921875,130.5084228515625,-88.623046875
8.809999900000001,10.584765434265137,-11.63103199005127,-7.225700855255127,282.623291015625,107.452392578125,-87.0513916015625
8.8299999,11.927912712097168,-12.536040306091309,-6.655880928039551,285.888671875,76.1566162109375,-98.480224609375
8.8499999,12.516886711120605,-12.121843338012695,-6.155492782592773,241.6534423828125,72.5555419921875,-122.6806640625
8.8699999,12.887988090515137,-11.015722274780273,-5.542576789855957,182.5103759765625,93.6279296875,-154.205322265625
8.889999900000001,12.950237274169922,-9.603142738342285,-4.680664539337158,144.6533203125,105.224609375,-172.2869873046875
8.9099999,12.739546775817871,-8.377311706542969,-3.6535518169403076,137.4664306640625,93.719482421875,-173.0194091796875
8.9299999,11.973402976989746,-7.4100542068481445,-2.6240451335906982,153.167724609375,72.44873046875,-175.1708984375
8.9499999,10.807426452636719,-6.605602264404297,-1.6424223184585571,171.8902587890625,52.6885986328125,-178.28369140625
8.969999900000001,9.44752025604248,-5.822698593139648,-0.7493851184844971,178.9398193359375,34.4696044921875,-172.4090576171875
8.9899999,8.161833763122559,-5.0254292488098145,-0.11252748221158981,171.9512939453125,19.47021484375,-157.7606201171875
9.0099999,7.156269073486328,-4.230554580688477,0.21308395266532898,155.33447265625,6.16455078125,-142.5323486328125
9.0299999,6.555324077606201,-3.469198226928711,0.3064578175544739,131.3018798828125,-4.4708251953125,-124.603271484375
9.049999900000001,6.411672115325928,-2.734178304672241,0.15562310814857483,99.7772216796875,-7.4005126953125,-104.1107177734375
9.069999900000001,6.627150535583496,-2.1332337856292725,-0.11971008777618408,65.093994140625,-2.7923583984375,-89.84375
9.0899999,7.1490864753723145,-1.6855180263519287,-0.3471592366695404,32.8369140625,4.3487548828125,-81.512451171875
9.1099999,7.7883381843566895,-1.525106430053711,-0.5051765441894531,12.725830078125,11.7034912109375,-73.6541748046875
9.129999900000001,8.427590370178223,-1.6903064250946045,-0.49799394607543945,14.129638671875,14.70947265625,-60.05859375
9.149999900000001,8.973467826843262,-2.078166961669922,-0.3519476354122162,29.72412109375,12.6190185546875,-41.6412353515625
9.1699999,9.399636268615723,-2.58813214302063,-0.0933738648891449,47.6837158203125,7.7362060546875,-28.80859375
9.1899999,9.684545516967773,-3.002328872680664,0.19153612852096558,57.2509765625,4.0130615234375,-19.4091796875
9.209999900000001,9.86889934539795,-3.268085241317749,0.4884171485900879,56.0760498046875,0.9613037109375,-11.7950439453125
9.229999900000001,9.943120002746582,-3.3662476539611816,0.7733271718025208,47.18017578125,-1.5411376953125,-7.4615478515625
9.2499999,9.888052940368652,-3.359065055847168,1.0199298858642578,34.942626953125,-3.082275390625,-6.622314453125
9.2699999,9.737217903137207,-3.318363666534424,1.2090718746185303,25.9246826171875,-5.889892578125,-8.4686279296875
9.2899999,9.514557838439941,-3.2824504375457764,1.3000515699386597,21.4385986328125,-9.552001953125,-9.1094970703125
9.309999900000001,9.339780807495117,-3.2776620388031006,1.3431471586227417,16.0675048828125,-12.4053955078125,-7.5531005859375
9.3299999,9.229647636413574,-3.272873640060425,1.3431471586227417,10.7574462890625,-12.0086669921875,-5.7220458984375
9.3499999,9.188945770263672,-3.292027235031128,1.2689268589019775,11.1236572265625,-9.6893310546875,-5.5084228515625
9.3699999,9.184157371520996,-3.2992098331451416,1.194706678390503,16.571044921875,-10.955810546875,-4.0130615234375
9.389999900000001,9.167398452758789,-3.313575267791748,1.0821791887283325,20.0347900390625,-11.9171142578125,-2.7923583984375
9.4099999,9.124302864074707,-3.359065055847168,0.9744400978088379,19.7601318359375,-8.36181640625,-4.8980712890625
9.4299999,9.066842079162598,-3.397372245788574,0.933738648891449,18.2647705078125,-5.43212890625,-5.6915283203125
9.4499999,9.014169692993164,-3.4165258407592773,0.9481038451194763,16.7999267578125,-4.486083984375,-4.0130615234375
9.469999900000001,8.954314231872559,-3.428496837615967,1.0127472877502441,15.19775390625,-3.8604736328125,-4.302978515625
9.4899999,8.916007041931152,-3.40216064453125,1.1013327836990356,12.9241943359375,-3.9215087890625,-4.2572021484375
9.5099999,8.927978515625,-3.378218650817871,1.1971008777618408,13.1072998046875,-4.791259765625,-2.349853515625
9.5299999,8.975862503051758,-3.3494882583618164,1.2737152576446533,16.0064697265625,-5.1727294921875,0.54931640625
9.549999900000001,9.05487060546875,-3.3303346633911133,1.3239935636520386,16.571044921875,-5.1116943359375,3.23486328125
9.569999900000001,9.131484985351562,-3.3063924312591553,1.3239935636520386,13.458251953125,-5.0201416015625,3.9215087890625
9.5899999,9.210494041442871,-3.270479440689087,1.3455413579940796,8.4686279296875,-4.94384765625,3.2806396484375
9.6099999,9.248801231384277,-3.2561142444610596,1.3479355573654175,4.425048828125,-3.7994384765625,1.678466796875
9.629999900000001,9.251194953918457,-3.2800562381744385,1.3551181554794312,5.2490234375,-4.0435791015625,0.7781982421875
9.649999900000001,9.20091724395752,-3.3063924312591553,1.3215993642807007,7.843017578125,-6.5765380859375,3.2958984375
9.6699999,9.136273384094238,-3.3494882583618164,1.2713210582733154,6.89697265625,-7.9345703125,4.2877197265625
9.6899999,9.069235801696777,-3.380612850189209,1.2114660739898682,3.509521484375,-5.6610107421875,3.0670166015625
9.709999900000001,9.028534889221191,-3.4093432426452637,1.170764684677124,1.373291015625,-1.8463134765625,2.5787353515625
9.729999900000001,9.016563415527344,-3.464409828186035,1.1755530834197998,1.0986328125,-0.06103515625,3.1890869140625
9.7499999,9.01895809173584,-3.5242648124694824,1.2282254695892334,2.50244140625,0.18310546875,4.0283203125
9.7699999,9.023746490478516,-3.5960910320281982,1.2856862545013428,6.2713623046875,1.0223388671875,3.4942626953125
9.7899999,9.042900085449219,-3.641580820083618,1.3670891523361206,9.4451904296875,0.5340576171875,3.0975341796875
9.809999900000001,9.07641887664795,-3.648763418197632,1.4389152526855469,8.48388671875,-1.007080078125,3.2806396484375
9.8299999,9.105149269104004,-3.6104562282562256,1.45806884765625,6.378173828125,-2.0294189453125,1.800537109375
9.8499999,9.131484985351562,-3.5482068061828613,1.4484920501708984,4.4708251953125,-3.7689208984375,0.0762939453125
9.8699999,9.148244857788086,-3.4739866256713867,1.3934253454208374,1.800537109375,-5.2032470703125,0.335693359375
9.889999900000001,9.160215377807617,-3.428496837615967,1.3239935636520386,0.1068115234375,-5.126953125,0.0152587890625
9.9099999,9.160215377807617,-3.40216064453125,1.256955862045288,-0.5340576171875,-3.60107421875,0
9.9299999,9.148244857788086,-3.3949780464172363,1.1899182796478271,0.42724609375,-1.8768310546875,0.91552734375
9.9499999,9.11233139038086,-3.40216064453125,1.1420341730117798,1.46484375,-1.03759765625,1.708984375
9.969999900000001,9.062053680419922,-3.4117374420166016,1.1276689767837524,0.9918212890625,-0.091552734375,2.960205078125
9.9899999,8.999804496765137,-3.4308910369873047,1.1276689767837524,1.46484375,1.77001953125,3.997802734375
10.0099999,8.942343711853027,-3.4524388313293457,1.1803414821624756,2.5177001953125,2.5634765625,4.486083984375
10.0299999,8.904036521911621,-3.488351821899414,1.235408067703247,1.5869140625,2.50244140625,4.3487548828125
10.049999900000001,8.884882926940918,-3.5266590118408203,1.278503656387329,0.091552734375,2.2430419921875,3.387451171875
10.069999900000001,8.908824920654297,-3.5625722408294678,1.3263877630233765,-2.197265625,1.5411376953125,3.326416015625
10.0899999,8.971074104309082,-3.60566782951355,1.3551181554794312,-3.2806396484375,2.349853515625,3.41796875
10.1099999,9.05247688293457,-3.6367924213409424,1.3934253454208374,-1.2969970703125,2.838134765625,3.2958984375
10.129999900000001,9.136273384094238,-3.6583402156829834,1.4221558570861816,1.8157958984375,2.227783203125,2.9754638671875
10.149999900000001,9.186552047729492,-3.643975019454956,1.4317326545715332,2.6092529296875,1.64794921875,1.9683837890625
10.1699999,9.208099365234375,-3.6080620288848877,1.4269442558288574,-0.8697509765625,1.373291015625,0.7781982421875
10.1899999,9.198522567749023,-3.557783842086792,1.403002142906189,-5.5084228515625,1.5411376953125,0.335693359375
10.209999900000001,9.162610054016113,-3.529053211212158,1.3718775510787964,-6.591796875,1.4801025390625,0.6103515625
10.229999900000001,9.119514465332031,-3.5242648124694824,1.3407529592514038,-5.18798828125,1.1138916015625,0.79345703125
10.2499999,9.064447402954102,-3.5386300086975098,1.2976573705673218,-5.096435546875,1.861572265625,0.5340576171875
10.2699999,9.01895809173584,-3.557783842086792,1.2641384601593018,-7.1868896484375,3.1585693359375,-0.1983642578125
10.2899999,8.98543930053711,-3.576937437057495,1.2449848651885986,-8.72802734375,4.5013427734375,-0.579833984375
10.309999900000001,8.96149730682373,-3.5960910320281982,1.2521674633026123,-7.4615478515625,5.7525634765625,-0.42724609375
10.3299999,8.954314231872559,-3.6080620288848877,1.2856862545013428,-5.126953125,5.889892578125,0.0152587890625
10.3499999,8.949525833129883,-3.620033025741577,1.3263877630233765,-4.33349609375,5.92041015625,-0.5035400390625
10.3699999,8.96149730682373,-3.579331636428833,1.3862427473068237,-6.0272216796875,5.8746337890625,-1.190185546875
10.389999900000001,8.973467826843262,-3.5386300086975098,1.3934253454208374,-7.62939453125,5.7220458984375,-0.3509521484375
10.4099999,8.98543930053711,-3.5027170181274414,1.381454348564148,-8.85009765625,5.6915283203125,0.2288818359375
10.4299999,8.987833023071289,-3.4811692237854004,1.3646949529647827,-9.002685546875,5.7830810546875,1.15966796875
10.4499999,8.973467826843262,-3.4835634231567383,1.338358759880066,-9.063720703125,6.0577392578125,2.3040771484375
10.469999900000001,8.942343711853027,-3.507505416870117,1.3311761617660522,-9.6588134765625,6.134033203125,2.7923583984375
10.4899999,8.908824920654297,-3.5386300086975098,1.335964560508728,-10.3302001953125,6.866455078125,2.4566650390625
10.5099999,8.882488250732422,-3.557783842086792,1.359906554222107,-10.0860595703125,7.9345703125,2.685546875
10.5299999,8.865729331970215,-3.5625722408294678,1.3862427473068237,-9.674072265625,8.48388671875,3.4942626953125
10.549999900000001,8.877699851989746,-3.529053211212158,1.414973258972168,-10.7421875,8.6669921875,4.33349609375
10.569999900000001,8.89685344696045,-3.490746021270752,1.436521053314209,-12.1612548828125,9.46044921875,4.3792724609375
10.5899999,8.913613319396973,-3.4620156288146973,1.455674648284912,-11.53564453125,10.1470947265625,5.2337646484375
10.6099999,8.9064302444458,-3.469198226928711,1.45806884765625,-8.3160400390625,9.27734375,7.080078125
10.629999900000001,8.868123054504395,-3.509899616241455,1.4508862495422363,-5.5389404296875,7.5531005859375,8.880615234375
10.649999900000001,8.810662269592285,-3.5697548389434814,1.414973258972168,-5.9051513671875,6.7901611328125,10.2081298828125
10.6699999,8.736441612243652,-3.6176388263702393,1.3479355573654175,-9.2010498046875,7.415771484375,11.5966796875
10.6899999,8.674192428588867,-3.643975019454956,1.280897855758667,-12.847900390625,7.7667236328125,13.7786865234375
10.709999900000001,8.628703117370605,-3.6511576175689697,1.2114660739898682,-14.5111083984375,7.4920654296875,17.059326171875
10.729999900000001,8.607154846191406,-3.646369218826294,1.1683704853057861,-11.9781494140625,6.89697265625,21.3775634765625
10.7499999,8.62630844116211,-3.6320040225982666,1.1468225717544556,-6.744384765625,5.1727294921875,25.9857177734375
10.7699999,8.712499618530273,-3.603273630142212,1.1516109704971313,-4.33349609375,2.9754638671875,30.1971435546875
10.7899999,8.858546257019043,-3.555389642715454,1.158793568611145,-7.3394775390625,1.89208984375,33.8897705078125
10.809999900000001,9.05487060546875,-3.4979286193847656,1.1180921792984009,-14.3890380859375,2.1820068359375,37.2467041015625
10.8299999,9.265560150146484,-3.428496837615967,0.9840168952941895,-24.1241455078125,-0.2593994140625,43.2891845703125
10.8499999,9.50498104095459,-3.359065055847168,0.6847416758537292,-36.2396240234375,-6.9427490234375,54.8553466796875
10.8699999,9.8784761428833,-3.28963303565979,0.17956513166427612,-52.24609375,-18.49365234375,72.5555419921875
10.889999900000001,10.620678901672363,-3.222595453262329,-0.5267243981361389,-74.1729736328125,-34.942626953125,96.0693359375
10.9099999,12.0021333694458,-3.0550012588500977,-1.5203180313110352,-107.7117919921875,-56.3201904296875,125.213623046875
10.9299999,14.283807754516602,-2.6575639247894287,-2.676717519760132,-160.0341796875,-79.3304443359375,155.2581787109375
10.9499999,17.683574676513672,-1.8842366933822632,-3.840299606323242,-231.201171875,-97.0001220703125,180.84716796875
10.969999900000001,21.98595428466797,-0.5291185975074768,-4.754884719848633,-314.5751953125,-108.82568359375,202.7587890625
10.9899999,26.417621612548828,0.9672574996948242,-4.963180065155029,-395.44677734375,-118.896484375,222.564697265625
11.0099999,29.180530548095703,2.0829553604125977,-4.199429988861084,-432.8460693359375,-119.3389892578125,243.8201904296875
11.0299999,28.43353843688965,2.33913516998291,-2.849100112915039,-439.544677734375,-114.1204833984375,285.0189208984375
11.049999900000001,22.565351486206055,1.2449848651885986,-1.0295066833496094,-455.56640625,-123.382568359375,347.8851318359375
11.069999900000001,10.429142951965332,-0.395043283700943,-0.1364694982767105,-450.37841796875,-115.4632568359375,415.771484375
11.0899999,-6.658275127410889,-2.561795711517334,-1.335964560508728,-407.3028564453125,-100.6317138671875,433.990478515625
11.1099999,-22.828712463378906,-3.8115692138671875,-2.9496564865112305,-382.659912109375,-66.1163330078125,356.99462890625
11.129999900000001,-34.08146286010742,-4.10366153717041,-4.299986362457275,-344.90966796875,61.859130859375,118.5302734375
11.149999900000001,-38.02471160888672,-4.927267074584961,-5.233725070953369,-82.9010009765625,156.43310546875,-208.06884765625
11.1699999,-35.18279266357422,-5.307945251464844,-5.202600479125977,307.6019287109375,61.9049072265625,-293.51806640625
11.1899999,-28.701690673828125,-5.2911858558654785,-5.700594425201416,459.4573974609375,-61.553955078125,-196.136474609375
11.209999900000001,-21.796812057495117,-4.8051629066467285,-7.196970462799072,341.1865234375,-88.2568359375,-156.3568115234375
11.229999900000001,-14.451401710510254,-3.162740468978882,-8.707711219787598,153.594970703125,-35.4156494140625,-182.586669921875
11.2499999,-7.089231014251709,-1.766920804977417,-9.732429504394531,34.36279296875,22.39990234375,-189.3157958984375
11.2699999,-0.8236053586006165,-1.802833914756775,-10.122684478759766,15.594482421875,53.192138671875,-171.600341796875
11.2899999,3.804386615753174,-3.2154128551483154,-9.914389610290527,68.5882568359375,69.0155029296875,-137.7716064453125
11.309999900000001,6.691793918609619,-5.2480902671813965,-9.162610054016113,148.3001708984375,85.99853515625,-107.757568359375
11.3299999,8.310274124145508,-7.086836814880371,-8.13789176940918,215.1336669921875,100.799560546875,-94.9554443359375
11.3499999,9.066842079162598,-8.159439086914062,-7.115567684173584,250.579833984375,98.3428955078125,-95.5810546875
11.3699999,9.557653427124023,-8.286332130432129,-6.311115741729736,242.8436279296875,85.6170654296875,-98.3734130859375
11.389999900000001,9.84256362915039,-7.675810813903809,-5.705382823944092,203.7506103515625,80.2459716796875,-111.8011474609375
11.4099999,9.998186111450195,-6.643909931182861,-5.097255229949951,166.5802001953125,91.339111328125,-138.8702392578125
11.4299999,10.249577522277832,-5.664681434631348,-4.244919776916504,147.9034423828125,109.1156005859375,-158.416748046875
11.4499999,10.613495826721191,-4.8482584953308105,-3.3494882583618164,139.495849609375,121.7803955078125,-153.80859375
11.469999900000001,10.943896293640137,-4.3406877517700195,-2.406172752380371,133.544921875,118.6676025390625,-148.193359375
11.4899999,10.986991882324219,-3.821146011352539,-1.6950948238372803,132.99560546875,106.75048828125,-150.1922607421875
11.5099999,10.752359390258789,-3.31118106842041,-1.1563993692398071,135.25390625,95.184326171875,-149.7344970703125
11.5299999,10.316615104675293,-2.7940332889556885,-0.7781155705451965,135.3302001953125,85.63232421875,-136.65771484375
11.549999900000001,9.86889934539795,-2.2840683460235596,-0.6033388376235962,122.55859375,76.59912109375,-110.443115234375
11.569999900000001,9.579200744628906,-1.9033904075622559,-0.5410895943641663,99.79248046875,64.8956298828125,-88.226318359375
11.5899999,9.502586364746094,-1.6160861253738403,-0.5530605912208557,82.6263427734375,52.79541015625,-73.42529296875
11.6099999,9.605537414550781,-1.601720929145813,-0.5123591423034668,82.9010009765625,42.5567626953125,-63.751220703125
11.629999900000001,9.818621635437012,-1.8555063009262085,-0.304063618183136,91.9342041015625,32.2723388671875,-49.0570068359375
11.649999900000001,10.053253173828125,-2.293645143508911,0.004788403399288654,95.39794921875,21.30126953125,-27.9388427734375
11.6699999,10.1753568649292,-2.760514497756958,0.3758896589279175,89.813232421875,11.1236572265625,-16.3116455078125
11.6899999,10.18493366241455,-3.1028854846954346,0.7422025203704834,77.57568359375,1.8768310546875,-16.66259765625
11.709999900000001,10.11550235748291,-3.3207578659057617,1.0342950820922852,60.8367919921875,-3.3111572265625,-19.683837890625
11.729999900000001,10.014945983886719,-3.421314239501953,1.2306196689605713,36.407470703125,-3.3416748046875,-16.3726806640625
11.7499999,9.904812812805176,-3.5051112174987793,1.3311761617660522,11.1846923828125,-2.8533935546875,-11.993408203125
11.7699999,9.761159896850586,-3.555389642715454,1.3072341680526733,-2.1514892578125,-3.5400390625,-10.2386474609375
11.7899999,9.564835548400879,-3.6128504276275635,1.213860273361206,-3.3721923828125,-4.8675537109375,-8.8958740234375
11.809999900000001,9.342175483703613,-3.687070608139038,1.1540051698684692,-1.0528564453125,-7.537841796875,-6.317138671875
11.8299999,9.10993766784668,-3.751713991165161,1.1180921792984009,1.7242431640625,-7.38525390625,-3.265380859375
11.8499999,8.932766914367676,-3.7660791873931885,1.137245774269104,3.4942626953125,-6.3629150390625,-1.251220703125
11.8699999,8.81784439086914,-3.6966474056243896,1.1803414821624756,2.1514892578125,-5.5084228515625,-0.885009765625
11.889999900000001,8.774748802185059,-3.5434184074401855,1.2282254695892334,-2.838134765625,-4.425048828125,-0.91552734375
11.9099999,8.760383605957031,-3.3949780464172363,1.2545616626739502,-6.2103271484375,-4.0130615234375,-1.678466796875
11.9299999,8.789113998413086,-3.265691041946411,1.3024457693099976,-4.364013671875,-4.57763671875,-0.518798828125
11.9499999,8.846575736999512,-3.203441858291626,1.3455413579940796,-2.4871826171875,-3.7841796875,1.2969970703125
11.969999900000001,8.901641845703125,-3.1914708614349365,1.37906014919281,-0.1373291015625,-1.678466796875,2.471923828125
11.9899999,8.966285705566406,-3.2082302570343018,1.3862427473068237,4.180908203125,-2.1820068359375,4.241943359375
12.0099999,9.023746490478516,-3.2321722507476807,1.3910311460494995,6.7596435546875,-3.936767578125,6.683349609375
12.0299999,9.05487060546875,-3.2824504375457764,1.3431471586227417,5.462646484375,-4.1351318359375,7.049560546875
12.049999900000001,9.07641887664795,-3.3446998596191406,1.3000515699386597,1.40380859375,-4.791259765625,5.6610107421875
12.069999900000001,9.090784072875977,-3.4308910369873047,1.2497732639312744,-4.0130615234375,-5.67626953125,4.5013427734375
12.0899999,9.119514465332031,-3.5218706130981445,1.216254472732544,-7.0648193359375,-4.638671875,2.8076171875
12.1099999,9.14585018157959,-3.620033025741577,1.2066776752471924,-5.3558349609375,-2.62451171875,1.2359619140625
12.129999900000001,9.172186851501465,-3.691859006881714,1.2330138683319092,-0.4425048828125,-1.89208984375,0.701904296875
12.149999900000001,9.184157371520996,-3.73016619682312,1.2952631711959839,4.3792724609375,-2.7618408203125,-0.9307861328125
12.1699999,9.169792175292969,-3.711012601852417,1.3670891523361206,7.080078125,-3.509521484375,-3.509521484375
12.1899999,9.148244857788086,-3.6535518169403076,1.436521053314209,6.28662109375,-3.4332275390625,-4.7454833984375
12.209999900000001,9.121908187866211,-3.579331636428833,1.4891934394836426,4.33349609375,-2.50244140625,-4.119873046875
12.229999900000001,9.107542991638184,-3.5051112174987793,1.53707754611969,4.69970703125,-2.5787353515625,-3.35693359375
12.2499999,9.074024200439453,-3.4572272300720215,1.5418659448623657,7.32421875,-2.777099609375,-3.753662109375
12.2699999,9.05247688293457,-3.4189200401306152,1.5394717454910278,9.6435546875,-4.486083984375,-2.86865234375
12.289999900000002,9.045293807983398,-3.3854012489318848,1.4867992401123047,8.819580078125,-6.6070556640625,-0.4425048828125
12.309999900000001,9.062053680419922,-3.359065055847168,1.400607943534851,6.4697265625,-7.9498291015625,1.5869140625
12.3299999,9.097966194152832,-3.3423056602478027,1.2713210582733154,3.875732421875,-7.9345703125,3.0364990234375
12.3499999,9.157821655273438,-3.335123062133789,1.1563993692398071,1.15966796875,-6.4849853515625,3.4637451171875
12.3699999,9.20091724395752,-3.35667085647583,1.0773907899856567,-0.457763671875,-3.3721923828125,1.9683837890625
12.389999900000001,9.20091724395752,-3.421314239501953,1.0438719987869263,1.0833740234375,-0.3204345703125,0.48828125
12.4099999,9.153033256530762,-3.5051112174987793,1.0678139925003052,5.645751953125,-0.0152587890625,1.3275146484375
12.4299999,9.064447402954102,-3.5889084339141846,1.1468225717544556,9.185791015625,-0.9307861328125,2.13623046875
12.4499999,8.966285705566406,-3.6320040225982666,1.2234370708465576,8.30078125,-0.335693359375,1.3427734375
12.469999900000001,8.892065048217773,-3.6343982219696045,1.3024457693099976,3.3111572265625,-0.0762939453125,0.457763671875
12.4899999,8.858546257019043,-3.60566782951355,1.3479355573654175,-1.4801025390625,-0.67138671875,1.5716552734375
12.5099999,8.87051773071289,-3.5913026332855225,1.3694833517074585,-1.983642578125,-1.2664794921875,2.3956298828125
12.5299999,8.916007041931152,-3.598485231399536,1.3670891523361206,1.7242431640625,-1.5869140625,2.62451171875
12.549999900000001,8.983044624328613,-3.6080620288848877,1.3263877630233765,6.2408447265625,-1.5106201171875,3.90625
12.569999900000001,9.05487060546875,-3.6104562282562256,1.2880805730819702,6.561279296875,-1.77001953125,5.584716796875
12.5899999,9.114726066589355,-3.584120035171509,1.2425906658172607,2.197265625,-0.823974609375,5.6610107421875
12.6099999,9.14345645904541,-3.5625722408294678,1.2186486721038818,-2.5787353515625,0.9613037109375,3.7994384765625
12.629999900000001,9.138668060302734,-3.5673606395721436,1.2401964664459229,-4.974365234375,1.8768310546875,2.5177001953125
12.649999900000001,9.107542991638184,-3.6128504276275635,1.290474772453308,-4.6844482421875,1.3885498046875,1.77001953125
12.6699999,9.057265281677246,-3.6942532062530518,1.3455413579940796,-1.5869140625,0.640869140625,0.4730224609375
12.6899999,9.016563415527344,-3.7445313930511475,1.37906014919281,2.2125244140625,-0.0152587890625,0.6561279296875
12.709999900000001,8.983044624328613,-3.754108190536499,1.3694833517074585,2.349853515625,-0.0762939453125,1.129150390625
12.729999900000001,8.966285705566406,-3.7014358043670654,1.3000515699386597,-1.8157958984375,0.640869140625,0.7781982421875
12.7499999,8.947132110595703,-3.622427225112915,1.2114660739898682,-7.2021484375,2.01416015625,1.373291015625
12.7699999,8.923190116882324,-3.5673606395721436,1.1324573755264282,-9.674072265625,3.7994384765625,3.2806396484375
12.789999900000002,8.889671325683594,-3.555389642715454,1.094150185585022,-8.4228515625,4.8065185546875,5.4473876953125
12.809999900000001,8.846575736999512,-3.584120035171509,1.0965443849563599,-6.5765380859375,4.9591064453125,7.14111328125
12.8299999,8.793902397155762,-3.6296098232269287,1.115697979927063,-7.6751708984375,5.1727294921875,8.148193359375
12.8499999,8.760383605957031,-3.663128614425659,1.137245774269104,-11.9171142578125,5.2947998046875,9.124755859375
12.8699999,8.736441612243652,-3.6798880100250244,1.139639973640442,-15.7928466796875,6.011962890625,10.5438232421875
12.889999900000001,8.743624687194824,-3.667917013168335,1.1204863786697388,-17.6239013671875,6.805419921875,12.4053955078125
12.9099999,8.772355079650879,-3.6320040225982666,1.0845733880996704,-19.3939208984375,7.4462890625,14.5263671875
12.9299999,8.815450668334961,-3.5889084339141846,1.036689281463623,-19.2413330078125,8.0718994140625,16.9219970703125
12.9499999,8.87051773071289,-3.533841609954834,1.0055646896362305,-15.869140625,7.415771484375,20.1873779296875
12.969999900000001,8.913613319396973,-3.5027170181274414,0.9959878921508789,-13.3209228515625,5.7220458984375,23.0255126953125
12.9899999,8.923190116882324,-3.4979286193847656,1.0103530883789062,-14.495849609375,3.72314453125,24.932861328125
13.0099999,8.913613319396973,-3.5242648124694824,1.0678139925003052,-18.4783935546875,1.3275146484375,27.3895263671875
13.0299999,8.884882926940918,-3.576937437057495,1.1324573755264282,-20.9197998046875,-0.79345703125,30.242919921875
13.049999900000001,8.853757858276367,-3.641580820083618,1.194706678390503,-20.1568603515625,-3.8909912109375,34.0118408203125
13.069999900000001,8.827422142028809,-3.6798880100250244,1.1899182796478271,-18.4478759765625,-8.7738037109375,38.3453369140625
13.0899999,8.760383605957031,-3.713406801223755,1.070208191871643,-19.073486328125,-13.8092041015625,42.66357421875
13.1099999,8.65982723236084,-3.732560396194458,0.811634361743927,-24.10888671875,-18.9056396484375,49.37744140625
13.129999900000001,8.588001251220703,-3.821146011352539,0.4668693244457245,-32.4249267578125,-24.017333984375,57.281494140625
13.149999900000001,8.542511940002441,-3.974374771118164,0.033518824726343155,-41.44287109375,-26.947021484375,67.3370361328125
13.1699999,8.640673637390137,-4.170699596405029,-0.4165911078453064,-52.6275634765625,-30.4412841796875,80.74951171875
13.1899999,8.9064302444458,-4.347870349884033,-0.9552865028381348,-67.6422119140625,-35.247802734375,94.1619873046875
13.209999900000001,9.512163162231445,-4.359841346740723,-1.6352397203445435,-95.4742431640625,-39.581298828125,110.29052734375
13.229999900000001,10.699687004089355,-4.089296340942383,-2.4444799423217773,-143.24951171875,-45.013427734375,126.9378662109375
13.2499999,12.823344230651855,-3.5242648124694824,-3.4596214294433594,-207.672119140625,-55.5267333984375,141.7236328125
13.2699999,16.201562881469727,-2.650381326675415,-4.525041103363037,-280.548095703125,-79.5745849609375,156.890869140625
13.289999900000002,20.96363067626953,-1.6903064250946045,-5.4228668212890625,-346.2982177734375,-117.85888671875,166.3818359375
13.309999900000001,26.331430435180664,-0.6943184733390808,-5.585672378540039,-379.8370361328125,-147.1710205078125,171.69189453125
13.3299999,30.724790573120117,0.002394201699644327,-4.8937482833862305,-373.291015625,-139.3890380859375,182.098388671875
13.3499999,31.639375686645508,0.40940847992897034,-3.5721490383148193,-370.6512451171875,-110.7635498046875,239.105224609375
13.3699999,27.030536651611328,0.2968810200691223,-2.190694570541382,-405.2734375,-100.830078125,335.5560302734375
13.389999900000001,14.666879653930664,-0.023942016065120697,-1.987187385559082,-445.220947265625,-96.8017578125,430.999755859375
13.4099999,-4.613626480102539,-0.9241618514060974,-4.216189384460449,-448.1658935546875,-100.128173828125,493.59130859375
13.4299999,-23.254880905151367,-1.1013327836990356,-5.403713226318359,-401.0467529296875,-31.5093994140625,439.697265625
13.4499999,-36.899436950683594,-1.1659762859344482,-5.762843608856201,-274.3988037109375,146.8658447265625,166.961669921875
13.469999900000001,-41.220970153808594,-2.3487119674682617,-5.377377033233643,63.1561279296875,161.834716796875,-195.404052734375
13.4899999,-38.300045013427734,-2.9233202934265137,-3.751713991165161,441.7572021484375,-4.058837890625,-326.202392578125
13.5099999,-30.588321685791016,-3.3518824577331543,-3.9169139862060547,499.9847412109375,-113.616943359375,-242.3095703125
13.5299999,-23.20220947265625,-3.026270866394043,-5.638344764709473,306.45751953125,-94.66552734375,-209.9609375
13.549999900000001,-15.411476135253906,-1.6089035272598267,-7.479485988616943,94.9249267578125,-29.6478271484375,-231.2774658203125
13.569999900000001,-7.5632829666137695,-0.6919242739677429,-9.17936897277832,-1.5716552734375,15.1214599609375,-214.0350341796875
13.5899999,-1.015141487121582,-1.2258312702178955,-10.108319282531738,13.0767822265625,40.0238037109375,-184.295654296875
13.6099999,3.9863457679748535,-2.980781078338623,-10.323798179626465,85.26611328125,66.3909912109375,-151.0772705078125
13.629999900000001,7.4316020011901855,-5.073313236236572,-9.68933391571045,176.2237548828125,96.5576171875,-109.893798828125
13.649999900000001,9.516951560974121,-6.828263282775879,-8.815450668334961,251.617431640625,109.55810546875,-77.08740234375
13.6699999,10.778696060180664,-7.769184589385986,-7.91283655166626,282.379150390625,91.2933349609375,-66.925048828125
13.6899999,11.468226432800293,-7.841010570526123,-7.223306655883789,266.845703125,67.474365234375,-78.4454345703125
13.709999900000001,11.803414344787598,-7.271190643310547,-6.629544734954834,223.20556640625,74.5391845703125,-100.7080078125
13.729999900000001,11.930307388305664,-6.485892295837402,-5.978321552276611,170.1202392578125,104.705810546875,-115.6158447265625
13.7499999,11.911153793334961,-5.669469833374023,-5.185841083526611,124.57275390625,122.1771240234375,-115.9820556640625
13.7699999,11.767500877380371,-5.12119722366333,-4.383783340454102,95.672607421875,113.983154296875,-120.1629638671875
13.789999900000002,11.310209274291992,-4.757278919219971,-3.5960910320281982,95.0164794921875,100.28076171875,-125.732421875
13.809999900000001,10.711658477783203,-4.618414878845215,-2.8203697204589844,110.8551025390625,87.6922607421875,-122.1771240234375
13.8299999,9.988609313964844,-4.5609540939331055,-2.073378562927246,124.114990234375,75.9735107421875,-110.7177734375
13.8499999,9.373299598693848,-4.522646903991699,-1.460463047027588,117.5537109375,65.5975341796875,-99.0142822265625
13.8699999,8.868123054504395,-4.388571739196777,-1.0271124839782715,100.9063720703125,58.6395263671875,-93.4600830078125
13.889999900000001,8.49941635131836,-4.163516521453857,-0.7781155705451965,86.2884521484375,54.99267578125,-89.324951171875
13.9099999,8.35097599029541,-3.8307228088378906,-0.6703764796257019,71.59423828125,50.5218505859375,-82.2296142578125
13.9299999,8.38449478149414,-3.5003228187561035,-0.608127236366272,52.30712890625,42.9840087890625,-78.369140625
13.9499999,8.592789649963379,-3.246537446975708,-0.49559974670410156,40.7562255859375,33.0657958984375,-77.0721435546875
13.969999900000001,8.844181060791016,-3.1028854846954346,-0.3663128614425659,48.919677734375,24.47509765625,-68.634033203125
13.9899999,9.150638580322266,-3.066972494125366,-0.17238251864910126,62.5152587890625,15.9454345703125,-51.2847900390625
14.0099999,9.399636268615723,-3.0789434909820557,0.05027823522686958,67.6727294921875,7.9803466796875,-40.4205322265625
14.0299999,9.555258750915527,-3.064578056335449,0.19632454216480255,65.0634765625,4.0283203125,-35.858154296875
14.049999900000001,9.586383819580078,-3.0119056701660156,0.31842881441116333,63.690185546875,-0.0152587890625,-31.8603515625
14.069999900000001,9.524134635925293,-2.894589900970459,0.3974374830722809,57.2967529296875,-2.9449462890625,-22.76611328125
14.0899999,9.411606788635254,-2.7724854946136475,0.4405331015586853,45.0897216796875,-3.7841796875,-19.195556640625
14.1099999,9.320627212524414,-2.6384103298187256,0.4429273009300232,35.7208251953125,-2.197265625,-19.9737548828125
14.129999900000001,9.296685218811035,-2.6455929279327393,0.5363011956214905,33.843994140625,-1.4495849609375,-17.425537109375
14.149999900000001,9.296685218811035,-2.738966703414917,0.6607996821403503,34.8968505859375,0.457763671875,-4.791259765625
14.1699999,9.344569206237793,-2.9017724990844727,0.9217676520347595,30.8990478515625,3.84521484375,7.62939453125
14.1899999,9.368511199951172,-3.045424461364746,1.2761094570159912,23.6968994140625,7.843017578125,8.392333984375
14.209999900000001,9.35893440246582,-3.0573954582214355,1.6687586307525635,16.6015625,10.9100341796875,7.5836181640625
14.229999900000001,9.29189682006836,-3.021482467651367,2.0638017654418945,8.1634521484375,10.7574462890625,6.7138671875
14.2499999,9.181763648986816,-2.9927520751953125,2.3774423599243164,-0.9765625,9.002685546875,3.021240234375
14.2699999,9.042900085449219,-3.0358476638793945,2.5713725090026855,-4.8065185546875,6.3018798828125,-1.6937255859375
14.289999900000002,8.956708908081055,-3.1268274784088135,2.647987127304077,-1.708984375,2.5787353515625,-3.90625
14.309999900000001,8.93037223815918,-3.270479440689087,2.652775526046753,1.52587890625,-0.0762939453125,-6.439208984375
14.3299999,8.980650901794434,-3.442862033843994,2.5929205417633057,1.2359619140625,-1.6326904296875,-10.8489990234375
14.3499999,9.074024200439453,-3.6367924213409424,2.497152328491211,2.44140625,-3.5858154296875,-11.6119384765625
14.3699999,9.17936897277832,-3.797203779220581,2.3056161403656006,4.058837890625,-5.06591796875,-6.317138671875
14.389999900000001,9.284713745117188,-3.8953661918640137,2.0374655723571777,2.227783203125,-7.080078125,-2.6702880859375
14.4099999,9.375694274902344,-3.885789394378662,1.680729627609253,-0.030517578125,-7.9803466796875,-3.2196044921875
14.4299999,9.445125579833984,-3.756502389907837,1.2832920551300049,1.220703125,-8.36181640625,-4.302978515625
14.4499999,9.461885452270508,-3.584120035171509,0.9265560507774353,3.0059814453125,-9.7503662109375,-3.631591796875
14.469999900000001,9.409213066101074,-3.404554843902588,0.6871358752250671,5.340576171875,-10.80322265625,-4.5318603515625
14.4899999,9.296685218811035,-3.3016040325164795,0.6320692300796509,9.7198486328125,-10.650634765625,-8.544921875
14.5099999,9.148244857788086,-3.2561142444610596,0.751779317855835,16.3116455078125,-8.30078125,-11.1541748046875
14.5299999,9.004592895507812,-3.2776620388031006,0.9696516990661621,22.613525390625,-3.692626953125,-10.7879638671875
14.549999900000001,8.884882926940918,-3.2848446369171143,1.1899182796478271,22.2320556640625,-0.1068115234375,-8.11767578125
14.569999900000001,8.798690795898438,-3.2321722507476807,1.3120225667953491,17.1051025390625,0.3662109375,-7.2021484375
14.5899999,8.75080680847168,-3.1004912853240967,1.3215993642807007,8.514404296875,-1.800537109375,-5.615234375
14.6099999,8.755595207214355,-2.9496564865112305,1.2234370708465576,-2.166748046875,-4.45556640625,-2.1820068359375
14.629999900000001,8.820239067077637,-2.849100112915039,1.1085153818130493,-8.0718994140625,-7.0648193359375,2.01416015625
14.649999900000001,8.93037223815918,-2.8419175148010254,0.9840168952941895,-7.0343017578125,-7.4920654296875,7.080078125
14.6699999,9.083600997924805,-2.918531894683838,0.9409212470054626,-0.6561279296875,-5.92041015625,11.016845703125
14.6899999,9.215282440185547,-3.0765492916107178,0.9385270476341248,9.552001953125,-4.302978515625,11.566162109375
14.709999900000001,9.308655738830566,-3.2178070545196533,0.9840168952941895,16.0980224609375,-2.8076171875,13.1683349609375
14.729999900000001,9.337387084960938,-3.3446998596191406,1.0247182846069336,13.18359375,-1.556396484375,13.00048828125
14.7499999,9.30386734008789,-3.428496837615967,1.048660397529602,3.997802734375,-0.518798828125,9.8724365234375
14.7699999,9.239224433898926,-3.469198226928711,1.0821791887283325,-7.415771484375,-0.54931640625,7.8277587890625
14.789999900000002,9.167398452758789,-3.555389642715454,1.1348515748977661,-12.6800537109375,-1.0528564453125,6.2103271484375
14.809999900000001,9.107542991638184,-3.6798880100250244,1.2090718746185303,-6.0272216796875,-1.89208984375,5.55419921875
14.8299999,9.066842079162598,-3.8307228088378906,1.290474772453308,5.645751953125,-3.7689208984375,6.4544677734375
14.8499999,9.05247688293457,-3.9432501792907715,1.3431471586227417,13.2293701171875,-5.6915283203125,6.2255859375
14.8699999,9.071630477905273,-3.9480385780334473,1.357512354850769,13.0462646484375,-6.34765625,4.150390625
14.889999900000001,9.117119789123535,-3.8307228088378906,1.316810965538025,5.9967041015625,-4.730224609375,1.4495849609375
14.9099999,9.184157371520996,-3.6535518169403076,1.259350061416626,-2.288818359375,-2.9449462890625,-1.129150390625
14.9299999,9.229647636413574,-3.49314022064209,1.1971008777618408,-4.486083984375,-2.410888671875,-3.2958984375
14.9499999,9.241618156433105,-3.4141316413879395,1.161187767982483,-1.03759765625,-2.5177001953125,-4.21142578125
14.969999900000001,9.215282440185547,-3.426102638244629,1.1659762859344482,4.5318603515625,-2.6702880859375,-3.6773681640625
14.9899999,9.165003776550293,-3.4811692237854004,1.1755530834197998,9.674072265625,-1.6326904296875,-2.1209716796875
15.0099999,9.107542991638184,-3.529053211212158,1.1851298809051514,9.4146728515625,-0.6103515625,-0.54931640625
15.0299999,9.050082206726074,-3.5266590118408203,1.1803414821624756,3.0975341796875,0.396728515625,0.244140625
15.049999900000001,8.983044624328613,-3.5218706130981445,1.1516109704971313,-3.509521484375,1.373291015625,-0.5645751953125
15.069999900000001,8.920795440673828,-3.5194764137268066,1.1348515748977661,-4.913330078125,1.0986328125,-0.3509521484375
15.0899999,8.877699851989746,-3.5386300086975098,1.1180921792984009,-3.662109375,0.8697509765625,1.2359619140625
15.1099999,8.858546257019043,-3.5649664402008057,1.115697979927063,-3.5552978515625,1.8463134765625,1.8463134765625
15.129999900000001,8.865729331970215,-3.555389642715454,1.1061211824417114,-5.340576171875,3.173828125,2.44140625
15.149999900000001,8.887276649475098,-3.5242648124694824,1.1037269830703735,-7.3089599609375,3.9520263671875,2.685546875
15.1699999,8.9064302444458,-3.4739866256713867,1.0989385843276978,-8.5296630859375,4.8065185546875,3.7994384765625
15.1899999,8.925583839416504,-3.4404678344726562,1.1228805780410767,-9.46044921875,5.859375,5.0811767578125
15.209999900000001,8.93037223815918,-3.4141316413879395,1.1348515748977661,-8.7890625,6.8359375,5.2337646484375
15.229999900000001,8.925583839416504,-3.3662476539611816,1.1324573755264282,-8.1787109375,6.500244140625,5.8135986328125
15.2499999,8.920795440673828,-3.2800562381744385,1.0797849893569946,-11.3525390625,5.9051513671875,7.4615478515625
15.2699999,8.925583839416504,-3.1292216777801514,1.0031704902648926,-16.9677734375,7.14111328125,9.246826171875
15.289999900000002,8.937555313110352,-2.9520506858825684,0.9217676520347595,-21.1334228515625,10.009765625,11.0015869140625
15.309999900000001,8.959102630615234,-2.82515811920166,0.8906430602073669,-19.1650390625,11.7340087890625,12.8631591796875
15.3299999,8.98543930053711,-2.7533318996429443,0.9169792532920837,-11.3983154296875,10.19287109375,17.4407958984375
15.3499999,9.002198219299316,-2.7940332889556885,0.9744400978088379,-4.852294921875,5.9661865234375,22.4609375
15.3699999,9.009381294250488,-2.8826189041137695,0.9888052940368652,-4.638671875,0.3509521484375,28.4423828125
15.389999900000001,9.026140213012695,-2.999934673309326,0.9145850539207458,-12.2528076171875,-7.32421875,36.4837646484375
15.4099999,9.059659004211426,-3.1028854846954346,0.7326257228851318,-22.6898193359375,-15.228271484375,45.1507568359375
15.4299999,9.14585018157959,-3.220201253890991,0.4596867263317108,-31.55517578125,-21.4691162109375,52.91748046875
15.4499999,9.282320022583008,-3.335123062133789,0.11252748221158981,-41.2139892578125,-26.824951171875,62.7288818359375
15.469999900000001,9.50737476348877,-3.466804027557373,-0.3016694188117981,-55.7403564453125,-34.5001220703125,76.263427734375
15.4899999,9.832986831665039,-3.5673606395721436,-0.8068459630012512,-75.897216796875,-44.12841796875,90.8966064453125
15.5099999,10.398017883300781,-3.641580820083618,-1.4532804489135742,-101.4862060546875,-53.2379150390625,102.9052734375
15.5299999,11.334151268005371,-3.5865142345428467,-2.2457611560821533,-134.6282958984375,-63.4002685546875,116.3787841796875
15.549999900000001,13.019668579101562,-3.246537446975708,-3.24414324760437,-179.7637939453125,-76.629638671875,135.1318359375
15.569999900000001,15.744270324707031,-2.43011474609375,-4.230554580688477,-233.3526611328125,-95.39794921875,154.083251953125
15.5899999,19.539079666137695,-0.9696516990661621,-4.836287498474121,-272.6287841796875,-125.7476806640625,170.684814453125
15.6099999,24.01144790649414,0.7541735172271729,-5.224148273468018,-289.4439697265625,-163.238525390625,193.756103515625
15.629999900000001,27.787105560302734,2.4133553504943848,-5.006275653839111,-305.5877685546875,-183.2427978515625,238.311767578125
15.649999900000001,29.269115447998047,3.35667085647583,-4.182670593261719,-338.7908935546875,-167.0684814453125,306.4422607421875
15.6699999,26.420015335083008,3.512293815612793,-2.7437551021575928,-397.216796875,-129.852294921875,367.7825927734375
15.6899999,17.848773956298828,2.561795711517334,-1.889025092124939,-488.0218505859375,-79.193115234375,418.8385009765625
15.709999900000001,2.2242133617401123,0.6536170840263367,-3.1435868740081787,-500,-39.00146484375,478.7445068359375
15.729999900000001,-16.548721313476562,-1.6400281190872192,-5.793968200683594,-500,-24.0325927734375,488.1744384765625
15.7499999,-31.445446014404297,-3.318363666534424,-6.833051681518555,-455.322265625,107.48291015625,319.1680908203125
15.7699999,-39.46602249145508,-5.403713226318359,-7.601590633392334,-129.241943359375,224.3499755859375,-23.5595703125
15.789999900000002,-39.3343391418457,-6.1985883712768555,-5.9735331535339355,352.325439453125,82.9010009765625,-276.0772705078125
15.809999900000001,-33.2841911315918,-5.69580602645874,-4.4723687171936035,499.9847412109375,-104.217529296875,-303.985595703125
15.8299999,-26.297910690307617,-3.845088005065918,-5.20978307723999,411.3616943359375,-147.4456787109375,-247.61962890625
15.8499999,-19.50795555114746,-1.173158884048462,-6.67982292175293,143.157958984375,-86.273193359375,-253.41796875
15.869999900000002,-12.227188110351562,1.2617442607879639,-8.358158111572266,-28.1982421875,-12.3443603515625,-246.64306640625
15.889999900000001,-5.12119722366333,1.479616641998291,-9.581595420837402,-49.1180419921875,39.5050048828125,-211.5020751953125
15.9099999,0.6943184733390808,-0.3016694188117981,-10.20887565612793,39.61181640625,70.2362060546875,-174.8199462890625
15.9299999,4.857835292816162,-3.0550012588500977,-10.15141487121582,162.3077392578125,82.733154296875,-134.6588134765625
15.9499999,7.577648162841797,-5.609614372253418,-9.607931137084961,255.37109375,91.97998046875,-101.9439697265625
15.969999900000001,9.114726066589355,-7.105990409851074,-9.042900085449219,282.3486328125,98.2513427734375,-88.92822265625
15.9899999,9.907206535339355,-7.354987621307373,-8.487444877624512,245.3765869140625,93.048095703125,-90.2862548828125
16.0099999,10.321403503417969,-6.615179061889648,-8.073247909545898,179.0618896484375,94.5892333984375,-95.4437255859375
16.0299999,10.481815338134766,-5.3582234382629395,-7.474697589874268,119.293212890625,114.1815185546875,-98.8006591796875
16.0499999,10.682928085327148,-4.285621166229248,-6.689399719238281,87.738037109375,142.08984375,-107.9864501953125
16.0699999,11.034875869750977,-3.641580820083618,-5.6910176277160645,92.376708984375,162.65869140625,-113.037109375
16.089999900000002,11.44907283782959,-3.5697548389434814,-4.623203277587891,122.98583984375,164.459228515625,-102.6763916015625
16.109999900000002,11.623848915100098,-3.778050184249878,-3.6367924213409424,163.330078125,154.3426513671875,-91.583251953125
16.1299999,11.405977249145508,-3.9887399673461914,-2.853888511657715,189.51416015625,138.00048828125,-94.7265625
16.1499999,10.984597206115723,-4.050989151000977,-2.209848165512085,194.1375732421875,117.828369140625,-108.1390380859375
16.1699999,10.474632263183594,-3.801992416381836,-1.6759412288665771,184.08203125,100.067138671875,-112.945556640625
16.1899999,10.02691650390625,-3.5697548389434814,-1.2880805730819702,166.6259765625,88.226318359375,-112.9150390625
16.2099999,9.715670585632324,-3.19865345954895,-0.9648633003234863,141.0064697265625,81.7108154296875,-103.240966796875
16.2299999,9.567230224609375,-2.8826189041137695,-0.6655880808830261,104.736328125,70.1141357421875,-93.5821533203125
16.249999900000002,9.488221168518066,-2.6575639247894287,-0.4213795065879822,81.97021484375,53.6651611328125,-91.4459228515625
16.269999900000002,9.493009567260742,-2.564189910888672,-0.15083470940589905,81.23779296875,33.782958984375,-81.6802978515625
16.2899999,9.552865028381348,-2.518700122833252,0.15801730751991272,83.55712890625,13.5040283203125,-57.6171875
16.3099999,9.651026725769043,-2.5091233253479004,0.49320554733276367,76.0498046875,-0.579833984375,-42.327880859375
16.3299999,9.734824180603027,-2.406172752380371,0.768538773059845,64.361572265625,-6.5765380859375,-37.7349853515625
16.3499999,9.770736694335938,-2.2170307636260986,0.9265560507774353,53.4210205078125,-11.2457275390625,-28.1219482421875
16.3699999,9.706093788146973,-2.030282974243164,0.9911994934082031,41.6259765625,-15.625,-14.58740234375
16.3899999,9.586383819580078,-1.9704279899597168,0.9409212470054626,27.1148681640625,-16.937255859375,-6.04248046875
16.4099999,9.423578262329102,-2.0853497982025146,0.8331822156906128,18.463134765625,-16.54052734375,0.1983642578125
16.429999900000002,9.26795482635498,-2.3319525718688965,0.751779317855835,19.317626953125,-17.2271728515625,9.3536376953125
16.4499999,9.153033256530762,-2.669534921646118,0.7038952708244324,20.5078125,-16.17431640625,14.16015625
16.4699999,9.057265281677246,-2.999934673309326,0.6607996821403503,17.9443359375,-11.71875,11.23046875
16.4899999,9.040505409240723,-3.177105665206909,0.6871358752250671,11.810302734375,-9.857177734375,9.185791015625
16.5099999,9.05487060546875,-3.2537200450897217,0.7038952708244324,3.570556640625,-7.6751708984375,7.32421875
16.5299999,9.083600997924805,-3.2369606494903564,0.7230489253997803,-1.800537109375,-5.3253173828125,4.2266845703125
16.5499999,9.114726066589355,-3.19865345954895,0.768538773059845,-2.1820068359375,-5.584716796875,2.44140625
16.5699999,9.138668060302734,-3.1890766620635986,0.8020575642585754,3.0364990234375,-5.462646484375,3.7994384765625
16.589999900000002,9.14585018157959,-3.203441858291626,0.8331822156906128,9.9639892578125,-4.33349609375,6.7901611328125
16.609999900000002,9.14585018157959,-3.248931646347046,0.8523358106613159,13.946533203125,-2.4871826171875,7.354736328125
16.6299999,9.141061782836914,-3.2800562381744385,0.8619126081466675,11.9476318359375,-0.396728515625,6.988525390625
16.6499999,9.136273384094238,-3.3255462646484375,0.8762778043746948,6.7138671875,1.220703125,6.40869140625
16.6699999,9.124302864074707,-3.383007049560547,0.9050082564353943,2.410888671875,1.983642578125,6.8817138671875
16.6899999,9.126696586608887,-3.445256233215332,0.9409212470054626,0.6866455078125,2.3651123046875,6.7291259765625
16.7099999,9.114726066589355,-3.512293815612793,0.9744400978088379,0.5950927734375,2.6397705078125,3.997802734375
16.7299999,9.100360870361328,-3.5482068061828613,0.9816226959228516,0.0152587890625,2.9296875,3.082275390625
16.749999900000002,9.081207275390625,-3.579331636428833,0.993593692779541,-0.6103515625,3.4027099609375,2.99072265625
16.769999900000002,9.047688484191895,-3.598485231399536,1.0271124839782715,-2.410888671875,5.3863525390625,1.8310546875
16.7899999,9.016563415527344,-3.6152446269989014,1.113303780555725,-4.6844482421875,8.2550048828125,-0.9613037109375
16.8099999,8.983044624328613,-3.6104562282562256,1.2258312702178955,-5.79833984375,9.735107421875,-2.6702880859375
16.8299999,8.951920509338379,-3.557783842086792,1.3215993642807007,-6.6680908203125,9.46044921875,-1.556396484375
16.8499999,8.939949035644531,-3.4787750244140625,1.381454348564148,-7.7362060546875,7.8582763671875,1.312255859375
16.8699999,8.968679428100586,-3.359065055847168,1.3766659498214722,-7.8582763671875,6.0577392578125,4.547119140625
16.8899999,9.016563415527344,-3.2800562381744385,1.3335703611373901,-7.7362060546875,4.9285888671875,6.256103515625
16.9099999,9.090784072875977,-3.2345664501190186,1.259350061416626,-9.246826171875,4.39453125,7.9193115234375
16.929999900000002,9.157821655273438,-3.2321722507476807,1.1803414821624756,-12.6190185546875,3.814697265625,9.27734375
16.9499999,9.188945770263672,-3.287238836288452,1.1061211824417114,-14.7552490234375,4.486083984375,9.185791015625
16.9699999,9.191340446472168,-3.3662476539611816,1.0654197931289673,-13.8397216796875,5.2947998046875,9.3841552734375
16.9899999,9.165003776550293,-3.44765043258667,1.0654197931289673,-9.5367431640625,5.9967041015625,9.8114013671875
17.0099999,9.114726066589355,-3.512293815612793,1.0869675874710083,-7.843017578125,7.4920654296875,8.9263916015625
17.0299999,9.011775016784668,-3.531447410583496,1.2282254695892334,-12.1307373046875,8.3770751953125,7.8125
17.0499999,9.002198219299316,-3.5242648124694824,1.3742717504501343,-8.819580078125,7.415771484375,7.354736328125
17.0699999,9.033323287963867,-3.531447410583496,1.5394717454910278,-2.166748046875,6.5460205078125,6.8206787109375
17.089999900000002,9.119514465332031,-3.555389642715454,1.6927006244659424,2.44140625,5.2642822265625,5.9051513671875
17.109999900000002,9.217676162719727,-3.600879430770874,1.7525556087493896,2.6702880859375,4.119873046875,3.96728515625
17.1299999,9.301473617553711,-3.663128614425659,1.7286136150360107,0.274658203125,3.0364990234375,3.143310546875
17.1499999,9.327810287475586,-3.7660791873931885,1.6136919260025024,-0.9765625,2.410888671875,2.8839111328125
17.1699999,9.289502143859863,-3.8977603912353516,1.5059528350830078,0.030517578125,1.617431640625,2.9754638671875
17.1899999,9.205705642700195,-4.034229755401611,1.4317326545715332,0.3204345703125,1.0986328125,3.35693359375
17.2099999,9.10993766784668,-4.156333923339844,1.4389152526855469,-1.5716552734375,1.6326904296875,2.2735595703125
17.2299999,8.999804496765137,-4.23773717880249,1.479616641998291,-3.204345703125,2.9449462890625,1.495361328125
17.249999900000002,8.887276649475098,-4.288015365600586,1.5538369417190552,-1.2664794921875,2.2430419921875,1.46484375
17.269999900000002,8.786720275878906,-4.299986362457275,1.6328455209732056,0.79345703125,0.091552734375,2.1514892578125
17.2899999,8.707711219787598,-4.278438568115234,1.6950948238372803,0.5645751953125,-0.6561279296875,2.532958984375
17.3099999,8.671798706054688,-4.213795185089111,1.7381904125213623,-1.373291015625,-0.30517578125,2.50244140625
17.3299999,8.674192428588867,-4.134786128997803,1.764526605606079,-2.838134765625,-1.312255859375,2.3956298828125
17.3499999,8.698134422302246,-4.060565948486328,1.7501614093780518,-1.15966796875,-2.99072265625,2.0599365234375
17.3699999,8.71489429473877,-4.036623954772949,1.699883222579956,2.2125244140625,-3.875732421875,1.6021728515625
17.3899999,8.731653213500977,-4.034229755401611,1.6184803247451782,4.33349609375,-4.302978515625,1.7547607421875
17.409999900000003,8.755595207214355,-4.05817174911499,1.525106430053711,5.4931640625,-4.608154296875,0.9918212890625
17.429999900000002,8.798690795898438,-4.062960147857666,1.434126853942871,4.6539306640625,-3.9215087890625,0.3509521484375
17.4499999,8.848969459533691,-4.065354347229004,1.3479355573654175,2.960205078125,-1.7242431640625,-0.152587890625
17.4699999,8.899248123168945,-4.055777549743652,1.3120225667953491,3.326416015625,-0.946044921875,0.091552734375
17.4899999,8.925583839416504,-4.0294413566589355,1.292868971824646,4.913330078125,-1.2969970703125,1.03759765625
17.5099999,8.9064302444458,-4.010287761688232,1.2880805730819702,5.2032470703125,-1.3580322265625,1.46484375
17.5299999,8.863334655761719,-3.9839515686035156,1.3048399686813354,3.7689208984375,-1.4801025390625,2.8533935546875
17.5499999,8.808267593383789,-3.9624037742614746,1.3407529592514038,1.678466796875,-0.701904296875,3.631591796875
17.5699999,8.746018409729004,-3.957615375518799,1.3958195447921753,0.762939453125,0.79345703125,3.0670166015625
17.589999900000002,8.683769226074219,-3.957615375518799,1.455674648284912,0.091552734375,1.40380859375,3.509521484375
17.609999900000002,8.607154846191406,-3.9671921730041504,1.4915876388549805,-1.03759765625,1.0986328125,5.2032470703125
17.6299999,8.537723541259766,-3.976768970489502,1.5059528350830078,-1.9683837890625,0.396728515625,7.4615478515625
17.6499999,8.480262756347656,-3.976768970489502,1.482010841369629,-2.410888671875,0.8392333984375,9.3994140625
17.6699999,8.456320762634277,-3.9671921730041504,1.455674648284912,-2.99072265625,1.9073486328125,10.9405517578125
17.6899999,8.470685958862305,-3.952826976776123,1.4293384552001953,-3.7841796875,3.41796875,12.20703125
17.7099999,8.492233276367188,-3.957615375518799,1.3910311460494995,-3.8604736328125,5.462646484375,13.702392578125
17.7299999,8.513781547546387,-3.9863457679748535,1.338358759880066,-3.47900390625,6.6375732421875,16.17431640625
17.749999900000002,8.528146743774414,-4.048594951629639,1.2880805730819702,-4.1046142578125,5.8441162109375,19.2413330078125
17.769999900000002,8.554482460021973,-4.1395745277404785,1.2330138683319092,-6.6680908203125,5.2947998046875,22.52197265625
17.7899999,8.611943244934082,-4.216189384460449,1.2090718746185303,-9.429931640625,4.669189453125,25.0701904296875
17.8099999,8.69334602355957,-4.273650169372559,1.1683704853057861,-11.16943359375,3.753662109375,25.787353515625
17.8299999,8.786720275878906,-4.321534156799316,1.072602391242981,-14.9688720703125,0.4425048828125,28.076171875
17.8499999,8.863334655761719,-4.37420654296875,0.849941611289978,-24.96337890625,-5.92041015625,36.4227294921875
17.8699999,8.918401718139648,-4.414907932281494,0.44532153010368347,-45.10498046875,-11.932373046875,51.6815185546875
17.8899999,8.971074104309082,-4.393360137939453,-0.15083470940589905,-76.5838623046875,-16.41845703125,71.0906982421875
17.909999900000003,9.081207275390625,-4.311957359313965,-0.8978256583213806,-110.65673828125,-22.308349609375,87.8448486328125
17.929999900000002,9.445125579833984,-4.146757125854492,-1.6879122257232666,-138.48876953125,-29.266357421875,104.91943359375
17.9499999,10.158597946166992,-3.9193081855773926,-2.470816135406494,-159.8968505859375,-40.1458740234375,126.9378662109375
17.9699999,11.499350547790527,-3.5721490383148193,-3.1220390796661377,-182.31201171875,-57.7392578125,153.50341796875
17.9899999,13.646949768066406,-3.141192674636841,-3.318363666534424,-208.2366943359375,-79.1778564453125,172.882080078125
18.0099999,16.491260528564453,-2.736572504043579,-2.980781078338623,-226.50146484375,-92.8802490234375,175.6591796875
18.0299999,19.656396865844727,-2.5689783096313477,-2.0853497982025146,-230.77392578125,-103.4393310546875,164.8101806640625
18.0499999,22.41212272644043,-2.6886885166168213,-0.9911994934082031,-237.3504638671875,-123.8555908203125,150.5889892578125
18.0699999,24.253263473510742,-3.220201253890991,-0.011971008032560349,-252.8228759765625,-148.3612060546875,142.5323486328125
18.089999900000002,24.643518447875977,-3.758896589279175,0.6775590777397156,-270.8587646484375,-160.125732421875,159.2254638671875
18.109999900000002,23.099258422851562,-4.230554580688477,1.0845733880996704,-292.5872802734375,-147.491455078125,198.638916015625
18.1299999,18.935741424560547,-4.3406877517700195,1.3096283674240112,-318.7713623046875,-115.3411865234375,260.528564453125
18.1499999,11.202469825744629,-4.0533833503723145,1.0007762908935547,-343.475341796875,-78.216552734375,331.11572265625
18.1699999,-1.3407529592514038,-3.428496837615967,-1.0414776802062988,-361.51123046875,-44.677734375,386.53564453125
18.1899999,-16.10818862915039,-2.341529369354248,-4.05817174911499,-401.702880859375,-16.5557861328125,399.4598388671875
18.2099999,-27.51177215576172,-0.3998316824436188,-5.765237808227539,-423.797607421875,70.3582763671875,251.6326904296875
18.2299999,-34.07188415527344,0.33518823981285095,-7.161057472229004,-234.6038818359375,180.4046630859375,-94.8638916015625
18.249999900000002,-34.37355422973633,0.47644615173339844,-6.878541469573975,165.6494140625,88.2110595703125,-302.581787109375
18.269999900000002,-30.13821029663086,0.4357447028160095,-6.205770969390869,457.9620361328125,-84.77783203125,-264.0228271484375
18.2899999,-25.258827209472656,0.5602431893348694,-6.780379295349121,428.9093017578125,-154.8919677734375,-187.1185302734375
18.3099999,-20.008342742919922,1.900996208190918,-7.762001991271973,223.968505859375,-106.26220703125,-186.9354248046875
18.3299999,-13.84566879272461,3.3039982318878174,-8.767566680908203,36.285400390625,-27.3895263671875,-193.328857421875
18.3499999,-7.402871608734131,3.0885202884674072,-9.600749015808105,-7.781982421875,21.9879150390625,-172.8057861328125
18.3699999,-1.647210717201233,0.8762778043746948,-10.160991668701172,52.1392822265625,45.47119140625,-124.298095703125
18.3899999,2.9448680877685547,-2.717418909072876,-10.256759643554688,139.58740234375,69.39697265625,-88.3331298828125
18.409999900000003,6.31829833984375,-6.18182897567749,-9.890447616577148,212.40234375,102.0660400390625,-67.2454833984375
18.429999900000002,8.44195556640625,-8.65743350982666,-9.220070838928223,243.83544921875,119.7509765625,-65.73486328125
18.4499999,9.780313491821289,-9.761159896850586,-8.322244644165039,226.7303466796875,117.67578125,-73.4405517578125
18.4699999,10.668562889099121,-9.768342971801758,-7.283161640167236,181.915283203125,113.0218505859375,-81.97021484375
18.4899999,11.250353813171387,-9.11233139038086,-6.145915985107422,146.240234375,122.98583984375,-98.602294921875
18.5099999,11.657367706298828,-8.4108304977417,-4.93923807144165,132.3089599609375,140.4266357421875,-119.0185546875
18.5299999,11.987768173217773,-7.893682956695557,-3.8307228088378906,143.0511474609375,147.4456787109375,-131.011962890625
18.5499999,11.942277908325195,-7.51779317855835,-2.942473888397217,167.3583984375,135.986328125,-135.650634765625
18.5699999,11.470620155334473,-7.082048416137695,-2.3104045391082764,177.978515625,111.8011474609375,-141.510009765625
18.589999900000002,10.714052200317383,-6.354211330413818,-1.9297266006469727,163.1317138671875,87.9974365234375,-149.59716796875
18.609999900000002,9.931148529052734,-5.322310447692871,-1.6639702320098877,130.79833984375,74.9664306640625,-153.3050537109375
18.6299999,9.29189682006836,-4.1874589920043945,-1.45806884765625,94.940185546875,73.0743408203125,-148.651123046875
18.6499999,8.87291145324707,-3.270479440689087,-1.2976573705673218,69.091796875,73.699951171875,-135.2996826171875
18.6699999,8.650250434875488,-2.693476915359497,-1.1085153818130493,62.7593994140625,68.9697265625,-114.4866943359375
18.6899999,8.56645393371582,-2.607285737991333,-0.8978256583213806,74.27978515625,56.82373046875,-96.771240234375
18.7099999,8.583212852478027,-2.7772738933563232,-0.6177040338516235,95.3216552734375,41.3970947265625,-85.479736328125
18.7299999,8.669404029846191,-3.021482467651367,-0.2825157940387726,108.5662841796875,28.778076171875,-76.2786865234375
18.749999900000002,8.813055992126465,-3.1866824626922607,0.07900865375995636,106.170654296875,22.430419921875,-69.9462890625
18.769999900000002,8.954314231872559,-3.1675288677215576,0.40462008118629456,90.63720703125,19.4091796875,-62.957763671875
18.7899999,9.047688484191895,-3.0789434909820557,0.6368576288223267,71.10595703125,17.5628662109375,-54.9468994140625
18.8099999,9.114726066589355,-2.9927520751953125,0.7541735172271729,58.2733154296875,13.97705078125,-47.5311279296875
18.8299999,9.121908187866211,-2.9975404739379883,0.7876923680305481,52.6580810546875,10.1165771484375,-39.2913818359375
18.8499999,9.169792175292969,-3.0885202884674072,0.768538773059845,47.088623046875,7.049560546875,-29.144287109375
18.8699999,9.23443603515625,-3.181894063949585,0.7230489253997803,40.71044921875,4.852294921875,-20.782470703125
18.8899999,9.306262016296387,-3.2154128551483154,0.6847416758537292,34.6832275390625,2.0599365234375,-14.70947265625
18.909999900000003,9.402029991149902,-3.098097085952759,0.6584054827690125,28.594970703125,-0.823974609375,-11.2152099609375
18.929999900000002,9.478644371032715,-2.980781078338623,0.7254431247711182,21.6217041015625,-1.6937255859375,-10.1318359375
18.9499999,9.531316757202148,-2.892195701599121,0.871489405632019,16.8609619140625,-0.3662109375,-4.180908203125
18.9699999,9.57201862335205,-2.8658595085144043,1.1180921792984009,15.869140625,-1.3580322265625,5.615234375
18.9899999,9.543288230895996,-2.9472622871398926,1.4221558570861816,17.1051025390625,-3.3416748046875,6.6070556640625
19.0099999,9.485827445983887,-3.0382418632507324,1.6950948238372803,17.4560546875,-3.143310546875,3.9215087890625
19.0299999,9.394847869873047,-3.136404275894165,1.922544002532959,17.8070068359375,-4.5928955078125,0.7171630859375
19.0499999,9.308655738830566,-3.203441858291626,2.054224967956543,17.7001953125,-6.927490234375,0.1373291015625
19.0699999,9.244012832641602,-3.2154128551483154,2.073378562927246,17.669677734375,-9.521484375,-1.3275146484375
19.089999900000002,9.184157371520996,-3.184288263320923,1.9608511924743652,15.777587890625,-10.4217529296875,-2.9754638671875
19.109999900000002,9.172186851501465,-3.098097085952759,1.7741034030914307,11.322021484375,-11.1236572265625,-1.64794921875
19.1299999,9.172186851501465,-3.0406360626220703,1.556231141090393,4.9591064453125,-10.8642578125,0.885009765625
19.1499999,9.188945770263672,-3.023876667022705,1.338358759880066,1.373291015625,-8.0413818359375,2.777099609375
19.1699999,9.188945770263672,-3.0813376903533936,1.192312479019165,2.4261474609375,-5.4779052734375,4.180908203125
19.1899999,9.172186851501465,-3.19865345954895,1.1444283723831177,6.2103271484375,-4.7454833984375,5.6304931640625
19.2099999,9.131484985351562,-3.332728862762451,1.194706678390503,10.3607177734375,-4.5318603515625,6.8206787109375
19.2299999,9.074024200439453,-3.4548330307006836,1.2737152576446533,10.8489990234375,-3.4027099609375,6.7291259765625
19.249999900000002,9.016563415527344,-3.514688014984131,1.3670891523361206,6.3323974609375,-4.669189453125,6.16455078125
19.269999900000002,8.978256225585938,-3.5434184074401855,1.403002142906189,0.4119873046875,-6.988525390625,4.5928955078125
19.2899999,8.96389102935791,-3.5410242080688477,1.3862427473068237,-4.425048828125,-8.3160400390625,2.9144287109375
19.3099999,8.973467826843262,-3.5458126068115234,1.316810965538025,-8.209228515625,-7.7667236328125,2.4261474609375
19.3299999,9.023746490478516,-3.552995204925537,1.2401964664459229,-8.8958740234375,-7.6446533203125,2.5482177734375
19.3499999,9.093177795410156,-3.579331636428833,1.170764684677124,-6.89697265625,-6.256103515625,1.5411376953125
19.3699999,9.138668060302734,-3.5865142345428467,1.137245774269104,-4.4097900390625,-2.716064453125,2.1514892578125
19.3899999,9.162610054016113,-3.5721490383148193,1.1420341730117798,-3.8299560546875,0.1220703125,3.509521484375
19.409999900000003,9.150638580322266,-3.533841609954834,1.1994950771331787,-5.2032470703125,0.4425048828125,2.655029296875
19.429999900000002,9.124302864074707,-3.466804027557373,1.2976573705673218,-6.9122314453125,1.03759765625,2.0294189453125
19.4499999,9.100360870361328,-3.404554843902588,1.414973258972168,-7.01904296875,2.105712890625,3.3111572265625
19.4699999,9.11233139038086,-3.354276657104492,1.5442601442337036,-3.387451171875,2.2735595703125,5.1116943359375
19.4899999,9.121908187866211,-3.354276657104492,1.6424223184585571,3.143310546875,2.13623046875,5.096435546875
19.5099999,9.114726066589355,-3.3925838470458984,1.6663644313812256,10.8795166015625,1.983642578125,4.425048828125
19.5299999,9.071630477905273,-3.44765043258667,1.5729905366897583,15.2435302734375,-0.1678466796875,4.5166015625
19.5499999,9.023746490478516,-3.4955344200134277,1.3982137441635132,9.979248046875,-2.2735595703125,3.35693359375
19.5699999,9.004592895507812,-3.5051112174987793,1.173158884048462,-4.7454833984375,-0.9613037109375,0.6256103515625
19.589999900000002,9.016563415527344,-3.5170822143554688,0.9768342971801758,-18.2342529296875,3.5247802734375,-2.777099609375
19.609999900000002,9.05487060546875,-3.5697548389434814,0.8834604024887085,-20.9197998046875,7.0648193359375,-3.41796875
19.6299999,9.071630477905273,-3.6774938106536865,0.8978256583213806,-12.2833251953125,7.7056884765625,-1.4495849609375
19.6499999,9.033323287963867,-3.780444383621216,0.9816226959228516,-2.227783203125,7.5225830078125,0.732421875
19.6699999,8.935160636901855,-3.825934410095215,1.0821791887283325,-0.518798828125,7.232666015625,1.434326171875
19.6899999,8.813055992126465,-3.780444383621216,1.158793568611145,-6.3629150390625,6.2408447265625,2.4871826171875
19.7099999,8.686163902282715,-3.665522813796997,1.2090718746185303,-13.7481689453125,5.43212890625,5.1727294921875
19.7299999,8.56645393371582,-3.5673606395721436,1.2306196689605713,-19.317626953125,6.1187744140625,7.476806640625
19.749999900000002,8.468291282653809,-3.536235809326172,1.2497732639312744,-21.8048095703125,7.5531005859375,8.6822509765625
19.769999900000002,8.415618896484375,-3.600879430770874,1.3048399686813354,-18.890380859375,7.9193115234375,11.016845703125
19.7899999,8.389283180236816,-3.7421371936798096,1.3982137441635132,-12.7105712890625,8.1787109375,14.251708984375
19.8099999,8.377311706542969,-3.883395195007324,1.50355863571167,-7.5531005859375,7.537841796875,18.035888671875
19.8299999,8.38688850402832,-3.9432501792907715,1.534683346748352,-8.7127685546875,4.7149658203125,23.13232421875
19.8499999,8.439560890197754,-3.88818359375,1.4413094520568848,-14.4195556640625,-0.640869140625,29.1290283203125
19.8699999,8.59997272491455,-3.691859006881714,1.1755530834197998,-16.9677734375,-4.0740966796875,34.210205078125
19.8899999,8.911218643188477,-3.4117374420166016,0.8643068075180054,-17.913818359375,-5.096435546875,38.482666015625
19.909999900000003,9.30386734008789,-3.138798475265503,0.5506663918495178,-19.6075439453125,-4.8675537109375,43.548583984375
19.929999900000002,9.655815124511719,-2.9544448852539062,0.3280056416988373,-17.39501953125,-5.767822265625,50.6134033203125
19.9499999,9.916783332824707,-2.918531894683838,0.2825157940387726,-12.6495361328125,-8.636474609375,59.7076416015625
19.9699999,9.99100399017334,-3.043030261993408,0.3734954595565796,-5.3558349609375,-11.932373046875,66.497802734375
19.9899999,9.947908401489258,-3.2369606494903564,0.5578489899635315,1.8310546875,-17.364501953125,71.0296630859375
20.0099999,9.806650161743164,-3.3854012489318848,0.6344634294509888,-0.244140625,-28.7017822265625,75.5767822265625
20.0299999,9.715670585632324,-3.3877954483032227,0.37828385829925537,-21.4691162109375,-43.7469482421875,82.6873779296875
20.0499999,9.873687744140625,-3.177105665206909,-0.35673606395721436,-66.925048828125,-56.793212890625,92.95654296875
20.0699999,10.666168212890625,-2.762908697128296,-1.5179238319396973,-131.3629150390625,-63.8885498046875,105.65185546875
20.089999900000002,12.504915237426758,-2.0877439975738525,-2.9281086921691895,-200.958251953125,-67.352294921875,121.826171875
20.109999900000002,15.492878913879395,-1.400607943534851,-4.230554580688477,-266.082763671875,-75.6378173828125,138.5498046875
20.1299999,19.476831436157227,-0.6392518281936646,-4.857835292816162,-315.8416748046875,-93.7957763671875,151.91650390625
20.1499999,23.949199676513672,-0.0694318488240242,-4.654327869415283,-352.5543212890625,-113.2049560546875,148.3154296875
20.1699999,27.600357055664062,0.2322375625371933,-3.780444383621216,-392.88330078125,-122.5738525390625,139.9993896484375
20.1899999,29.17334747314453,-0.08619125932455063,-2.58813214302063,-460.540771484375,-130.615234375,164.9322509765625
20.2099999,26.79351043701172,-0.9385270476341248,-1.702277421951294,-500,-143.9971923828125,230.6976318359375
20.2299999,18.70350456237793,-2.1164743900299072,-1.436521053314209,-500,-164.7796630859375,313.41552734375
20.249999900000002,3.7493197917938232,-3.308786630630493,-3.0573954582214355,-475.1129150390625,-186.7523193359375,392.27294921875
20.269999900000002,-14.264654159545898,-4.702212333679199,-5.702988624572754,-398.2696533203125,-186.187744140625,425.7354736328125
20.2899999,-28.99378204345703,-3.8738183975219727,-7.8529815673828125,-335.235595703125,-94.8486328125,362.396240234375
20.3099999,-37.270538330078125,-3.445256233215332,-8.554482460021973,-309.0972900390625,128.2958984375,54.718017578125
20.3299999,-36.466087341308594,-2.9017724990844727,-7.8098859786987305,-58.10546875,186.0198974609375,-237.1063232421875
