# Time (seconds),Accel_X,Accel_Y,Accel_Z,Gyro_X,Gyro_Y,Gyro_Z
0.0012499,10.050858497619629,-4.474762916564941,-0.011971008032560349,7.781982421875,-14.09912109375,-28.5491943359375
0.0037499,10.002974510192871,-4.448426723480225,-0.028730420395731926,10.0860595703125,-14.1143798828125,-29.23583984375
0.0062499,9.950302124023438,-4.417302131652832,-0.043095629662275314,12.4053955078125,-14.1754150390625,-30.0445556640625
0.0087499,9.897629737854004,-4.395754337310791,-0.0454898327589035,14.2669677734375,-14.1143798828125,-30.94482421875
0.0112499,9.84256362915039,-4.381389141082764,-0.0454898327589035,16.265869140625,-14.0380859375,-31.6619873046875
0.0137499,9.794678688049316,-4.376600742340088,-0.033518824726343155,18.1732177734375,-14.1754150390625,-32.073974609375
0.016249899999999998,9.751583099365234,-4.37420654296875,-0.021547814831137657,20.2178955078125,-14.190673828125,-32.470703125
0.0187499,9.720458984375,-4.369418144226074,-0.011971008032560349,22.247314453125,-14.3890380859375,-32.806396484375
0.021249900000000002,9.701305389404297,-4.367023944854736,-0.004788403399288654,24.078369140625,-14.46533203125,-32.77587890625
0.023749899999999997,9.68694019317627,-4.364629745483398,-0.004788403399288654,25.81787109375,-14.7705078125,-32.71484375
0.0262499,9.670180320739746,-4.369418144226074,-0.0071826050989329815,27.374267578125,-14.801025390625,-32.7911376953125
0.028749900000000002,9.651026725769043,-4.383783340454102,-0.014365210197865963,29.1748046875,-14.7857666015625,-32.6690673828125
0.031249899999999997,9.619902610778809,-4.395754337310791,-0.014365210197865963,31.1431884765625,-14.7552490234375,-32.7606201171875
0.0337499,9.586383819580078,-4.4077253341674805,-0.011971008032560349,32.8826904296875,-15.228271484375,-32.4249267578125
0.0362499,9.550470352172852,-4.410119533538818,0.004788403399288654,34.698486328125,-15.6402587890625,-32.1197509765625
0.0387499,9.526528358459473,-4.4077253341674805,0.035913024097681046,36.529541015625,-15.56396484375,-31.8603515625
0.0412499,9.516951560974121,-4.402936935424805,0.08379705995321274,38.1011962890625,-15.5181884765625,-31.5399169921875
0.0437499,9.531316757202148,-4.398148536682129,0.15322890877723694,39.9169921875,-15.9454345703125,-31.097412109375
0.0462499,9.567230224609375,-4.393360137939453,0.22505496442317963,41.595458984375,-15.869140625,-30.57861328125
0.0487499,9.617507934570312,-4.3861775398254395,0.31364041566848755,43.121337890625,-15.7318115234375,-30.426025390625
0.0512499,9.677363395690918,-4.371812343597412,0.40222588181495667,44.7235107421875,-15.9149169921875,-29.8004150390625
0.053749899999999996,9.739612579345703,-4.350264549255371,0.4812345504760742,46.4935302734375,-15.9912109375,-29.2510986328125
0.0562499,9.792284965515137,-4.316745758056641,0.5506663918495178,47.7752685546875,-15.7012939453125,-28.8848876953125
0.0587499,9.835380554199219,-4.28322696685791,0.5937620401382446,49.1790771484375,-15.4571533203125,-28.3660888671875
0.061249899999999996,9.86650562286377,-4.24970817565918,0.6200982332229614,50.5828857421875,-15.472412109375,-27.923583984375
0.0637499,9.871294021606445,-4.230554580688477,0.629675030708313,52.0782470703125,-15.44189453125,-27.8167724609375
0.0662499,9.854534149169922,-4.228160381317139,0.6392518281936646,53.6041259765625,-15.31982421875,-27.862548828125
0.0687499,9.80904483795166,-4.240131378173828,0.646434485912323,55.2978515625,-15.472412109375,-27.374267578125
0.0712499,9.746794700622559,-4.252102375030518,0.6560112833976746,57.220458984375,-15.4876708984375,-27.2064208984375
0.0737499,9.679757118225098,-4.2544965744018555,0.6655880808830261,58.5784912109375,-15.960693359375,-26.9775390625
0.0762499,9.617507934570312,-4.220977783203125,0.6727706789970398,59.7076416015625,-16.41845703125,-26.6571044921875
0.0787499,9.579200744628906,-4.14915132522583,0.6727706789970398,60.48583984375,-16.7236328125,-26.458740234375
0.0812499,9.552865028381348,-4.043806552886963,0.6607996821403503,61.065673828125,-16.9677734375,-26.0467529296875
0.0837499,9.545681953430176,-3.914519786834717,0.6344634294509888,61.4471435546875,-17.1356201171875,-25.6195068359375
0.0862499,9.536105155944824,-3.7828385829925537,0.6009446382522583,61.3555908203125,-17.2882080078125,-25.3753662109375
0.0887499,9.516951560974121,-3.663128614425659,0.5506663918495178,60.943603515625,-17.5323486328125,-24.8565673828125
0.0912499,9.476250648498535,-3.555389642715454,0.49799394607543945,60.699462890625,-17.9290771484375,-24.5208740234375
0.0937499,9.41400146484375,-3.450044631958008,0.4381389021873474,59.99755859375,-18.2647705078125,-24.3072509765625
0.0962499,9.337387084960938,-3.3494882583618164,0.3734954595565796,58.7310791015625,-18.6767578125,-24.078369140625
0.0987499,9.246406555175781,-3.2321722507476807,0.31603461503982544,57.9986572265625,-19.1802978515625,-23.7274169921875
0.1012499,9.069235801696777,-2.983175277709961,0.21787235140800476,54.3670654296875,-20.0653076171875,-23.468017578125
0.1037499,9.069235801696777,-2.983175277709961,0.21787235140800476,54.3670654296875,-20.0653076171875,-23.468017578125
0.1062499,8.923190116882324,-2.7485435009002686,0.1364694982767105,50.23193359375,-21.05712890625,-22.8118896484375
0.1087499,8.923190116882324,-2.7485435009002686,0.1364694982767105,50.23193359375,-21.05712890625,-22.8118896484375
0.1112499,8.81784439086914,-2.5330653190612793,0.05027823522686958,45.074462890625,-22.003173828125,-22.5982666015625
0.1137499,8.81784439086914,-2.5330653190612793,0.05027823522686958,45.074462890625,-22.003173828125,-22.5982666015625
0.1162499,8.746018409729004,-2.3247697353363037,-0.040701430290937424,39.093017578125,-23.040771484375,-22.308349609375
0.1187499,8.746018409729004,-2.3247697353363037,-0.040701430290937424,39.093017578125,-23.040771484375,-22.308349609375
0.1212499,8.671798706054688,-2.1332337856292725,-0.11971008777618408,32.1502685546875,-23.8494873046875,-21.697998046875
0.1237499,8.671798706054688,-2.1332337856292725,-0.11971008777618408,32.1502685546875,-23.8494873046875,-21.697998046875
0.1262499,8.580819129943848,-1.987187385559082,-0.17717093229293823,24.4903564453125,-24.35302734375,-21.3470458984375
0.1287499,8.580819129943848,-1.987187385559082,-0.17717093229293823,24.4903564453125,-24.35302734375,-21.3470458984375
0.1312499,8.485051155090332,-1.8914192914962769,-0.20350714027881622,16.357421875,-24.6734619140625,-20.69091796875
0.1337499,8.485051155090332,-1.8914192914962769,-0.20350714027881622,16.357421875,-24.6734619140625,-20.69091796875
0.1362499,8.396465301513672,-1.8483237028121948,-0.1867477297782898,8.1329345703125,-25.2532958984375,-20.0653076171875
0.1387499,8.396465301513672,-1.8483237028121948,-0.1867477297782898,8.1329345703125,-25.2532958984375,-20.0653076171875
0.1412499,8.348581314086914,-1.8794482946395874,-0.15562310814857483,0.1678466796875,-25.4669189453125,-19.378662109375
0.1437499,8.348581314086914,-1.8794482946395874,-0.15562310814857483,0.1678466796875,-25.4669189453125,-19.378662109375
0.1462499,8.35097599029541,-1.9704279899597168,-0.15562310814857483,-6.988525390625,-25.1922607421875,-18.5699462890625
0.1487499,8.35097599029541,-1.9704279899597168,-0.15562310814857483,-6.988525390625,-25.1922607421875,-18.5699462890625
0.1512499,8.348581314086914,-2.0614075660705566,-0.20111294090747833,-13.671875,-25.1007080078125,-17.9443359375
0.1537499,8.348581314086914,-2.0614075660705566,-0.20111294090747833,-13.671875,-25.1007080078125,-17.9443359375
0.1562499,8.31985092163086,-2.1380221843719482,-0.24420857429504395,-19.3023681640625,-25.1312255859375,-17.4713134765625
0.1587499,8.31985092163086,-2.1380221843719482,-0.24420857429504395,-19.3023681640625,-25.1312255859375,-17.4713134765625
0.1612499,8.29830265045166,-2.2146365642547607,-0.2513911724090576,-24.6429443359375,-25.0701904296875,-17.1661376953125
0.1637499,8.29830265045166,-2.2146365642547607,-0.2513911724090576,-24.6429443359375,-25.0701904296875,-17.1661376953125
0.1662499,8.310274124145508,-2.3032219409942627,-0.24660277366638184,-27.9388427734375,-25.0244140625,-16.754150390625
0.1687499,8.310274124145508,-2.3032219409942627,-0.24660277366638184,-27.9388427734375,-25.0244140625,-16.754150390625
0.1712499,8.329427719116211,-2.4157495498657227,-0.24660277366638184,-30.914306640625,-24.5819091796875,-16.7236328125
0.1737499,8.329427719116211,-2.4157495498657227,-0.24660277366638184,-30.914306640625,-24.5819091796875,-16.7236328125
0.17624990000000001,8.343792915344238,-2.513911724090576,-0.2322375625371933,-32.9437255859375,-24.3377685546875,-16.3116455078125
0.1787499,8.343792915344238,-2.513911724090576,-0.2322375625371933,-32.9437255859375,-24.3377685546875,-16.3116455078125
0.1812499,8.358158111572266,-2.5929205417633057,-0.18914192914962769,-34.3017578125,-23.834228515625,-16.0675048828125
0.1837499,8.358158111572266,-2.5929205417633057,-0.18914192914962769,-34.3017578125,-23.834228515625,-16.0675048828125
0.1862499,8.389283180236816,-2.7006595134735107,-0.12210428714752197,-34.5001220703125,-23.2391357421875,-15.9912109375
0.1887499,8.389283180236816,-2.7006595134735107,-0.12210428714752197,-34.5001220703125,-23.2391357421875,-15.9912109375
0.1912499,8.434772491455078,-2.832340717315674,-0.038307227194309235,-33.233642578125,-22.5067138671875,-15.6402587890625
0.1937499,8.434772491455078,-2.832340717315674,-0.038307227194309235,-33.233642578125,-22.5067138671875,-15.6402587890625
0.1962499,8.492233276367188,-2.9233202934265137,0.05027823522686958,-31.2957763671875,-21.8353271484375,-15.3045654296875
0.1987499,8.492233276367188,-2.9233202934265137,0.05027823522686958,-31.2957763671875,-21.8353271484375,-15.3045654296875
0.2012499,8.540117263793945,-2.96162748336792,0.1388636976480484,-28.656005859375,-20.4925537109375,-14.6942138671875
0.2037499,8.540117263793945,-2.96162748336792,0.1388636976480484,-28.656005859375,-20.4925537109375,-14.6942138671875
0.2062499,8.56884765625,-2.9903578758239746,0.22505496442317963,-25.9246826171875,-19.561767578125,-14.068603515625
0.20874990000000002,8.56884765625,-2.9903578758239746,0.22505496442317963,-25.9246826171875,-19.561767578125,-14.068603515625
0.2112499,8.576030731201172,-3.0334534645080566,0.30885201692581177,-22.369384765625,-18.61572265625,-12.9852294921875
0.2137499,8.576030731201172,-3.0334534645080566,0.30885201692581177,-22.369384765625,-18.61572265625,-12.9852294921875
0.2162499,8.564059257507324,-3.093308687210083,0.3758896589279175,-18.5394287109375,-17.486572265625,-12.20703125
0.2187499,8.564059257507324,-3.093308687210083,0.3758896589279175,-18.5394287109375,-17.486572265625,-12.20703125
0.2212499,8.554482460021973,-3.1244332790374756,0.38307225704193115,-14.4500732421875,-16.0369873046875,-10.986328125
0.2237499,8.554482460021973,-3.1244332790374756,0.38307225704193115,-14.4500732421875,-16.0369873046875,-10.986328125
0.2262499,8.552088737487793,-3.095702886581421,0.33997663855552673,-10.223388671875,-14.8162841796875,-9.94873046875
0.2287499,8.552088737487793,-3.095702886581421,0.33997663855552673,-10.223388671875,-14.8162841796875,-9.94873046875
0.2312499,8.559270858764648,-3.0142998695373535,0.2801215946674347,-5.9661865234375,-13.1988525390625,-8.6669921875
0.2337499,8.559270858764648,-3.0142998695373535,0.2801215946674347,-5.9661865234375,-13.1988525390625,-8.6669921875
0.2362499,8.592789649963379,-2.8802247047424316,0.22505496442317963,-2.44140625,-12.542724609375,-7.3089599609375
0.23874990000000001,8.592789649963379,-2.8802247047424316,0.22505496442317963,-2.44140625,-12.542724609375,-7.3089599609375
0.2412499,8.621520042419434,-2.7102363109588623,0.16759411990642548,0.6256103515625,-11.688232421875,-6.256103515625
0.2437499,8.621520042419434,-2.7102363109588623,0.16759411990642548,0.6256103515625,-11.688232421875,-6.256103515625
0.2462499,8.635885238647461,-2.5546131134033203,0.1173158809542656,3.326416015625,-10.528564453125,-4.638671875
0.2487499,8.635885238647461,-2.5546131134033203,0.1173158809542656,3.326416015625,-10.528564453125,-4.638671875
0.2512499,8.674192428588867,-2.4229321479797363,0.05985504388809204,5.401611328125,-9.6435546875,-3.1890869140625
0.25374990000000003,8.674192428588867,-2.4229321479797363,0.05985504388809204,5.401611328125,-9.6435546875,-3.1890869140625
0.25624990000000003,8.729259490966797,-2.2816741466522217,-0.009576806798577309,6.561279296875,-8.636474609375,-1.922607421875
0.25874990000000003,8.729259490966797,-2.2816741466522217,-0.009576806798577309,6.561279296875,-8.636474609375,-1.922607421875
0.26124990000000003,8.769960403442383,-2.1332337856292725,-0.05985504388809204,7.2021484375,-7.5531005859375,-0.2593994140625
0.26374990000000004,8.769960403442383,-2.1332337856292725,-0.05985504388809204,7.2021484375,-7.5531005859375,-0.2593994140625
0.26624990000000004,8.772355079650879,-1.9943699836730957,-0.08379705995321274,7.476806640625,-6.5765380859375,1.3427734375
0.26874990000000004,8.757989883422852,-1.9297266006469727,-0.090979665517807,7.2174072265625,-6.2103271484375,1.739501953125
0.27124990000000004,8.734047889709473,-1.8770540952682495,-0.090979665517807,6.8817138671875,-5.706787109375,2.5634765625
0.27374990000000005,8.712499618530273,-1.8267759084701538,-0.08379705995321274,6.6986083984375,-5.4168701171875,3.173828125
0.27624990000000005,8.702922821044922,-1.7860745191574097,-0.07182604819536209,6.3934326171875,-5.126953125,3.84521484375
0.27874990000000005,8.700529098510742,-1.7549498081207275,-0.06224924325942993,5.615234375,-4.7454833984375,4.5013427734375
0.28124990000000005,8.707711219787598,-1.7381904125213623,-0.05267243832349777,4.8980712890625,-4.2724609375,5.401611328125
0.28374990000000005,8.71728801727295,-1.742978811264038,-0.05027823522686958,4.08935546875,-3.72314453125,5.828857421875
0.28624990000000006,8.722076416015625,-1.766920804977417,-0.05746084079146385,3.5552978515625,-3.47900390625,6.5155029296875
0.28874990000000006,8.724471092224121,-1.8052281141281128,-0.07422025501728058,2.7618408203125,-3.11279296875,7.26318359375
0.2912499,8.724471092224121,-1.845929503440857,-0.10055647045373917,2.0904541015625,-2.7008056640625,7.781982421875
0.2937499,8.712499618530273,-1.886630892753601,-0.13407529890537262,1.03759765625,-2.3956298828125,8.453369140625
0.2962499,8.700529098510742,-1.9177556037902832,-0.17238251864910126,0.1373291015625,-2.1820068359375,9.3841552734375
0.2987499,8.678980827331543,-1.9512743949890137,-0.2059013396501541,-0.7171630859375,-1.6632080078125,10.345458984375
0.3012499,8.652645111083984,-1.9823989868164062,-0.2346317619085312,-2.044677734375,-1.6632080078125,11.3067626953125
0.3037499,8.616731643676758,-2.0231003761291504,-0.2585737705230713,-3.1585693359375,-1.5869140625,12.0849609375
0.3062499,8.573636054992676,-2.0638017654418945,-0.2777273952960968,-4.1656494140625,-1.46484375,12.7410888671875
0.3087499,8.520963668823242,-2.118868589401245,-0.2944868206977844,-5.096435546875,-1.2359619140625,13.824462890625
0.3112499,8.463502883911133,-2.1811177730560303,-0.30885201692581177,-6.2255859375,-1.2359619140625,14.9078369140625
0.3137499,8.403648376464844,-2.252943754196167,-0.31364041566848755,-7.354736328125,-1.03759765625,15.7318115234375
0.31624990000000003,8.355764389038086,-2.3271639347076416,-0.31842881441116333,-8.4228515625,-1.068115234375,16.693115234375
0.31874990000000003,8.329427719116211,-2.4013843536376953,-0.31364041566848755,-9.368896484375,-1.1138916015625,17.5933837890625
0.32124990000000003,8.327033042907715,-2.47560453414917,-0.30885201692581177,-10.4827880859375,-0.9918212890625,18.6004638671875
0.32374990000000003,8.358158111572266,-2.5474305152893066,-0.2968810200691223,-11.2762451171875,-1.03759765625,19.5770263671875
0.32624990000000004,8.413225173950195,-2.6216509342193604,-0.2753331959247589,-12.0697021484375,-0.6256103515625,20.4315185546875
0.32874990000000004,8.492233276367188,-2.695871114730835,-0.24420857429504395,-12.75634765625,-0.54931640625,21.4996337890625
0.33124990000000004,8.580819129943848,-2.765302896499634,-0.19871874153614044,-13.4429931640625,-0.396728515625,22.491455078125
0.33374990000000004,8.686163902282715,-2.82515811920166,-0.14365209639072418,-13.9312744140625,-0.2288818359375,23.5443115234375
0.33624990000000005,8.798690795898438,-2.8802247047424316,-0.08379705995321274,-14.3890380859375,0.0152587890625,24.0631103515625
0.33874990000000005,8.913613319396973,-2.9305028915405273,-0.011971008032560349,-14.739990234375,0.518798828125,24.7344970703125
0.34124990000000005,9.030928611755371,-2.983175277709961,0.06464344263076782,-15.0146484375,0.9002685546875,25.5279541015625
0.34374990000000005,9.14585018157959,-3.0334534645080566,0.15083470940589905,-15.0146484375,1.190185546875,26.2451171875
0.34624990000000005,9.253589630126953,-3.0765492916107178,0.2537853717803955,-14.923095703125,1.495361328125,26.641845703125
0.34874990000000006,9.35654067993164,-3.1076738834381104,0.35673606395721436,-14.801025390625,2.2430419921875,27.2064208984375
0.35124990000000006,9.454702377319336,-3.1220390796661377,0.4572925269603729,-14.801025390625,2.899169921875,27.77099609375
0.3537499,9.545681953430176,-3.1196448802948,0.5506663918495178,-14.6026611328125,3.662109375,27.7557373046875
0.3562499,9.641449928283691,-3.1052796840667725,0.6344634294509888,-14.2364501953125,4.08935546875,28.0914306640625
0.3587499,9.739612579345703,-3.0861260890960693,0.7086837291717529,-14.0380859375,4.8065185546875,28.25927734375
0.3612499,9.837775230407715,-3.064578056335449,0.7829039692878723,-13.9007568359375,5.5999755859375,28.106689453125
0.3637499,9.928754806518555,-3.050212860107422,0.8451532125473022,-13.641357421875,6.4849853515625,28.0303955078125
0.3662499,10.000580787658691,-3.0382418632507324,0.9026140570640564,-13.214111328125,7.01904296875,28.1982421875
0.3687499,10.050858497619629,-3.023876667022705,0.950498104095459,-12.603759765625,7.6141357421875,27.89306640625
0.3712499,10.08198356628418,-3.0166940689086914,0.9864110946655273,-12.0849609375,8.270263671875,27.6031494140625
0.3737499,10.101137161254883,-3.00711727142334,1.0127472877502441,-11.474609375,8.9111328125,27.16064453125
0.3762499,10.103530883789062,-3.004723072052002,1.0319008827209473,-10.8795166015625,9.46044921875,26.5960693359375
0.37874990000000003,10.103530883789062,-3.002328872680664,1.039083480834961,-10.2386474609375,9.9029541015625,25.93994140625
0.38124990000000003,10.096348762512207,-2.9975404739379883,1.0414776802062988,-9.4146728515625,10.162353515625,25.1312255859375
0.38374990000000003,10.091560363769531,-2.985569477081299,1.0438719987869263,-8.3465576171875,10.5133056640625,24.5208740234375
0.38624990000000003,10.091560363769531,-2.959233283996582,1.0438719987869263,-7.8277587890625,10.772705078125,23.98681640625
0.38874990000000004,10.096348762512207,-2.9281086921691895,1.0438719987869263,-6.8359375,10.7574462890625,23.0865478515625
0.39124990000000004,10.108319282531738,-2.894589900970459,1.05105459690094,-5.9356689453125,10.955810546875,22.430419921875
0.39374990000000004,10.120290756225586,-2.8634653091430664,1.0558429956436157,-5.2490234375,10.772705078125,21.636962890625
0.39624990000000004,10.137049674987793,-2.8395233154296875,1.0678139925003052,-4.608154296875,10.8489990234375,20.599365234375
0.39874990000000005,10.156203269958496,-2.8227639198303223,1.0678139925003052,-3.4332275390625,10.589599609375,19.7296142578125
0.40124990000000005,10.182539939880371,-2.8107926845550537,1.0654197931289673,-2.3956298828125,10.25390625,18.8446044921875
0.40374990000000005,10.211270332336426,-2.806004285812378,1.05105459690094,-1.3885498046875,10.0555419921875,17.974853515625
0.40624990000000005,10.24000072479248,-2.801215887069702,1.0319008827209473,-0.640869140625,9.918212890625,16.9830322265625
0.40874990000000005,10.266336441040039,-2.7892448902130127,1.0079588890075684,0.42724609375,9.4451904296875,16.0064697265625
0.41124990000000006,10.283096313476562,-2.765302896499634,0.9864110946655273,1.007080078125,9.09423828125,14.95361328125
0.41374990000000006,10.29746150970459,-2.736572504043579,0.9600749015808105,1.77001953125,8.636474609375,13.916015625
0.41624990000000006,10.307038307189941,-2.691082715988159,0.9361328482627869,2.593994140625,8.1024169921875,13.00048828125
0.4187499,10.319009780883789,-2.647987127304077,0.9074024558067322,3.2196044921875,7.5225830078125,12.14599609375
0.4212499,10.32858657836914,-2.6001031398773193,0.8786720037460327,3.7689208984375,7.14111328125,11.1541748046875
0.4237499,10.340557098388672,-2.5546131134033203,0.849941611289978,4.425048828125,6.9122314453125,10.3912353515625
0.4262499,10.3549222946167,-2.5019407272338867,0.8236053586006165,4.9591064453125,6.0577392578125,9.613037109375
0.4287499,10.362105369567871,-2.4468741416931152,0.7996633648872375,5.279541015625,5.55419921875,8.6517333984375
0.4312499,10.369287490844727,-2.3918075561523438,0.7805097699165344,5.31005859375,4.8675537109375,7.598876953125
0.4337499,10.374075889587402,-2.33913516998291,0.7613561153411865,5.4168701171875,4.241943359375,6.439208984375
0.4362499,10.378864288330078,-2.3032219409942627,0.7541735172271729,5.4473876953125,3.448486328125,5.828857421875
0.4387499,10.390835762023926,-2.276885747909546,0.7422025203704834,5.5084228515625,2.7008056640625,5.06591796875
0.44124990000000003,10.407594680786133,-2.2625205516815186,0.7398083209991455,5.5999755859375,2.13623046875,4.1351318359375
0.44374990000000003,10.424354553222656,-2.252943754196167,0.7326257228851318,5.2032470703125,1.434326171875,3.4637451171875
0.44624990000000003,10.44350814819336,-2.2433669567108154,0.727837324142456,4.913330078125,1.007080078125,2.655029296875
0.44874990000000003,10.460267066955566,-2.229001760482788,0.727837324142456,4.730224609375,0.640869140625,1.7852783203125
0.45124990000000004,10.467450141906738,-2.212242364883423,0.7230489253997803,4.5928955078125,0.2899169921875,1.0833740234375
0.45374990000000004,10.47942066192627,-2.190694570541382,0.7206547260284424,4.058837890625,-0.4425048828125,0.2899169921875
0.45624990000000004,10.486603736877441,-2.166752576828003,0.7086837291717529,3.3111572265625,-1.1444091796875,-0.67138671875
0.45874990000000004,10.500968933105469,-2.142810583114624,0.6943184733390808,2.8228759765625,-1.1444091796875,-1.4495849609375
0.46124990000000005,10.512939453125,-2.118868589401245,0.6751648783683777,2.3651123046875,-1.6021728515625,-2.2125244140625
0.46374990000000005,10.527304649353027,-2.0925323963165283,0.6536170840263367,1.9683837890625,-1.953125,-3.0670166015625
0.46624990000000005,10.5344877243042,-2.0590133666992188,0.6272808313369751,1.3427734375,-2.50244140625,-3.60107421875
0.46874990000000005,10.536881446838379,-2.027888774871826,0.6057330369949341,0.6561279296875,-3.021240234375,-4.364013671875
0.47124990000000005,10.539276123046875,-2.0039467811584473,0.5841852426528931,0.213623046875,-3.4942626953125,-5.0811767578125
0.47374990000000006,10.5344877243042,-1.9919757843017578,0.5722141861915588,-0.2288818359375,-4.150390625,-5.55419921875
0.47624990000000006,10.5344877243042,-1.9943699836730957,0.5578489899635315,-0.8087158203125,-4.69970703125,-6.2408447265625
0.47874990000000006,10.532093048095703,-2.0039467811584473,0.5363011956214905,-1.4801025390625,-5.0811767578125,-6.8511962890625
0.4812499,10.529699325561523,-2.0183119773864746,0.5171475410461426,-1.89208984375,-5.5084228515625,-7.38525390625
0.4837499,10.517727851867676,-2.0398597717285156,0.4908113479614258,-2.166748046875,-5.8135986328125,-8.087158203125
0.4862499,10.496180534362793,-2.054224967956543,0.4668693244457245,-2.5177001953125,-6.2408447265625,-8.544921875
0.4887499,10.469843864440918,-2.0685901641845703,0.4405331015586853,-3.11279296875,-6.6680908203125,-8.8653564453125
0.4912499,10.429142951965332,-2.0829553604125977,0.40462008118629456,-3.47900390625,-7.0648193359375,-9.3841552734375
0.4937499,10.390835762023926,-2.0901381969451904,0.3663128614425659,-3.631591796875,-7.6751708984375,-9.5977783203125
0.4962499,10.342951774597168,-2.099714994430542,0.3280056416988373,-3.90625,-8.0718994140625,-9.8114013671875
0.4987499,10.29746150970459,-2.1092917919158936,0.28969839215278625,-4.0283203125,-8.4991455078125,-9.8876953125
0.5012499,10.259154319763184,-2.1164743900299072,0.2561795711517334,-4.3182373046875,-8.9874267578125,-10.1776123046875
0.5037499000000001,10.223240852355957,-2.1308395862579346,0.22026655077934265,-4.730224609375,-9.0484619140625,-10.345458984375
0.5062499,10.196905136108398,-2.140416383743286,0.18914192914962769,-4.8980712890625,-9.4757080078125,-10.3759765625
0.5087499000000001,10.1753568649292,-2.1523873805999756,0.1628057211637497,-5.3253173828125,-9.7503662109375,-10.5438232421875
0.5112499,10.158597946166992,-2.164358377456665,0.1364694982767105,-5.3558349609375,-10.1470947265625,-10.467529296875
0.5137499,10.144232749938965,-2.1739351749420166,0.11252748221158981,-5.5999755859375,-10.3912353515625,-10.4217529296875
0.5162499,10.129867553710938,-2.190694570541382,0.0933738648891449,-5.8746337890625,-10.55908203125,-10.4217529296875
0.5187499,10.108319282531738,-2.2146365642547607,0.07661445438861847,-5.706787109375,-10.772705078125,-10.19287109375
0.5212499,10.079588890075684,-2.250549554824829,0.06703764945268631,-5.828857421875,-10.9710693359375,-10.0860595703125
0.5237499,10.041281700134277,-2.2912509441375732,0.06224924325942993,-5.5999755859375,-11.0931396484375,-10.0250244140625
0.5262499,9.995792388916016,-2.33913516998291,0.05506663769483566,-5.2947998046875,-11.41357421875,-9.5672607421875
0.5287499,9.950302124023438,-2.3774423599243164,0.043095629662275314,-5.1422119140625,-11.5203857421875,-9.58251953125
0.5312499,9.907206535339355,-2.4133553504943848,0.026336219161748886,-4.9285888671875,-11.6424560546875,-9.3841552734375
0.5337499,9.873687744140625,-2.4396915435791016,0.011971008032560349,-4.638671875,-11.932373046875,-8.8653564453125
0.5362499000000001,9.84256362915039,-2.4636335372924805,-0.004788403399288654,-4.3792724609375,-12.2528076171875,-8.4075927734375
0.5387499,9.818621635437012,-2.4875755310058594,-0.019153613597154617,-4.08935546875,-12.14599609375,-7.99560546875
0.5412499000000001,9.794678688049316,-2.513911724090576,-0.026336219161748886,-3.692626953125,-12.0849609375,-7.6446533203125
0.5437499,9.775525093078613,-2.5330653190612793,-0.035913024097681046,-3.265380859375,-12.1307373046875,-7.415771484375
0.5462499000000001,9.758766174316406,-2.5474305152893066,-0.038307227194309235,-2.9144287109375,-11.993408203125,-7.0953369140625
0.5487499,9.744400978088379,-2.5522189140319824,-0.038307227194309235,-2.349853515625,-11.9476318359375,-6.6070556640625
0.5512499000000001,9.730035781860352,-2.5498247146606445,-0.038307227194309235,-1.708984375,-11.7645263671875,-6.195068359375
0.5537499,9.713275909423828,-2.5474305152893066,-0.040701430290937424,-1.5106201171875,-11.5509033203125,-6.0882568359375
0.5562499000000001,9.68694019317627,-2.542642116546631,-0.038307227194309235,-1.251220703125,-11.5966796875,-5.645751953125
0.5587499,9.653421401977539,-2.542642116546631,-0.043095629662275314,-0.9918212890625,-11.383056640625,-5.3558349609375
0.5612499000000001,9.617507934570312,-2.5498247146606445,-0.047884032130241394,-0.67138671875,-11.016845703125,-4.8980712890625
0.5637499,9.576807022094727,-2.564189910888672,-0.05267243832349777,-0.30517578125,-10.833740234375,-4.5166015625
0.5662499000000001,9.548076629638672,-2.5905263423919678,-0.05506663769483566,0.1220703125,-10.55908203125,-4.0435791015625
0.5687499,9.526528358459473,-2.6240451335906982,-0.05506663769483566,0.3814697265625,-10.0860595703125,-3.936767578125
0.5712499000000001,9.50737476348877,-2.6623523235321045,-0.05746084079146385,0.7476806640625,-9.8876953125,-3.60107421875
0.5737499,9.490615844726562,-2.7006595134735107,-0.06224924325942993,1.129150390625,-9.8114013671875,-3.2196044921875
0.5762499000000001,9.473855972290039,-2.736572504043579,-0.08140286058187485,1.678466796875,-9.2010498046875,-2.9449462890625
0.5787499,9.452308654785156,-2.7748796939849854,-0.10534487664699554,2.2125244140625,-8.72802734375,-2.2430419921875
0.5812499,9.430760383605957,-2.808398485183716,-0.13407529890537262,2.4261474609375,-8.8043212890625,-2.0751953125
0.5837499,9.397241592407227,-2.8443117141723633,-0.1604115068912506,2.74658203125,-8.4686279296875,-1.8768310546875
0.5862499,9.354146003723145,-2.87064790725708,-0.18914192914962769,2.9754638671875,-8.11767578125,-1.5716552734375
0.5887499,9.30386734008789,-2.894589900970459,-0.21787235140800476,3.265380859375,-7.8125,-1.0986328125
0.5912499,9.248801231384277,-2.913743495941162,-0.23942017555236816,3.47900390625,-7.5531005859375,-0.7476806640625
0.5937499,9.193734169006348,-2.918531894683838,-0.2585737705230713,3.6468505859375,-7.415771484375,-0.3204345703125
0.5962499,9.141061782836914,-2.920926094055176,-0.27054479718208313,3.509521484375,-7.14111328125,0.0762939453125
0.5987499000000001,9.0859956741333,-2.9089550971984863,-0.2801215946674347,3.35693359375,-6.7291259765625,0.3662109375
0.6012499,9.045293807983398,-2.894589900970459,-0.28969839215278625,3.4637451171875,-6.378173828125,0.579833984375
0.6037499000000001,9.004592895507812,-2.8778305053710938,-0.30885201692581177,3.4027099609375,-6.103515625,0.79345703125
0.6062499,8.971074104309082,-2.8634653091430664,-0.3280056416988373,3.0975341796875,-5.9051513671875,1.129150390625
0.6087499000000001,8.944737434387207,-2.851494312286377,-0.35434186458587646,3.082275390625,-5.7830810546875,1.5716552734375
0.6112499,8.911218643188477,-2.8371291160583496,-0.37828385829925537,2.9144287109375,-5.3863525390625,1.6021728515625
0.6137499000000001,8.882488250732422,-2.8203697204589844,-0.3974374830722809,2.3040771484375,-4.974365234375,1.5716552734375
0.6162499,8.856152534484863,-2.806004285812378,-0.4118026793003082,1.9683837890625,-4.94384765625,1.8310546875
0.6187499000000001,8.829815864562988,-2.782062292098999,-0.4141969084739685,1.5411376953125,-4.608154296875,1.8157958984375
0.6212499,8.813055992126465,-2.760514497756958,-0.4141969084739685,0.732421875,-4.2877197265625,2.197265625
0.6237499000000001,8.801085472106934,-2.741360902786255,-0.40701428055763245,0.335693359375,-3.997802734375,2.50244140625
0.6262499,8.796297073364258,-2.7269957065582275,-0.40462008118629456,-0.335693359375,-3.570556640625,2.655029296875
0.6287499000000001,8.796297073364258,-2.734178304672241,-0.3998316824436188,-0.7781982421875,-3.173828125,2.838134765625
0.6312499,8.803479194641113,-2.7509377002716064,-0.3974374830722809,-1.28173828125,-2.5634765625,3.0059814453125
0.6337499000000001,8.80587387084961,-2.779668092727661,-0.395043283700943,-1.9683837890625,-2.197265625,3.4027099609375
0.6362499,8.815450668334961,-2.8155810832977295,-0.3902548849582672,-2.2125244140625,-1.77001953125,3.4942626953125
0.6387499000000001,8.825027465820312,-2.8443117141723633,-0.38546648621559143,-2.74658203125,-1.3427734375,3.5247802734375
0.6412499,8.832210540771484,-2.87064790725708,-0.38067805767059326,-3.41796875,-0.823974609375,3.84521484375
0.6437499,8.83699893951416,-2.8874073028564453,-0.37828385829925537,-3.8299560546875,-0.1983642578125,4.1046142578125
0.6462499,8.848969459533691,-2.896984100341797,-0.3711012601852417,-4.119873046875,0.1373291015625,4.33349609375
0.6487499,8.853757858276367,-2.894589900970459,-0.3687070608139038,-4.364013671875,0.7476806640625,4.7607421875
0.6512499,8.863334655761719,-2.8826189041137695,-0.363918662071228,-4.9896240234375,1.2969970703125,4.7760009765625
0.6537499,8.87051773071289,-2.8658595085144043,-0.35913026332855225,-5.279541015625,2.0294189453125,4.913330078125
0.6562499,8.877699851989746,-2.8562827110290527,-0.3471592366695404,-5.7373046875,2.38037109375,5.2337646484375
0.6587499,8.875306129455566,-2.849100112915039,-0.33279404044151306,-5.828857421875,2.86865234375,5.37109375
0.6612499000000001,8.877699851989746,-2.8586769104003906,-0.31124621629714966,-6.072998046875,3.5552978515625,5.4931640625
0.6637499,8.880094528198242,-2.868253707885742,-0.28969839215278625,-6.2408447265625,3.90625,5.615234375
0.6662499000000001,8.880094528198242,-2.8850131034851074,-0.27054479718208313,-6.1492919921875,4.425048828125,5.9356689453125
0.6687499,8.884882926940918,-2.896984100341797,-0.26336219906806946,-6.103515625,4.8675537109375,6.1187744140625
0.6712499000000001,8.889671325683594,-2.911349296569824,-0.26096799969673157,-6.0882568359375,5.279541015625,6.2255859375
0.6737499,8.899248123168945,-2.9161376953125,-0.26575639843940735,-6.2103271484375,5.8135986328125,6.256103515625
0.6762499000000001,8.908824920654297,-2.918531894683838,-0.2777273952960968,-6.011962890625,6.4849853515625,6.5765380859375
0.6787499,8.920795440673828,-2.911349296569824,-0.2825157940387726,-5.9967041015625,6.9427490234375,6.6070556640625
0.6812499000000001,8.937555313110352,-2.8993782997131348,-0.2968810200691223,-6.1798095703125,7.171630859375,6.77490234375
0.6837499,8.954314231872559,-2.8850131034851074,-0.30885201692581177,-6.1798095703125,7.8277587890625,7.080078125
0.6862499000000001,8.975862503051758,-2.8658595085144043,-0.3208230137825012,-6.1798095703125,8.30078125,7.4310302734375
0.6887499,8.999804496765137,-2.8419175148010254,-0.33518823981285095,-6.5155029296875,8.85009765625,7.659912109375
0.6912499000000001,9.01895809173584,-2.808398485183716,-0.3447650372982025,-6.866455078125,9.5672607421875,7.9803466796875
0.6937499,9.035717010498047,-2.7772738933563232,-0.3495534360408783,-7.0648193359375,9.8876953125,8.270263671875
0.6962499000000001,9.040505409240723,-2.7509377002716064,-0.3495534360408783,-7.415771484375,10.25390625,8.3465576171875
0.6987499,9.035717010498047,-2.736572504043579,-0.3447650372982025,-7.4462890625,10.711669921875,8.544921875
0.7012499000000001,9.02135181427002,-2.734178304672241,-0.33997663855552673,-7.7362060546875,11.138916015625,8.880615234375
0.7037499,8.999804496765137,-2.741360902786255,-0.33758243918418884,-7.9345703125,11.474609375,9.2010498046875
0.7062499,8.975862503051758,-2.7485435009002686,-0.33039984107017517,-8.0718994140625,11.7340087890625,9.4757080078125
0.7087499,8.951920509338379,-2.762908697128296,-0.3232172429561615,-8.11767578125,12.115478515625,9.58251953125
0.7112499,8.932766914367676,-2.779668092727661,-0.3064578175544739,-8.270263671875,12.75634765625,9.82666015625
0.7137499,8.925583839416504,-2.7940332889556885,-0.2849099934101105,-8.056640625,12.9852294921875,10.19287109375
0.7162499,8.927978515625,-2.808398485183716,-0.26096799969673157,-7.9193115234375,13.12255859375,10.6201171875
0.7187499,8.939949035644531,-2.806004285812378,-0.2346317619085312,-7.8277587890625,13.5040283203125,10.711669921875
0.7212499,8.956708908081055,-2.801215887069702,-0.21308395266532898,-7.781982421875,13.7939453125,10.8795166015625
0.7237499000000001,8.980650901794434,-2.779668092727661,-0.19393034279346466,-7.87353515625,14.007568359375,11.1083984375
0.7262499,9.004592895507812,-2.762908697128296,-0.17956513166427612,-8.056640625,14.2822265625,11.6424560546875
0.7287499000000001,9.028534889221191,-2.7557260990142822,-0.17477671802043915,-7.6141357421875,14.2822265625,11.962890625
0.7312499,9.045293807983398,-2.7557260990142822,-0.1628057211637497,-7.4615478515625,14.5416259765625,12.054443359375
0.7337499000000001,9.064447402954102,-2.765302896499634,-0.15562310814857483,-7.080078125,14.7247314453125,12.359619140625
0.7362499,9.081207275390625,-2.765302896499634,-0.14365209639072418,-6.7596435546875,14.7552490234375,12.6800537109375
0.7387499000000001,9.102754592895508,-2.7557260990142822,-0.1364694982767105,-6.77490234375,15.1519775390625,12.9547119140625
0.7412499,9.119514465332031,-2.7317841053009033,-0.12689268589019775,-6.9580078125,15.4571533203125,13.0767822265625
0.7437499000000001,9.131484985351562,-2.698265314102173,-0.12449848651885986,-7.232666015625,15.5029296875,13.1988525390625
0.7462499,9.138668060302734,-2.6671407222747803,-0.1173158809542656,-7.781982421875,15.4571533203125,13.3819580078125
0.7487499000000001,9.133879661560059,-2.6455929279327393,-0.1149216815829277,-7.965087890625,16.0064697265625,13.7481689453125
0.7512499,9.126696586608887,-2.6360161304473877,-0.1173158809542656,-8.270263671875,16.326904296875,13.7481689453125
0.7537499000000001,9.119514465332031,-2.631227731704712,-0.1173158809542656,-8.1939697265625,16.0980224609375,13.702392578125
0.7562499,9.114726066589355,-2.628833532333374,-0.11971008777618408,-8.72802734375,16.510009765625,13.7786865234375
0.7587499000000001,9.10993766784668,-2.6144683361053467,-0.11971008777618408,-9.0484619140625,16.7083740234375,13.9312744140625
0.7612499,9.105149269104004,-2.5929205417633057,-0.10773907601833344,-9.5367431640625,16.7388916015625,13.946533203125
0.7637499000000001,9.097966194152832,-2.5689783096313477,-0.09816227108240128,-10.223388671875,16.7388916015625,14.129638671875
0.7662499,9.093177795410156,-2.557007312774658,-0.08379705995321274,-11.077880859375,16.9830322265625,14.16015625
0.7687499000000001,9.083600997924805,-2.559401512145996,-0.07422025501728058,-11.7950439453125,17.1051025390625,14.1143798828125
0.7712499,9.074024200439453,-2.580949544906616,-0.06703764945268631,-12.4053955078125,17.364501953125,14.09912109375
0.7737499,9.057265281677246,-2.6144683361053467,-0.06224924325942993,-13.00048828125,17.2882080078125,14.1143798828125
0.7762499,9.040505409240723,-2.6455929279327393,-0.05027823522686958,-13.7939453125,17.63916015625,13.916015625
0.7787499,9.030928611755371,-2.676717519760132,-0.033518824726343155,-14.3890380859375,17.8375244140625,13.9617919921875
0.7812499,9.026140213012695,-2.7054479122161865,-0.016759412363171577,-14.6484375,17.8985595703125,13.8702392578125
0.7837499,9.030928611755371,-2.7317841053009033,-0.002394201699644327,-14.7247314453125,17.9595947265625,13.7176513671875
0.7862499000000001,9.045293807983398,-2.7676970958709717,0.004788403399288654,-14.8773193359375,18.096923828125,13.6260986328125
0.7887499,9.066842079162598,-2.7964274883270264,0.009576806798577309,-15.19775390625,17.9901123046875,13.6566162109375
0.7912499000000001,9.097966194152832,-2.829946517944336,0.014365210197865963,-15.31982421875,17.974853515625,13.5040283203125
0.7937499,9.136273384094238,-2.8562827110290527,0.019153613597154617,-15.472412109375,18.035888671875,13.5040283203125
0.7962499000000001,9.174580574035645,-2.8850131034851074,0.028730420395731926,-15.4571533203125,18.1427001953125,13.519287109375
0.7987499,9.210494041442871,-2.913743495941162,0.040701430290937424,-15.3961181640625,18.12744140625,13.5040283203125
0.8012499000000001,9.229647636413574,-2.9520506858825684,0.05746084079146385,-15.1824951171875,17.974853515625,13.5650634765625
0.8037499,9.239224433898926,-2.9975404739379883,0.07182604819536209,-14.8162841796875,17.913818359375,13.671875
0.8062499000000001,9.244012832641602,-3.0358476638793945,0.090979665517807,-14.5721435546875,17.9901123046875,13.5498046875
0.8087499,9.246406555175781,-3.069366693496704,0.10773907601833344,-13.9312744140625,17.852783203125,13.73291015625
0.8112499000000001,9.253589630126953,-3.0861260890960693,0.12689268589019775,-13.4735107421875,17.913818359375,13.6871337890625
0.8137499,9.263166427612305,-3.0837318897247314,0.15083470940589905,-12.939453125,17.88330078125,13.885498046875
0.8162499000000001,9.275136947631836,-3.069366693496704,0.17477671802043915,-12.5274658203125,17.791748046875,14.16015625
0.8187499,9.294290542602539,-3.043030261993408,0.19393034279346466,-12.2833251953125,17.8375244140625,14.3585205078125
0.8212499000000001,9.315838813781738,-3.0095114707946777,0.2082955539226532,-11.9476318359375,17.9595947265625,14.4805908203125
0.8237499,9.327810287475586,-2.983175277709961,0.21308395266532898,-11.5203857421875,18.096923828125,14.5111083984375
0.8262499000000001,9.332598686218262,-2.964021682739258,0.2106897532939911,-11.0931396484375,18.035888671875,14.7552490234375
0.8287499,9.32302188873291,-2.9496564865112305,0.21308395266532898,-10.8184814453125,17.88330078125,14.9993896484375
0.8312499000000001,9.30386734008789,-2.942473888397217,0.2082955539226532,-10.406494140625,18.0206298828125,15.0909423828125
0.8337499,9.272743225097656,-2.9305028915405273,0.20111294090747833,-10.2996826171875,17.974853515625,15.3656005859375
0.8362499,9.239224433898926,-2.9161376953125,0.1867477297782898,-9.979248046875,17.791748046875,15.4571533203125
0.8387499,9.20091724395752,-2.892195701599121,0.1604115068912506,-9.6282958984375,17.63916015625,15.6097412109375
0.8412499,9.172186851501465,-2.868253707885742,0.12928688526153564,-9.3994140625,17.578125,16.11328125
0.8437499,9.150638580322266,-2.8419175148010254,0.08619125932455063,-9.552001953125,17.364501953125,16.1895751953125
0.8462499,9.150638580322266,-2.8107926845550537,0.043095629662275314,-9.3994140625,17.120361328125,16.4642333984375
0.8487499000000001,9.157821655273438,-2.784456491470337,0.002394201699644327,-9.46044921875,16.9219970703125,16.6015625
0.8512499,9.17697525024414,-2.7509377002716064,-0.035913024097681046,-9.58251953125,16.754150390625,16.7999267578125
0.8537499000000001,9.196128845214844,-2.715024709701538,-0.06224924325942993,-9.6435546875,16.510009765625,17.1661376953125
0.8562499,9.224859237670898,-2.674323320388794,-0.07661445438861847,-9.8724365234375,16.4947509765625,17.5323486328125
0.8587499000000001,9.248801231384277,-2.631227731704712,-0.08140286058187485,-10.2691650390625,16.2200927734375,17.5018310546875
0.8612499,9.277531623840332,-2.585737943649292,-0.08140286058187485,-10.589599609375,16.326904296875,17.7001953125
0.8637499000000001,9.294290542602539,-2.5498247146606445,-0.07182604819536209,-10.6964111328125,16.0369873046875,18.035888671875
0.8662499,9.30386734008789,-2.5258827209472656,-0.05506663769483566,-11.016845703125,15.777587890625,18.0816650390625
0.8687499000000001,9.294290542602539,-2.5115175247192383,-0.023942016065120697,-11.2762451171875,15.4266357421875,18.12744140625
0.8712499,9.277531623840332,-2.513911724090576,0.016759412363171577,-11.474609375,14.984130859375,18.463134765625
0.8737499000000001,9.253589630126953,-2.52109432220459,0.05267243832349777,-11.65771484375,14.5721435546875,18.4478759765625
0.8762499,9.232041358947754,-2.537853717803955,0.090979665517807,-11.5203857421875,14.495849609375,18.402099609375
0.8787499000000001,9.210494041442871,-2.557007312774658,0.11252748221158981,-11.5814208984375,14.70947265625,18.5394287109375
0.8812499,9.191340446472168,-2.580949544906616,0.13168109953403473,-11.4898681640625,14.3585205078125,18.4478759765625
0.8837499000000001,9.174580574035645,-2.609679937362671,0.14365209639072418,-11.1083984375,14.0838623046875,18.310546875
0.8862499,9.162610054016113,-2.6360161304473877,0.15562310814857483,-11.1541748046875,14.09912109375,18.463134765625
0.8887499000000001,9.153033256530762,-2.669534921646118,0.1604115068912506,-10.68115234375,13.763427734375,18.3258056640625
0.8912499,9.14585018157959,-2.698265314102173,0.16998831927776337,-10.31494140625,13.1988525390625,18.5394287109375
0.8937499000000001,9.136273384094238,-2.734178304672241,0.1843535304069519,-9.765625,13.1072998046875,18.5546875
0.8962499,9.124302864074707,-2.762908697128296,0.19632454216480255,-8.9263916015625,12.87841796875,18.2342529296875
0.8987499,9.105149269104004,-2.7988216876983643,0.21547815203666687,-8.209228515625,12.298583984375,18.2037353515625
0.9012499,9.081207275390625,-2.8395233154296875,0.2346317619085312,-7.5225830078125,11.9781494140625,18.2647705078125
0.9037499,9.05487060546875,-2.8802247047424316,0.26096799969673157,-6.500244140625,11.383056640625,18.2647705078125
0.9062499,9.023746490478516,-2.920926094055176,0.28969839215278625,-5.340576171875,10.772705078125,18.4478759765625
0.9087499,8.99740982055664,-2.959233283996582,0.3256114423274994,-4.1351318359375,10.467529296875,18.585205078125
0.9112499000000001,8.971074104309082,-2.980781078338623,0.35913026332855225,-2.960205078125,9.918212890625,18.5546875
0.9137499,8.956708908081055,-2.9951462745666504,0.38546648621559143,-1.9378662109375,9.6435546875,18.646240234375
0.9162499000000001,8.939949035644531,-2.9927520751953125,0.40222588181495667,-0.518798828125,9.033203125,18.829345703125
0.9187499,8.935160636901855,-2.9879636764526367,0.4141969084739685,0.67138671875,8.697509765625,18.890380859375
0.9212499000000001,8.93037223815918,-2.9712042808532715,0.4213795065879822,1.8157958984375,8.1634521484375,19.0887451171875
0.9237499,8.927978515625,-2.9520506858825684,0.42856210470199585,3.265380859375,7.415771484375,19.53125
0.9262499000000001,8.925583839416504,-2.9233202934265137,0.4357447028160095,4.669189453125,6.6070556640625,19.7296142578125
0.9287499,8.920795440673828,-2.8826189041137695,0.4381389021873474,5.67626953125,6.04248046875,20.08056640625
0.9312499000000001,8.908824920654297,-2.8395233154296875,0.4357447028160095,6.77490234375,5.43212890625,20.7977294921875
0.9337499,8.887276649475098,-2.7964274883270264,0.43335050344467163,7.6904296875,4.7454833984375,21.2860107421875
0.9362499000000001,8.858546257019043,-2.7557260990142822,0.43095630407333374,8.3465576171875,3.9215087890625,22.003173828125
0.9387499,8.815450668334961,-2.717418909072876,0.42856210470199585,9.0179443359375,3.3111572265625,22.6593017578125
0.9412499000000001,8.712499618530273,-2.6384103298187256,0.43335050344467163,10.589599609375,1.800537109375,24.1546630859375
0.9437499,8.712499618530273,-2.6384103298187256,0.43335050344467163,10.589599609375,1.800537109375,24.1546630859375
0.9462499000000001,8.616731643676758,-2.5091233253479004,0.42616790533065796,11.199951171875,0.06103515625,26.4892578125
0.9487499,8.616731643676758,-2.5091233253479004,0.42616790533065796,11.199951171875,0.06103515625,26.4892578125
0.9512499000000001,8.540117263793945,-2.322375535964966,0.363918662071228,10.833740234375,-1.8310546875,28.9764404296875
0.9537499,8.540117263793945,-2.322375535964966,0.363918662071228,10.833740234375,-1.8310546875,28.9764404296875
0.9562499000000001,8.44195556640625,-2.126051187515259,0.22266076505184174,9.674072265625,-4.0435791015625,31.982421875
0.9587499,8.44195556640625,-2.126051187515259,0.22266076505184174,9.674072265625,-4.0435791015625,31.982421875
0.9612499,8.267178535461426,-1.9321208000183105,0.019153613597154617,7.659912109375,-6.805419921875,35.9039306640625
0.9637499,8.267178535461426,-1.9321208000183105,0.019153613597154617,7.659912109375,-6.805419921875,35.9039306640625
0.9662499,8.006210327148438,-1.7381904125213623,-0.21547815203666687,4.5623779296875,-9.8724365234375,39.7186279296875
0.9687499,8.006210327148438,-1.7381904125213623,-0.21547815203666687,4.5623779296875,-9.8724365234375,39.7186279296875
0.9712499,7.711723804473877,-1.5658079385757446,-0.4668693244457245,0.3204345703125,-13.12255859375,44.6319580078125
0.9737499000000001,7.711723804473877,-1.5658079385757446,-0.4668693244457245,0.3204345703125,-13.12255859375,44.6319580078125
0.9762499,7.462726593017578,-1.4053963422775269,-0.7350199222564697,-4.8828125,-16.66259765625,49.5147705078125
0.9787499000000001,7.462726593017578,-1.4053963422775269,-0.7350199222564697,-4.8828125,-16.66259765625,49.5147705078125
0.9812499,7.287950038909912,-1.2473790645599365,-1.0319008827209473,-10.4522705078125,-20.263671875,54.7332763671875
0.9837499000000001,7.287950038909912,-1.2473790645599365,-1.0319008827209473,-10.4522705078125,-20.263671875,54.7332763671875
0.9862499,7.161057472229004,-1.1085153818130493,-1.3503297567367554,-16.7694091796875,-24.0020751953125,60.72998046875
0.9887499000000001,7.161057472229004,-1.1085153818130493,-1.3503297567367554,-16.7694091796875,-24.0020751953125,60.72998046875
0.9912499,7.050923824310303,-1.0055646896362305,-1.6352397203445435,-23.4832763671875,-28.1219482421875,66.619873046875
0.9937499000000001,7.050923824310303,-1.0055646896362305,-1.6352397203445435,-23.4832763671875,-28.1219482421875,66.619873046875
0.9962499,6.9910688400268555,-0.9433154463768005,-1.889025092124939,-30.45654296875,-31.890869140625,73.1353759765625
0.9987499000000001,6.9910688400268555,-0.9433154463768005,-1.889025092124939,-30.45654296875,-31.890869140625,73.1353759765625
1.0012499,7.010222434997559,-0.9097966551780701,-2.123656988143921,-37.6739501953125,-35.4766845703125,79.8187255859375
1.0037498999999999,7.010222434997559,-0.9097966551780701,-2.123656988143921,-37.6739501953125,-35.4766845703125,79.8187255859375
1.0062499,7.072471618652344,-0.950498104095459,-2.3056161403656006,-44.61669921875,-39.2303466796875,86.883544921875
1.0087499,7.072471618652344,-0.950498104095459,-2.3056161403656006,-44.61669921875,-39.2303466796875,86.883544921875
1.0112499,7.15387487411499,-1.0773907899856567,-2.427720546722412,-48.9501953125,-42.48046875,93.68896484375
1.0137498999999999,7.15387487411499,-1.0773907899856567,-2.427720546722412,-48.9501953125,-42.48046875,93.68896484375
1.0162499,7.24485445022583,-1.2425906658172607,-2.513911724090576,-54.1534423828125,-45.9136962890625,101.6845703125
1.0187499,7.24485445022583,-1.2425906658172607,-2.513911724090576,-54.1534423828125,-45.9136962890625,101.6845703125
1.0212499,7.357381820678711,-1.41257905960083,-2.585737943649292,-59.4940185546875,-48.553466796875,109.6038818359375
1.0237498999999999,7.357381820678711,-1.41257905960083,-2.585737943649292,-59.4940185546875,-48.553466796875,109.6038818359375
1.0262498999999998,7.560888767242432,-1.5825673341751099,-2.676717519760132,-63.78173828125,-51.1627197265625,118.5150146484375
1.0287499,7.560888767242432,-1.5825673341751099,-2.676717519760132,-63.78173828125,-51.1627197265625,118.5150146484375
1.0312499,7.86734676361084,-1.7501614093780518,-2.7964274883270264,-68.17626953125,-53.009033203125,127.9296875
1.0337498999999999,7.86734676361084,-1.7501614093780518,-2.7964274883270264,-68.17626953125,-53.009033203125,127.9296875
1.0362498999999998,8.212111473083496,-1.9057846069335938,-2.940079689025879,-71.77734375,-55.35888671875,138.0615234375
1.0387499,8.212111473083496,-1.9057846069335938,-2.940079689025879,-71.77734375,-55.35888671875,138.0615234375
1.0412499,8.53532886505127,-2.0159177780151367,-3.1076738834381104,-75.7293701171875,-58.16650390625,148.345947265625
1.0437499,8.53532886505127,-2.0159177780151367,-3.1076738834381104,-75.7293701171875,-58.16650390625,148.345947265625
1.0462498999999998,8.865729331970215,-2.056619167327881,-3.294421434402466,-79.2388916015625,-61.3555908203125,159.027099609375
1.0487499,8.865729331970215,-2.056619167327881,-3.294421434402466,-79.2388916015625,-61.3555908203125,159.027099609375
1.0512499,9.32302188873291,-2.0015525817871094,-3.49314022064209,-83.8775634765625,-64.4378662109375,170.47119140625
1.0537499,9.32302188873291,-2.0015525817871094,-3.49314022064209,-83.8775634765625,-64.4378662109375,170.47119140625
1.0562498999999999,10.043676376342773,-1.7549498081207275,-3.7469255924224854,-89.1876220703125,-67.291259765625,182.6629638671875
1.0587499,10.043676376342773,-1.7549498081207275,-3.7469255924224854,-89.1876220703125,-67.291259765625,182.6629638671875
1.0612499,11.085153579711914,-1.1899182796478271,-4.163516521453857,-96.6796875,-69.9005126953125,194.732666015625
1.0637499,11.085153579711914,-1.1899182796478271,-4.163516521453857,-96.6796875,-69.9005126953125,194.732666015625
1.0662498999999999,12.413935661315918,-0.3016694188117981,-4.754884719848633,-107.0556640625,-71.8994140625,206.085205078125
1.0687499,12.413935661315918,-0.3016694188117981,-4.754884719848633,-107.0556640625,-71.8994140625,206.085205078125
1.0712499,13.91510009765625,0.7565677165985107,-5.410895824432373,-119.9493408203125,-74.676513671875,217.041015625
1.0737499,13.91510009765625,0.7565677165985107,-5.410895824432373,-119.9493408203125,-74.676513671875,217.041015625
1.0762498999999999,15.380352020263672,1.7860745191574097,-6.016628742218018,-134.0179443359375,-78.0792236328125,227.5238037109375
1.0787499,15.380352020263672,1.7860745191574097,-6.016628742218018,-134.0179443359375,-78.0792236328125,227.5238037109375
1.0812499,16.757017135620117,2.7533318996429443,-6.593631267547607,-150.20751953125,-84.0606689453125,237.548828125
1.0837499,16.757017135620117,2.7533318996429443,-6.593631267547607,-150.20751953125,-84.0606689453125,237.548828125
1.0862498999999999,18.310853958129883,3.77565598487854,-7.242460250854492,-165.6494140625,-89.9810791015625,247.314453125
1.0887499,18.310853958129883,3.77565598487854,-7.242460250854492,-165.6494140625,-89.9810791015625,247.314453125
1.0912499,20.365079879760742,5.094861030578613,-7.931990146636963,-186.248779296875,-96.6644287109375,257.0648193359375
1.0937499,20.365079879760742,5.094861030578613,-7.931990146636963,-186.248779296875,-96.6644287109375,257.0648193359375
1.0962498999999999,22.991518020629883,6.998251438140869,-8.62391471862793,-213.2568359375,-103.3935546875,265.3961181640625
1.0987498999999998,22.991518020629883,6.998251438140869,-8.62391471862793,-213.2568359375,-103.3935546875,265.3961181640625
1.1012499,25.835830688476562,9.294290542602539,-9.32302188873291,-248.96240234375,-112.945556640625,272.4761962890625
1.1037499,25.835830688476562,9.294290542602539,-9.32302188873291,-248.96240234375,-112.945556640625,272.4761962890625
1.1062499,28.55085563659668,11.599906921386719,-10.08437728881836,-289.459228515625,-124.0081787109375,278.564453125
1.1087498999999998,29.819782257080078,12.684480667114258,-10.493785858154297,-312.5,-129.94384765625,281.5093994140625
1.1112499,31.009700775146484,13.67807388305664,-10.884040832519531,-335.9527587890625,-135.92529296875,283.8287353515625
1.1137499,32.13497543334961,14.5591402053833,-11.255142211914062,-361.0382080078125,-143.157958984375,285.064697265625
1.1162499,33.17884826660156,15.354015350341797,-11.590330123901367,-386.993408203125,-150.0091552734375,286.224365234375
1.1187498999999999,34.15328598022461,16.0291805267334,-11.903970718383789,-413.87939453125,-154.7698974609375,287.078857421875
1.1212499,34.96492004394531,16.58702850341797,-12.258312225341797,-439.8040771484375,-159.4390869140625,287.2772216796875
1.1237499,35.6065673828125,16.879121780395508,-12.564770698547363,-465.545654296875,-165.283203125,286.834716796875
1.1262499,35.987247467041016,16.711528778076172,-12.837709426879883,-492.9962158203125,-174.7283935546875,284.4696044921875
1.1287498999999999,36.19075393676758,16.060304641723633,-13.026851654052734,-500,-182.43408203125,280.609130859375
1.1312499,36.24821472167969,14.913482666015625,-13.074735641479492,-500,-189.056396484375,277.252197265625
1.1337499,36.171600341796875,13.438653945922852,-12.955025672912598,-500,-195.61767578125,272.5372314453125
1.1362499,36.044708251953125,11.829751014709473,-12.677297592163086,-500,-204.345703125,266.4337158203125
1.1387498999999999,35.8052864074707,10.177751541137695,-12.164938926696777,-500,-212.09716796875,261.566162109375
1.1412499,35.55628967285156,8.650250434875488,-11.532869338989258,-500,-219.9859619140625,257.080078125
1.1437499,35.31208038330078,7.266402244567871,-10.78587818145752,-500,-226.8524169921875,252.8228759765625
1.1462499,35.024776458740234,6.119579315185547,-10.08437728881836,-500,-230.3009033203125,248.504638671875
1.1487498999999999,34.57227325439453,5.051765441894531,-9.437943458557129,-500,-233.2916259765625,244.842529296875
1.1512499,33.95935821533203,3.952826976776123,-8.832210540771484,-500,-239.3341064453125,242.828369140625
1.1537499,33.085472106933594,2.779668092727661,-8.2312650680542,-500,-243.4539794921875,240.4937744140625
1.1562499,32.1325798034668,1.5729905366897583,-7.647080421447754,-500,-246.39892578125,239.593505859375
1.1587498999999999,31.10786247253418,0.35434186458587646,-7.043741226196289,-500,-249.3896484375,239.2120361328125
1.1612498999999998,30.07356834411621,-0.7996633648872375,-6.476315498352051,-500,-251.007080078125,239.0899658203125
1.1637499,28.97702407836914,-1.9057846069335938,-5.932831764221191,-500,-252.1514892578125,239.3035888671875
1.1662499,27.77513313293457,-2.9903578758239746,-5.331887245178223,-500,-253.387451171875,240.020751953125
1.1687499,26.446352005004883,-3.974374771118164,-4.587290287017822,-500,-254.058837890625,240.997314453125
1.1712498999999998,25.02898406982422,-4.817133903503418,-3.7924153804779053,-500,-256.04248046875,244.6441650390625
1.1737499,23.46796417236328,-5.559336185455322,-2.937685489654541,-500,-256.805419921875,248.96240234375
1.1762499,21.80399513244629,-6.19379997253418,-2.212242364883423,-500,-256.34765625,254.1656494140625
1.1787499,20.008342742919922,-6.842628479003906,-1.678335428237915,-500,-255.401611328125,260.833740234375
1.1812498999999999,17.975666046142578,-7.50582218170166,-1.3623007535934448,-500,-253.6163330078125,267.791748046875
1.1837499,15.717934608459473,-8.286332130432129,-1.115697979927063,-500,-252.166748046875,276.5045166015625
1.1862499,13.220781326293945,-9.126696586608887,-0.9050082564353943,-492.889404296875,-250.701904296875,286.895751953125
1.1887499,10.498574256896973,-10.007762908935547,-0.6536170840263367,-481.1553955078125,-249.2523193359375,298.6907958984375
1.1912498999999999,7.644686222076416,-10.843339920043945,-0.40222588181495667,-470.0164794921875,-247.3602294921875,310.1348876953125
1.1937499,4.683058738708496,-11.54005241394043,-0.2298433631658554,-458.49609375,-245.880126953125,322.6470947265625
1.1962499,1.6711528301239014,-12.081141471862793,-0.1604115068912506,-446.990966796875,-245.635986328125,336.5631103515625
1.1987499,-1.4077905416488647,-12.437877655029297,-0.1843535304069519,-436.309814453125,-245.0408935546875,351.3641357421875
1.2012498999999999,-4.551377296447754,-12.655750274658203,-0.26575639843940735,-425.079345703125,-243.499755859375,366.5008544921875
1.2037499,-7.752425193786621,-12.797008514404297,-0.33758243918418884,-413.3758544921875,-241.7449951171875,382.476806640625
1.2062499,-11.049241065979004,-12.866439819335938,-0.38307225704193115,-401.123046875,-239.56298828125,399.10888671875
1.2087499,-14.551958084106445,-12.811373710632324,-0.3878606855869293,-387.664794921875,-235.3668212890625,415.5731201171875
1.2112498999999999,-18.4066219329834,-12.51449203491211,-0.3711012601852417,-376.46484375,-230.2703857421875,431.82373046875
1.2137499,-22.881385803222656,-11.856086730957031,-0.37828385829925537,-368.8201904296875,-226.4404296875,448.638916015625
1.2162499,-28.07680320739746,-10.821791648864746,-0.5434837937355042,-364.2425537109375,-223.6480712890625,465.8660888671875
1.2187499,-33.94020462036133,-9.48343276977539,-1.072602391242981,-360.198974609375,-221.1151123046875,480.89599609375
1.2212498999999999,-40.15315628051758,-8.04930591583252,-2.2385785579681396,-355.010986328125,-217.22412109375,493.438720703125
1.2237498999999998,-46.308650970458984,-6.75883150100708,-4.24970817565918,-347.3968505859375,-211.669921875,499.9847412109375
1.2262499,-52.0379753112793,-5.731719017028809,-7.072471618652344,-336.8377685546875,-204.28466796875,499.9847412109375
1.2287499,-57.15438461303711,-5.097255229949951,-10.35252857208252,-326.6754150390625,-195.037841796875,499.9847412109375
1.2312499,-61.78477096557617,-4.774038314819336,-13.608642578125,-319.9005126953125,-181.82373046875,499.9847412109375
1.2337498999999998,-65.98180389404297,-4.766855716705322,-16.39788818359375,-313.90380859375,-167.90771484375,499.9847412109375
1.2362499,-69.5922622680664,-5.178658485412598,-18.361133575439453,-303.7567138671875,-158.38623046875,494.598388671875
1.2387499,-72.27376556396484,-5.935225963592529,-19.539079666137695,-281.6162109375,-148.895263671875,484.2376708984375
1.2412499,-73.36073303222656,-6.950367450714111,-19.852720260620117,-249.420166015625,-136.29150390625,470.8099365234375
1.2437498999999999,-72.21391296386719,-8.109161376953125,-19.19192123413086,-219.4366455078125,-121.1700439453125,453.948974609375
1.2462499,-68.62739562988281,-8.975862503051758,-17.470489501953125,-191.2689208984375,-102.5390625,433.441162109375
1.2487499,-62.368953704833984,-9.390059471130371,-14.623784065246582,-160.980224609375,-78.5980224609375,410.3546142578125
1.2512499,-53.99403762817383,-8.968679428100586,-10.828974723815918,-136.138916015625,-46.93603515625,383.4686279296875
1.2537498999999999,-44.52975845336914,-7.601590633392334,-6.720524311065674,-124.2828369140625,-8.9263916015625,349.8687744140625
1.2562499,-35.23786163330078,-5.451597213745117,-2.786850690841675,-116.7449951171875,25.1922607421875,305.572509765625
1.2587499,-27.35614776611328,-2.8802247047424316,0.6631938815116882,-116.729736328125,58.89892578125,264.8773193359375
1.2612499,-21.93328094482422,-0.7781155705451965,3.4308910369873047,-130.2337646484375,95.1690673828125,229.9041748046875
1.2637498999999999,-19.096153259277344,0.28969839215278625,5.74129581451416,-138.2293701171875,117.9351806640625,185.11962890625
1.2662499,-18.622100830078125,0.043095629662275314,7.632715225219727,-125.3204345703125,131.744384765625,138.85498046875
1.2687499,-19.74498176574707,-1.4293384552001953,9.188945770263672,-98.052978515625,138.9923095703125,94.5892333984375
1.2712499,-21.483171463012695,-3.5434184074401855,10.237606048583984,-62.6220703125,140.350341796875,50.8575439453125
1.2737498999999999,-22.993913650512695,-5.702988624572754,10.596736907958984,-22.0184326171875,138.85498046875,6.378173828125
1.2762499,-23.731327056884766,-7.527369976043701,10.120290756225586,15.5181884765625,136.6119384765625,-35.919189453125
1.2787499,-23.642742156982422,-8.887276649475098,8.825027465820312,49.8809814453125,132.4005126953125,-75.9735107421875
1.2812499,-22.926876068115234,-9.976638793945312,6.959944248199463,86.029052734375,125.9002685546875,-114.7613525390625
1.2837498999999999,-21.962011337280273,-11.027692794799805,4.809951305389404,128.0517578125,117.095947265625,-150.787353515625
1.2862498999999998,-21.09291648864746,-12.172121047973633,2.6001031398773193,173.858642578125,107.0404052734375,-183.89892578125
1.2887499,-20.566192626953125,-13.342885971069336,0.33997663855552673,218.475341796875,96.9390869140625,-214.019775390625
1.2912499,-20.506338119506836,-14.348450660705566,-1.9584569931030273,259.3994140625,88.1500244140625,-240.7989501953125
1.2937499,-20.937294006347656,-15.088258743286133,-4.271255970001221,295.5780029296875,79.04052734375,-263.6566162109375
1.2962498999999998,-21.847089767456055,-15.454571723937988,-6.564900875091553,329.2388916015625,68.4814453125,-281.4483642578125
1.2987499,-23.154325485229492,-15.476119995117188,-8.695740699768066,358.0169677734375,57.6934814453125,-292.9840087890625
1.3012499,-24.7775936126709,-15.150507926940918,-10.618284225463867,381.65283203125,45.8831787109375,-300.3997802734375
1.3037499,-26.513389587402344,-14.413094520568848,-12.210428237915039,401.4129638671875,33.0352783203125,-303.314208984375
1.3062498999999999,-28.158206939697266,-13.254301071166992,-13.409923553466797,414.7491455078125,20.8740234375,-302.093505859375
1.3087499,-29.506141662597656,-11.724405288696289,-14.154520034790039,419.586181640625,10.4522705078125,-297.8973388671875
1.3112499,-30.37763023376465,-9.955090522766113,-14.439430236816406,419.7845458984375,0.79345703125,-291.4581298828125
1.3137499,-30.703243255615234,-8.11634349822998,-14.293384552001953,419.49462890625,-8.1634521484375,-284.149169921875
1.3162498999999999,-30.466217041015625,-6.344634532928467,-13.84566879272461,416.9769287109375,-16.41845703125,-276.6876220703125
1.3187499,-29.673736572265625,-4.639962673187256,-13.206416130065918,411.4990234375,-23.6663818359375,-268.890380859375
1.3212499,-28.38565444946289,-2.956839084625244,-12.555193901062012,404.0069580078125,-29.8004150390625,-261.1236572265625
1.3237499,-26.700138092041016,-1.2090718746185303,-11.997344970703125,394.317626953125,-34.36279296875,-255.67626953125
1.3262498999999999,-24.72252655029297,0.6344634294509888,-11.619060516357422,381.7291259765625,-37.4603271484375,-252.1820068359375
1.3287499,-22.60126495361328,2.5019407272338867,-11.422736167907715,365.203857421875,-39.85595703125,-249.6337890625
1.3312499,-20.48239517211914,4.259284973144531,-11.362881660461426,345.27587890625,-41.07666015625,-248.2757568359375
1.3337499,-18.45929527282715,5.74129581451416,-11.35809326171875,324.27978515625,-41.6259765625,-247.589111328125
1.3362498999999999,-16.615758895874023,6.809109687805176,-11.343728065490723,303.192138671875,-41.778564453125,-247.8790283203125
1.3387499,-14.968548774719238,7.424419403076172,-11.250353813171387,281.646728515625,-41.56494140625,-247.955322265625
1.3412499,-13.512874603271484,7.6111674308776855,-11.08994197845459,260.223388671875,-40.374755859375,-248.077392578125
1.3437499,-12.193669319152832,7.457938194274902,-10.826580047607422,238.677978515625,-38.5284423828125,-248.35205078125
1.3462498999999999,-10.96544361114502,7.053318023681641,-10.517727851867676,217.681884765625,-36.2091064453125,-248.870849609375
1.3487498999999998,-9.765948295593262,6.464344501495361,-10.187328338623047,196.6094970703125,-33.0352783203125,-248.9013671875
1.3512499,-8.561665534973145,5.7341132164001465,-9.907206535339355,175.9796142578125,-28.86962890625,-248.870849609375
1.3537499,-7.319074630737305,4.867412090301514,-9.72285270690918,156.8145751953125,-24.4598388671875,-248.22998046875
1.3562499,-6.0597243309021,3.885789394378662,-9.636661529541016,139.4805908203125,-19.6685791015625,-247.0245361328125
1.3587498999999998,-4.800374507904053,2.851494312286377,-9.658209800720215,124.603271484375,-14.6331787109375,-244.9798583984375
1.3612499,-3.557783842086792,1.821987509727478,-9.773131370544434,111.4654541015625,-9.8114013671875,-242.37060546875
1.3637499,-2.360682964324951,0.8762778043746948,-9.955090522766113,98.9227294921875,-5.2032470703125,-239.532470703125
1.3662499,-1.2018892765045166,0.033518824726343155,-10.220847129821777,87.40234375,-0.91552734375,-236.236572265625
1.3687498999999999,-0.08619125932455063,-0.7158663272857666,-10.524910926818848,77.117919921875,3.3111572265625,-232.269287109375
1.3712499,0.9959878921508789,-1.4077905416488647,-10.869675636291504,67.4896240234375,6.988525390625,-228.08837890625
1.3737499,2.0183119773864746,-2.070984363555908,-11.197681427001953,58.1817626953125,10.345458984375,-224.4110107421875
1.3762499,2.9903578758239746,-2.7293899059295654,-11.48259162902832,50.6134033203125,13.2293701171875,-220.184326171875
1.3787498999999999,3.8977603912353516,-3.4189200401306152,-11.719616889953613,45.2423095703125,15.289306640625,-215.88134765625
1.3812499,4.728548526763916,-4.110844135284424,-11.903970718383789,41.3360595703125,17.578125,-212.0819091796875
1.3837499,5.497087001800537,-4.795586109161377,-12.054805755615234,39.36767578125,19.59228515625,-208.0535888671875
1.3862499,6.203376770019531,-5.434837818145752,-12.179304122924805,38.055419921875,21.0418701171875,-204.193115234375
1.3887498999999999,6.833051681518555,-5.975927352905273,-12.260706901550293,37.41455078125,22.430419921875,-200.8819580078125
1.3912499,7.386112213134766,-6.411672115325928,-12.282255172729492,37.2161865234375,24.23095703125,-197.174072265625
1.3937499,7.843404769897461,-6.742072105407715,-12.227188110351562,37.4755859375,26.2908935546875,-193.9544677734375
1.3962499,8.180987358093262,-6.988674640655518,-12.09311294555664,38.9404296875,28.350830078125,-191.253662109375
1.3987498999999999,8.391676902770996,-7.180211067199707,-11.858481407165527,41.8853759765625,30.5023193359375,-188.3544921875
1.4012499,8.497021675109863,-7.340622425079346,-11.585541725158691,46.234130859375,32.470703125,-185.2569580078125
1.4037499,8.51138687133789,-7.486668586730957,-11.276689529418945,51.2847900390625,34.8663330078125,-182.708740234375
1.4062499,8.501810073852539,-7.627926826477051,-11.001357078552246,56.94580078125,37.17041015625,-180.3436279296875
1.4087498999999999,8.47547435760498,-7.757213592529297,-10.740388870239258,63.812255859375,39.73388671875,-177.9327392578125
1.4112498999999998,8.482656478881836,-7.862558364868164,-10.522516250610352,71.2890625,42.29736328125,-175.2166748046875
1.4137499,8.520963668823242,-7.95832633972168,-10.32858657836914,78.7353515625,44.586181640625,-172.9736328125
1.4162499,8.592789649963379,-8.051700592041016,-10.153809547424316,86.1968994140625,47.698974609375,-170.989990234375
1.4187499,8.698134422302246,-8.166622161865234,-9.988609313964844,94.085693359375,50.567626953125,-168.9605712890625
1.4212498999999998,8.822632789611816,-8.327033042907715,-9.816226959228516,102.5390625,53.28369140625,-166.6717529296875
1.4237499,8.954314231872559,-8.525752067565918,-9.627084732055664,111.4501953125,56.1370849609375,-164.12353515625
1.4262499,9.100360870361328,-8.760383605957031,-9.440337181091309,120.4986572265625,59.0972900390625,-161.2396240234375
1.4287499,9.265560150146484,-9.009381294250488,-9.263166427612305,130.279541015625,62.1795654296875,-158.050537109375
1.4312498999999999,9.459490776062012,-9.244012832641602,-9.129091262817383,141.17431640625,64.6820068359375,-154.205322265625
1.4337499,9.703699111938477,-9.44991397857666,-9.050082206726074,152.1148681640625,67.108154296875,-150.2532958984375
1.4362499,9.99339771270752,-9.607931137084961,-9.023746490478516,162.3992919921875,69.6868896484375,-146.514892578125
1.4387499,10.342951774597168,-9.708487510681152,-9.035717010498047,172.4395751953125,72.1588134765625,-142.2882080078125
1.4412498999999999,10.716446876525879,-9.75397777557373,-9.078812599182129,182.342529296875,74.1119384765625,-137.969970703125
1.4437499,11.128249168395996,-9.734824180603027,-9.102754592895508,191.680908203125,75.9429931640625,-132.965087890625
1.4462499,11.508927345275879,-9.653421401977539,-9.131484985351562,200.50048828125,78.2318115234375,-128.7841796875
1.4487499,11.872846603393555,-9.509769439697266,-9.136273384094238,209.3048095703125,80.4290771484375,-124.4659423828125
1.4512498999999999,12.167332649230957,-9.311050415039062,-9.133879661560059,217.6055908203125,82.122802734375,-119.7357177734375
1.4537499,12.397176742553711,-9.047688484191895,-9.150638580322266,225.372314453125,83.2366943359375,-115.2496337890625
1.4562499,12.571952819824219,-8.736441612243652,-9.198522567749023,232.757568359375,83.831787109375,-111.4501953125
1.4587499,12.717999458312988,-8.370129585266113,-9.313444137573242,239.288330078125,84.4573974609375,-107.7880859375
1.4612498999999999,12.859257698059082,-7.9846625328063965,-9.500192642211914,245.2239990234375,84.7930908203125,-104.5074462890625
1.4637499,13.002909660339355,-7.603984832763672,-9.765948295593262,250.518798828125,84.8236083984375,-101.62353515625
1.4662499,13.151350021362305,-7.247248649597168,-10.086771965026855,255.7830810546875,84.7015380859375,-99.18212890625
1.4687499,13.295001983642578,-6.9240312576293945,-10.436325073242188,260.80322265625,84.442138671875,-96.8475341796875
1.4712498999999999,13.414711952209473,-6.617573261260986,-10.776301383972168,264.9383544921875,84.625244140625,-95.0469970703125
1.4737498999999998,13.488932609558105,-6.301538944244385,-11.063606262207031,268.0816650390625,84.5184326171875,-93.6431884765625
1.4762499,13.479355812072754,-5.940014362335205,-11.267112731933594,270.416259765625,84.3658447265625,-92.620849609375
1.4787499,13.364434242248535,-5.5114521980285645,-11.370063781738281,271.820068359375,84.3353271484375,-92.0257568359375
1.4812499,13.144166946411133,-5.013458251953125,-11.370063781738281,271.9573974609375,84.41162109375,-92.2393798828125
1.4837498999999998,12.820950508117676,-4.4508209228515625,-11.286267280578613,271.3165283203125,84.6405029296875,-92.8955078125
1.4862499,12.428300857543945,-3.8810009956359863,-11.135432243347168,269.8211669921875,84.8846435546875,-94.146728515625
1.4887499,11.990161895751953,-3.3470940589904785,-10.94150161743164,268.035888671875,85.38818359375,-95.64208984375
1.4912499,11.537657737731934,-2.9065608978271484,-10.718840599060059,266.2200927734375,86.1663818359375,-97.8546142578125
1.4937498999999999,11.097125053405762,-2.585737943649292,-10.481815338134766,264.16015625,86.7462158203125,-100.372314453125
1.4962499,10.685321807861328,-2.3774423599243164,-10.230423927307129,261.9781494140625,87.738037109375,-102.72216796875
1.4987499,10.309432983398438,-2.248155355453491,-9.974244117736816,259.124755859375,88.8671875,-105.16357421875
1.5012499,9.986215591430664,-2.1739351749420166,-9.713275909423828,255.9967041015625,90.1031494140625,-107.91015625
1.5037498999999999,9.708487510681152,-2.118868589401245,-9.461885452270508,253.0059814453125,91.796875,-110.9619140625
1.5062499,9.490615844726562,-2.0685901641845703,-9.232041358947754,249.2523193359375,93.6126708984375,-114.166259765625
1.5087499,9.308655738830566,-2.0183119773864746,-9.023746490478516,244.873046875,95.6268310546875,-117.2332763671875
1.5112499,9.160215377807617,-1.9728221893310547,-8.841787338256836,240.41748046875,97.7935791015625,-120.66650390625
1.5137498999999999,9.033323287963867,-1.946485996246338,-8.686163902282715,236.0687255859375,99.9908447265625,-123.9166259765625
1.5162499,8.93037223815918,-1.9512743949890137,-8.561665534973145,231.964111328125,102.1575927734375,-126.7242431640625
1.5187499,8.860940933227539,-2.0039467811584473,-8.47786808013916,227.96630859375,104.4158935546875,-129.9896240234375
1.5212499,8.820239067077637,-2.1140801906585693,-8.422801971435547,224.2431640625,106.75048828125,-133.0413818359375
1.5237498999999999,8.808267593383789,-2.2649147510528564,-8.389283180236816,220.21484375,109.1766357421875,-135.5438232421875
1.5262499,8.808267593383789,-2.456450939178467,-8.355764389038086,216.2017822265625,111.38916015625,-138.2598876953125
1.5287499,8.808267593383789,-2.6815059185028076,-8.305485725402832,211.9598388671875,113.3270263671875,-140.5792236328125
1.5312499,8.793902397155762,-2.9257144927978516,-8.224082946777344,207.8399658203125,115.17333984375,-142.333984375
1.5337498999999999,8.757989883422852,-3.177105665206909,-8.097189903259277,204.1473388671875,116.5771484375,-143.829345703125
1.5362499,8.69095230102539,-3.4093432426452637,-7.929595947265625,200.408935546875,117.5537109375,-145.4315185546875
1.5387499,8.60236644744873,-3.600879430770874,-7.723694801330566,196.6400146484375,118.408203125,-147.0794677734375
1.5412499,8.506598472595215,-3.751713991165161,-7.508216381072998,193.1304931640625,119.140625,-148.468017578125
1.5437499,8.429984092712402,-3.8810009956359863,-7.292738437652588,189.422607421875,119.3389892578125,-149.7802734375
1.5462498999999998,8.398859977722168,-4.017470359802246,-7.086836814880371,185.791015625,119.1253662109375,-151.031494140625
1.5487499,8.418013572692871,-4.173093795776367,-6.890512466430664,182.5103759765625,119.2626953125,-151.7486572265625
1.5512499,8.482656478881836,-4.357447147369385,-6.696582317352295,179.4281005859375,119.3389892578125,-151.4434814453125
1.5537499,8.573636054992676,-4.553771495819092,-6.502651691436768,176.4984130859375,119.0338134765625,-150.8026123046875
1.5562498999999999,8.667010307312012,-4.73573112487793,-6.299144744873047,173.4619140625,119.0338134765625,-150.115966796875
1.5587499,8.743624687194824,-4.903325080871582,-6.09324312210083,170.59326171875,119.1558837890625,-149.2767333984375
1.5612499,8.78193187713623,-5.027823448181152,-5.870582580566406,167.4041748046875,119.0032958984375,-148.3154296875
1.5637499,8.767566680908203,-5.116408824920654,-5.640739440917969,164.0777587890625,119.110107421875,-147.4456787109375
1.5662498999999999,8.678980827331543,-5.16429328918457,-5.389348030090332,160.7208251953125,118.865966796875,-146.54541015625
1.5687499,8.520963668823242,-5.17626428604126,-5.1331682205200195,157.470703125,118.4844970703125,-145.56884765625
1.5712499,8.29830265045166,-5.154716491699219,-4.874594688415527,154.693603515625,118.0877685546875,-144.53125
1.5737499,8.051700592041016,-5.114014625549316,-4.644751071929932,151.7333984375,117.3095703125,-143.6004638671875
1.5762498999999999,7.807491779327393,-5.058948040008545,-4.458003520965576,149.383544921875,116.7144775390625,-142.974853515625
1.5787499,7.589619159698486,-5.015852451324463,-4.32871675491333,147.15576171875,116.4703369140625,-142.8375244140625
1.5812499,7.405265808105469,-5.006275653839111,-4.244919776916504,145.2178955078125,115.8599853515625,-142.669677734375
1.5837499,7.252037048339844,-5.03021764755249,-4.194641590118408,144.10400390625,115.020751953125,-142.608642578125
1.5862498999999999,7.113173484802246,-5.109226226806641,-4.158728122711182,143.3563232421875,114.166259765625,-142.5933837890625
1.5887499,6.981492042541504,-5.22175407409668,-4.1156325340271,142.9443359375,113.525390625,-142.8375244140625
1.5912499,6.833051681518555,-5.370194435119629,-4.048594951629639,142.7764892578125,112.335205078125,-142.7764892578125
1.5937499,6.660669326782227,-5.5329999923706055,-3.9432501792907715,142.730712890625,110.9161376953125,-142.8375244140625
1.5962498999999999,6.45476770401001,-5.6910176277160645,-3.7876269817352295,143.0206298828125,109.4207763671875,-143.157958984375
1.5987499,6.217741966247559,-5.815515995025635,-3.584120035171509,143.7225341796875,107.8033447265625,-143.1121826171875
1.6012499,5.966350555419922,-5.8873419761657715,-3.3470940589904785,143.7835693359375,106.2469482421875,-143.1884765625
1.6037499,5.7125654220581055,-5.899312973022461,-3.098097085952759,144.0277099609375,104.9041748046875,-143.61572265625
1.6062499,5.473145008087158,-5.8657941818237305,-2.87064790725708,144.53125,103.4393310546875,-144.04296875
1.6087498999999998,5.25527286529541,-5.803544998168945,-2.6862943172454834,145.9197998046875,102.325439453125,-144.6990966796875
1.6112499,5.061342239379883,-5.722142219543457,-2.5546131134033203,147.064208984375,101.0284423828125,-145.44677734375
1.6137499,4.891354084014893,-5.643133640289307,-2.4803929328918457,148.5595703125,100.0823974609375,-146.728515625
1.6162499,4.742913722991943,-5.568912982940674,-2.434903144836426,150.177001953125,98.907470703125,-147.705078125
1.6187498999999999,4.630385875701904,-5.513846397399902,-2.3989901542663574,151.763916015625,97.6715087890625,-149.3682861328125
1.6212499,4.575319290161133,-5.494692802429199,-2.341529369354248,153.2745361328125,96.1456298828125,-150.7720947265625
1.6237499,4.5825018882751465,-5.501875400543213,-2.233790159225464,154.23583984375,94.512939453125,-151.8707275390625
1.6262499,4.649539470672607,-5.549759387969971,-2.0685901641845703,155.303955078125,92.803955078125,-153.1524658203125
1.6287498999999999,4.750096321105957,-5.628767967224121,-1.845929503440857,156.463623046875,91.12548828125,-154.1290283203125
1.6312499,4.843470096588135,-5.717353820800781,-1.601720929145813,157.8369140625,89.7216796875,-155.364990234375
1.6337499,4.9152960777282715,-5.793968200683594,-1.3718775510787964,159.3017578125,88.3941650390625,-156.43310546875
1.6362499,4.948814868927002,-5.839457988739014,-1.194706678390503,160.3546142578125,87.21923828125,-157.440185546875
1.6387498999999999,4.955997467041016,-5.832275390625,-1.094150185585022,161.5447998046875,85.845947265625,-158.75244140625
1.6412499,4.95120906829834,-5.7772088050842285,-1.0678139925003052,162.59765625,84.564208984375,-159.7900390625
1.6437499,4.960785865783691,-5.683835029602051,-1.1085153818130493,163.4674072265625,83.343505859375,-160.6903076171875
1.6462499,4.991910457611084,-5.5545477867126465,-1.1899182796478271,164.0777587890625,82.1380615234375,-161.712646484375
1.6487498999999999,5.058948040008545,-5.410895824432373,-1.280897855758667,163.6810302734375,80.9478759765625,-162.7349853515625
1.6512499,5.140350818634033,-5.264849662780762,-1.3503297567367554,163.177490234375,79.3914794921875,-163.4979248046875
1.6537499,5.233725070953369,-5.135562419891357,-1.3623007535934448,162.4298095703125,78.30810546875,-164.3524169921875
1.6562499,5.329493045806885,-5.039794445037842,-1.3120225667953491,161.1480712890625,76.4617919921875,-164.6728515625
1.6587498999999999,5.4228668212890625,-4.991910457611084,-1.1899182796478271,159.48486328125,74.9664306640625,-164.7491455078125
1.6612499,5.518634796142578,-4.965574264526367,-1.0271124839782715,157.7301025390625,73.91357421875,-165.0390625
1.6637499,5.602431774139404,-4.960785865783691,-0.8403648138046265,156.0516357421875,72.7386474609375,-164.8712158203125
1.6662499,5.681440830230713,-4.95120906829834,-0.6416460275650024,154.2205810546875,72.0977783203125,-164.9017333984375
1.6687499,5.738901615142822,-4.917690277099609,-0.45010992884635925,151.9012451171875,71.1517333984375,-165.0390625
1.6712498999999998,5.784391403198242,-4.865017890930176,-0.26096799969673157,149.566650390625,70.4803466796875,-164.764404296875
1.6737499,5.829881191253662,-4.778826713562012,-0.07900865375995636,147.3236083984375,69.8394775390625,-164.6881103515625
1.6762499,5.87776517868042,-4.659116744995117,0.090979665517807,144.683837890625,69.4732666015625,-164.794921875
1.6787499,5.935225963592529,-4.508281707763672,0.26096799969673157,142.0135498046875,69.2291259765625,-165.2679443359375
1.6812498999999999,6.00226354598999,-4.326322555541992,0.42377370595932007,139.5263671875,69.2901611328125,-165.3900146484375
1.6837499,6.069301128387451,-4.127603530883789,0.5841852426528931,136.9781494140625,69.366455078125,-165.9698486328125
1.6862499,6.138733386993408,-3.912125587463379,0.730231523513794,134.0789794921875,69.3511962890625,-166.9158935546875
1.6887499,6.210559368133545,-3.7014358043670654,0.871489405632019,130.92041015625,69.2138671875,-167.6177978515625
1.6912498999999999,6.289567947387695,-3.507505416870117,1.0055646896362305,127.74658203125,69.27490234375,-168.701171875
1.6937499,6.380547523498535,-3.3423056602478027,1.1444283723831177,124.908447265625,69.2291259765625,-169.4488525390625
1.6962499,6.490680694580078,-3.201047658920288,1.2880805730819702,121.7803955078125,69.5343017578125,-170.5780029296875
1.6987499,6.619967937469482,-3.07415509223938,1.4293384552001953,118.7896728515625,69.8089599609375,-171.844482421875
1.7012498999999999,6.773196697235107,-2.9448680877685547,1.5490485429763794,115.9515380859375,70.2972412109375,-172.637939453125
1.7037499,6.936002254486084,-2.80361008644104,1.6328455209732056,112.7471923828125,70.9381103515625,-173.6297607421875
1.7062499,7.103596210479736,-2.647987127304077,1.6735470294952393,109.6038818359375,71.7620849609375,-174.6063232421875
1.7087499,7.261613845825195,-2.47560453414917,1.6735470294952393,107.1319580078125,72.1282958984375,-175.506591796875
1.7112498999999999,7.405265808105469,-2.27209734916687,1.6304513216018677,104.583740234375,72.5250244140625,-176.2847900390625
1.7137499,7.544129371643066,-2.049436569213867,1.5514427423477173,101.6693115234375,73.0438232421875,-176.910400390625
1.7162499,7.682993412017822,-1.7980455160140991,1.436521053314209,98.44970703125,73.6236572265625,-177.2918701171875
1.7187499,7.836222171783447,-1.5418659448623657,1.3024457693099976,95.3521728515625,74.1119384765625,-177.520751953125
1.7212498999999999,7.9846625328063965,-1.2832920551300049,1.161187767982483,92.34619140625,74.4781494140625,-177.6275634765625
1.7237499,8.135497093200684,-1.0438719987869263,1.0438719987869263,89.4317626953125,74.4476318359375,-177.42919921875
1.7262499,8.259995460510254,-0.8259995579719543,0.9600749015808105,85.8306884765625,74.432373046875,-177.215576171875
1.7287499,8.365341186523438,-0.6416460275650024,0.9193734526634216,81.634521484375,74.1424560546875,-176.6357421875
1.7312499,8.449137687683105,-0.5027823448181152,0.9145850539207458,77.789306640625,73.8525390625,-175.7659912109375
1.7337498999999998,8.528146743774414,-0.40462008118629456,0.933738648891449,74.27978515625,73.1964111328125,-174.3621826171875
1.7362499,8.616731643676758,-0.3280056416988373,0.9576807022094727,70.556640625,72.662353515625,-172.882080078125
1.7387499,8.707711219787598,-0.27054479718208313,0.9744400978088379,66.802978515625,72.662353515625,-171.20361328125
1.7412499,8.810662269592285,-0.2106897532939911,0.9792284965515137,63.5223388671875,72.235107421875,-169.25048828125
1.7437498999999999,8.892065048217773,-0.14844051003456116,0.9600749015808105,60.11962890625,71.6094970703125,-167.205810546875
1.7462499,8.971074104309082,-0.090979665517807,0.9145850539207458,56.884765625,71.0906982421875,-164.886474609375
1.7487499,9.035717010498047,-0.028730420395731926,0.8427590131759644,53.924560546875,70.281982421875,-162.109375
1.7512499,9.107542991638184,0.038307227194309235,0.7350199222564697,51.2237548828125,69.4122314453125,-159.4085693359375
1.7537498999999999,9.172186851501465,0.11971008777618408,0.629675030708313,48.248291015625,68.450927734375,-156.92138671875
1.7562499,9.241618156433105,0.19871874153614044,0.5363011956214905,45.0897216796875,67.138671875,-153.74755859375
1.7587499,9.306262016296387,0.26336219906806946,0.45250412821769714,42.0684814453125,65.3533935546875,-150.5279541015625
1.7612499,9.35654067993164,0.2849099934101105,0.3998316824436188,39.459228515625,63.5833740234375,-147.3846435546875
1.7637498999999999,9.404424667358398,0.24660277366638184,0.35673606395721436,37.2467041015625,61.5997314453125,-143.890380859375
1.7662499,9.445125579833984,0.16998831927776337,0.3208230137825012,36.1785888671875,59.417724609375,-140.1214599609375
1.7687499,9.48343276977539,0.07900865375995636,0.27054479718208313,35.5987548828125,56.9610595703125,-136.749267578125
1.7712499,9.533711433410645,-0.002394201699644327,0.2059013396501541,34.7442626953125,54.656982421875,-133.148193359375
1.7737498999999999,9.57441234588623,-0.06224924325942993,0.11971008777618408,33.782958984375,52.5970458984375,-129.45556640625
1.7762499,9.610325813293457,-0.08858546614646912,0.028730420395731926,33.0352783203125,50.2471923828125,-125.54931640625
1.7787499,9.627084732055664,-0.1149216815829277,-0.035913024097681046,32.4859619140625,47.1038818359375,-121.52099609375
1.7812499,9.62947940826416,-0.19393034279346466,-0.0694318488240242,30.975341796875,40.557861328125,-112.762451171875
1.7837498999999999,9.62947940826416,-0.19393034279346466,-0.0694318488240242,30.975341796875,40.557861328125,-112.762451171875
1.7862499,9.679757118225098,-0.3495534360408783,-0.016759412363171577,29.7698974609375,34.637451171875,-103.4698486328125
1.7887499,9.679757118225098,-0.3495534360408783,-0.016759412363171577,29.7698974609375,34.637451171875,-103.4698486328125
1.7912499,9.816226959228516,-0.4836287498474121,-0.0071826050989329815,29.388427734375,28.5797119140625,-93.20068359375
1.7937499,9.816226959228516,-0.4836287498474121,-0.0071826050989329815,29.388427734375,28.5797119140625,-93.20068359375
1.7962498999999998,10.002974510192871,-0.5291185975074768,-0.10055647045373917,28.8848876953125,23.3154296875,-83.31298828125
1.7987499,10.002974510192871,-0.5291185975074768,-0.10055647045373917,28.8848876953125,23.3154296875,-83.31298828125
1.8012499,10.177751541137695,-0.47405192255973816,-0.24420857429504395,28.533935546875,18.00537109375,-72.9827880859375
1.8037499,10.177751541137695,-0.47405192255973816,-0.24420857429504395,28.533935546875,18.00537109375,-72.9827880859375
1.8062498999999999,10.314221382141113,-0.3232172429561615,-0.3447650372982025,27.252197265625,12.39013671875,-62.896728515625
1.8087499,10.314221382141113,-0.3232172429561615,-0.3447650372982025,27.252197265625,12.39013671875,-62.896728515625
1.8112499,10.47702693939209,-0.08379705995321274,-0.3878606855869293,25.5889892578125,7.2784423828125,-53.009033203125
1.8137499,10.47702693939209,-0.08379705995321274,-0.3878606855869293,25.5889892578125,7.2784423828125,-53.009033203125
1.8162498999999999,10.673351287841797,0.22026655077934265,-0.395043283700943,22.4761962890625,3.0059814453125,-44.00634765625
1.8187499,10.673351287841797,0.22026655077934265,-0.395043283700943,22.4761962890625,3.0059814453125,-44.00634765625
1.8212499,10.848128318786621,0.5506663918495178,-0.35673606395721436,18.585205078125,-0.8697509765625,-35.552978515625
1.8237499,10.848128318786621,0.5506663918495178,-0.35673606395721436,18.585205078125,-0.8697509765625,-35.552978515625
1.8262498999999999,10.979808807373047,0.828393816947937,-0.2801215946674347,14.4500732421875,-4.57763671875,-27.862548828125
1.8287499,10.979808807373047,0.828393816947937,-0.2801215946674347,14.4500732421875,-4.57763671875,-27.862548828125
1.8312499,11.042057991027832,0.9816226959228516,-0.1604115068912506,10.0860595703125,-8.2550048828125,-21.270751953125
1.8337499,11.042057991027832,0.9816226959228516,-0.1604115068912506,10.0860595703125,-8.2550048828125,-21.270751953125
1.8362498999999999,11.061211585998535,1.0199298858642578,-0.002394201699644327,5.79833984375,-11.4898681640625,-15.7012939453125
1.8387499,11.061211585998535,1.0199298858642578,-0.002394201699644327,5.79833984375,-11.4898681640625,-15.7012939453125
1.8412499,11.075576782226562,0.9744400978088379,0.15083470940589905,1.190185546875,-13.7481689453125,-10.8184814453125
1.8437499,11.075576782226562,0.9744400978088379,0.15083470940589905,1.190185546875,-13.7481689453125,-10.8184814453125
1.8462498999999999,11.068394660949707,0.8571242094039917,0.26336219906806946,-2.9296875,-15.5181884765625,-6.5460205078125
1.8487499,11.068394660949707,0.8571242094039917,0.26336219906806946,-2.9296875,-15.5181884765625,-6.5460205078125
1.8512499,11.018115997314453,0.7015010714530945,0.3280056416988373,-6.5460205078125,-16.7236328125,-2.0599365234375
1.8537499,11.018115997314453,0.7015010714530945,0.3280056416988373,-6.5460205078125,-16.7236328125,-2.0599365234375
1.8562499,10.924742698669434,0.5578489899635315,0.3663128614425659,-11.444091796875,-17.6239013671875,1.739501953125
1.8587498999999998,10.924742698669434,0.5578489899635315,0.3663128614425659,-11.444091796875,-17.6239013671875,1.739501953125
1.8612499,10.790667533874512,0.38067805767059326,0.4189853072166443,-15.8843994140625,-17.7154541015625,5.126953125
1.8637499,10.790667533874512,0.38067805767059326,0.4189853072166443,-15.8843994140625,-17.7154541015625,5.126953125
1.8662499,10.620678901672363,0.10534487664699554,0.5027823448181152,-19.3939208984375,-18.4326171875,8.575439453125
1.8687498999999999,10.620678901672363,0.10534487664699554,0.5027823448181152,-19.3939208984375,-18.4326171875,8.575439453125
1.8712499,10.45547866821289,-0.24660277366638184,0.6392518281936646,-22.308349609375,-18.585205078125,11.383056640625
1.8737499,10.45547866821289,-0.24660277366638184,0.6392518281936646,-22.308349609375,-18.585205078125,11.383056640625
1.8762499,10.35252857208252,-0.5602431893348694,0.7924807667732239,-24.3072509765625,-18.5089111328125,14.129638671875
1.8787498999999999,10.35252857208252,-0.5602431893348694,0.7924807667732239,-24.3072509765625,-18.5089111328125,14.129638671875
1.8812499,10.319009780883789,-0.7757213711738586,0.8930372595787048,-25.970458984375,-17.669677734375,15.716552734375
1.8837499,10.319009780883789,-0.7757213711738586,0.8930372595787048,-25.970458984375,-17.669677734375,15.716552734375
1.8862499,10.292673110961914,-0.9193734526634216,0.9385270476341248,-26.4434814453125,-17.1051025390625,17.2271728515625
1.8887498999999999,10.292673110961914,-0.9193734526634216,0.9385270476341248,-26.4434814453125,-17.1051025390625,17.2271728515625
1.8912499,10.199298858642578,-1.0558429956436157,0.9911994934082031,-26.30615234375,-16.9525146484375,17.8985595703125
1.8937499,10.199298858642578,-1.0558429956436157,0.9911994934082031,-26.30615234375,-16.9525146484375,17.8985595703125
1.8962499,10.053253173828125,-1.237802267074585,1.0845733880996704,-25.177001953125,-17.2119140625,18.12744140625
1.8987498999999999,10.053253173828125,-1.237802267074585,1.0845733880996704,-25.177001953125,-17.2119140625,18.12744140625
1.9012499,9.923966407775879,-1.4389152526855469,1.1899182796478271,-23.7579345703125,-16.9677734375,18.49365234375
1.9037499,9.923966407775879,-1.4389152526855469,1.1899182796478271,-23.7579345703125,-16.9677734375,18.49365234375
1.9062499,9.823410034179688,-1.601720929145813,1.292868971824646,-21.9879150390625,-16.3421630859375,18.157958984375
1.9087498999999999,9.823410034179688,-1.601720929145813,1.292868971824646,-21.9879150390625,-16.3421630859375,18.157958984375
1.9112499,9.710882186889648,-1.7190368175506592,1.4173674583435059,-20.08056640625,-15.8233642578125,17.88330078125
1.9137499,9.710882186889648,-1.7190368175506592,1.4173674583435059,-20.08056640625,-15.8233642578125,17.88330078125
1.9162499,9.588777542114258,-1.8315643072128296,1.5658079385757446,-18.2342529296875,-15.625,17.364501953125
1.9187499,9.588777542114258,-1.8315643072128296,1.5658079385757446,-18.2342529296875,-15.625,17.364501953125
1.9212498999999998,9.519346237182617,-1.98958158493042,1.7094600200653076,-15.8843994140625,-15.3350830078125,17.2271728515625
1.9237499,9.519346237182617,-1.98958158493042,1.7094600200653076,-15.8843994140625,-15.3350830078125,17.2271728515625
1.9262499,9.521739959716797,-2.1739351749420166,1.7956513166427612,-13.2904052734375,-14.1448974609375,17.1661376953125
1.9287499,9.521739959716797,-2.1739351749420166,1.7956513166427612,-13.2904052734375,-14.1448974609375,17.1661376953125
1.9312498999999999,9.514557838439941,-2.3056161403656006,1.7932571172714233,-10.4827880859375,-13.18359375,16.998291015625
1.9337499,9.514557838439941,-2.3056161403656006,1.7932571172714233,-10.4827880859375,-13.18359375,16.998291015625
1.9362499,9.423578262329102,-2.3750481605529785,1.745373010635376,-7.38525390625,-12.481689453125,16.7388916015625
1.9387499,9.423578262329102,-2.3750481605529785,1.745373010635376,-7.38525390625,-12.481689453125,16.7388916015625
1.9412498999999999,9.294290542602539,-2.427720546722412,1.7094600200653076,-5.0811767578125,-12.02392578125,16.6473388671875
1.9437499,9.294290542602539,-2.427720546722412,1.7094600200653076,-5.0811767578125,-12.02392578125,16.6473388671875
1.9462499,9.229647636413574,-2.4803929328918457,1.6950948238372803,-1.9073486328125,-11.3067626953125,16.571044921875
1.9487499,9.232041358947754,-2.494758129119873,1.6879122257232666,-0.6256103515625,-10.6201171875,16.3116455078125
1.9512498999999999,9.244012832641602,-2.4899697303771973,1.6759412288665771,1.129150390625,-10.3302001953125,16.2353515625
1.9537499,9.263166427612305,-2.4636335372924805,1.678335428237915,2.5787353515625,-9.9029541015625,16.6015625
1.9562499,9.279925346374512,-2.4205379486083984,1.6831238269805908,3.692626953125,-9.6588134765625,16.448974609375
1.9587499,9.296685218811035,-2.3726539611816406,1.7046716213226318,4.852294921875,-9.246826171875,15.9759521484375
1.9612498999999999,9.313444137573242,-2.3343467712402344,1.7334020137786865,6.16455078125,-9.09423828125,15.960693359375
1.9637499,9.32302188873291,-2.296039342880249,1.7573440074920654,7.1868896484375,-8.8348388671875,15.7928466796875
1.9662499,9.330204010009766,-2.2577321529388428,1.766920804977417,8.148193359375,-8.4381103515625,15.3961181640625
1.9687499,9.32541561126709,-2.209848165512085,1.7621324062347412,9.429931640625,-8.4381103515625,15.380859375
1.9712498999999999,9.313444137573242,-2.1595699787139893,1.7381904125213623,10.43701171875,-8.2550048828125,15.2435302734375
1.9737499,9.296685218811035,-2.099714994430542,1.6927006244659424,11.2152099609375,-8.3160400390625,14.8162841796875
1.9762499,9.284713745117188,-2.049436569213867,1.6352397203445435,11.871337890625,-8.392333984375,14.8468017578125
1.9787499,9.277531623840332,-2.0039467811584473,1.5610195398330688,12.542724609375,-8.5296630859375,14.495849609375
1.9812499,9.272743225097656,-1.9584569931030273,1.4724340438842773,13.1378173828125,-8.30078125,14.6484375
1.9837499,9.275136947631836,-1.9105730056762695,1.3670891523361206,13.519287109375,-8.4075927734375,14.4500732421875
1.9862499,9.26795482635498,-1.8555063009262085,1.2689268589019775,13.5955810546875,-8.5296630859375,13.9617919921875
1.9887499,9.263166427612305,-1.7884687185287476,1.161187767982483,13.336181640625,-8.6669921875,13.9617919921875
1.9912499,9.248801231384277,-1.7142484188079834,1.0845733880996704,12.8173828125,-8.880615234375,13.9923095703125
1.9937498999999999,9.23443603515625,-1.6352397203445435,1.0223240852355957,12.0697021484375,-9.124755859375,13.885498046875
1.9962499,9.217676162719727,-1.5610195398330688,0.9816226959228516,11.260986328125,-9.521484375,13.763427734375
1.9987499,9.208099365234375,-1.501164436340332,0.9600749015808105,10.2386474609375,-9.521484375,13.5498046875
2.0012499,9.2033109664917,-1.4628572463989258,0.9409212470054626,9.27734375,-9.796142578125,13.2293701171875
2.0037499,9.205705642700195,-1.4413094520568848,0.9241618514060974,8.3160400390625,-9.8114013671875,13.24462890625
2.0062499,9.205705642700195,-1.4317326545715332,0.8978256583213806,7.2174072265625,-9.9029541015625,13.0615234375
2.0087498999999998,9.205705642700195,-1.4245500564575195,0.8667010068893433,5.9967041015625,-10.07080078125,12.8936767578125
2.0112499,9.198522567749023,-1.41257905960083,0.8259995579719543,4.69970703125,-10.101318359375,12.7410888671875
2.0137499,9.188945770263672,-1.403002142906189,0.7733271718025208,3.2196044921875,-10.1165771484375,12.5579833984375
2.0162499,9.17936897277832,-1.3958195447921753,0.7206547260284424,1.52587890625,-10.0860595703125,12.39013671875
2.0187499,9.174580574035645,-1.4053963422775269,0.6727706789970398,0.0152587890625,-9.918212890625,12.0086669921875
2.0212499,9.17936897277832,-1.4317326545715332,0.6368576288223267,-1.190185546875,-9.8114013671875,11.8255615234375
2.0237499,9.191340446472168,-1.4772224426269531,0.6129156351089478,-2.716064453125,-9.552001953125,11.77978515625
2.0262499,9.217676162719727,-1.5394717454910278,0.6200982332229614,-4.150390625,-9.5062255859375,11.7340087890625
2.0287498999999998,9.248801231384277,-1.6160861253738403,0.6392518281936646,-5.37109375,-9.4757080078125,11.6424560546875
2.0312499,9.282320022583008,-1.7142484188079834,0.6871358752250671,-6.6070556640625,-9.2926025390625,11.3372802734375
2.0337499,9.311050415039062,-1.8195933103561401,0.7469909191131592,-7.8125,-9.124755859375,11.2762451171875
2.0362499,9.337387084960938,-1.9369091987609863,0.8092401623725891,-8.8653564453125,-8.758544921875,11.23046875
2.0387499,9.363722801208496,-2.051830768585205,0.8619126081466675,-9.82666015625,-8.331298828125,11.474609375
2.0412499,9.390059471130371,-2.164358377456665,0.8858546018600464,-10.55908203125,-7.8125,11.6424560546875
2.0437499,9.406818389892578,-2.2601263523101807,0.8906430602073669,-11.1236572265625,-7.3699951171875,11.3677978515625
2.0462499,9.41639518737793,-2.33913516998291,0.8667010068893433,-11.53564453125,-6.9580078125,11.474609375
2.0487499,9.41400146484375,-2.389413356781006,0.8259995579719543,-11.77978515625,-6.4697265625,11.7645263671875
2.0512498999999997,9.411606788635254,-2.4205379486083984,0.7781155705451965,-12.2222900390625,-5.8746337890625,11.871337890625
2.0537499,9.418789863586426,-2.4396915435791016,0.730231523513794,-12.7410888671875,-5.6304931640625,11.8408203125
2.0562499,9.433155059814453,-2.4636335372924805,0.6943184733390808,-12.7716064453125,-5.462646484375,11.7950439453125
2.0587499,9.459490776062012,-2.494758129119873,0.6703764796257019,-12.8936767578125,-4.8828125,11.9476318359375
2.0612499,9.488221168518066,-2.5330653190612793,0.6703764796257019,-12.87841796875,-4.7607421875,11.7950439453125
2.0637499,9.519346237182617,-2.580949544906616,0.6847416758537292,-12.8326416015625,-4.5318603515625,11.7645263671875
2.0662499,9.550470352172852,-2.6360161304473877,0.7086837291717529,-12.4359130859375,-4.2877197265625,11.962890625
2.0687499,9.579200744628906,-2.698265314102173,0.7350199222564697,-12.2833251953125,-4.2724609375,11.90185546875
2.0712498999999998,9.59835433959961,-2.7676970958709717,0.7565677165985107,-11.6729736328125,-4.0740966796875,12.237548828125
2.0737499,9.615114212036133,-2.8395233154296875,0.7709329724311829,-11.1083984375,-3.5400390625,12.20703125
2.0762499,9.624691009521484,-2.913743495941162,0.7733271718025208,-10.2386474609375,-3.23486328125,12.02392578125
2.0787499,9.624691009521484,-2.980781078338623,0.7709329724311829,-9.4451904296875,-3.0517578125,12.3291015625
2.0812499,9.619902610778809,-3.0358476638793945,0.7637503147125244,-8.514404296875,-2.960205078125,12.5274658203125
2.0837499,9.615114212036133,-3.066972494125366,0.7613561153411865,-7.720947265625,-2.7313232421875,12.603759765625
2.0862499,9.612719535827637,-3.07415509223938,0.7565677165985107,-7.110595703125,-2.62451171875,12.603759765625
2.0887499,9.619902610778809,-3.0573954582214355,0.7541735172271729,-6.40869140625,-2.50244140625,12.6495361328125
2.0912498999999998,9.63187313079834,-3.0358476638793945,0.7445967197418213,-5.79833984375,-2.2125244140625,12.75634765625
2.0937499,9.646238327026367,-3.0142998695373535,0.7326257228851318,-5.157470703125,-1.9989013671875,12.481689453125
2.0962499,9.660603523254395,-3.00711727142334,0.7158663272857666,-4.45556640625,-1.617431640625,12.3138427734375
2.0987499,9.674968719482422,-3.0142998695373535,0.6943184733390808,-3.9520263671875,-1.5106201171875,12.4053955078125
2.1012499,9.679757118225098,-3.028665065765381,0.6823474764823914,-3.7841796875,-1.3580322265625,12.1917724609375
2.1037499,9.691728591918945,-3.0597896575927734,0.667982280254364,-3.5247802734375,-1.2664794921875,12.237548828125
2.1062499,9.706093788146973,-3.1004912853240967,0.667982280254364,-3.3721923828125,-0.9918212890625,12.4969482421875
2.1087499,9.718064308166504,-3.141192674636841,0.6655880808830261,-3.1280517578125,-0.79345703125,12.603759765625
2.1112499,9.732429504394531,-3.179499864578247,0.667982280254364,-3.0517578125,-0.1220703125,12.6800537109375
2.1137498999999997,9.737217903137207,-3.1962592601776123,0.6751648783683777,-3.0059814453125,0.396728515625,12.6953125
2.1162499,9.746794700622559,-3.1890766620635986,0.689530074596405,-2.86865234375,0.8392333984375,12.6190185546875
2.1187499,9.763554573059082,-3.157952070236206,0.7182605266571045,-2.9754638671875,1.373291015625,12.63427734375
2.1212499,9.792284965515137,-3.1052796840667725,0.7493851184844971,-2.7923583984375,1.46484375,12.420654296875
2.1237499,9.837775230407715,-3.0406360626220703,0.7781155705451965,-3.35693359375,1.9683837890625,12.0849609375
2.1262499,9.880870819091797,-2.978386878967285,0.7972691655158997,-3.6468505859375,2.5634765625,11.749267578125
2.1287499,9.923966407775879,-2.9257144927978516,0.8020575642585754,-3.9520263671875,3.082275390625,11.2152099609375
2.1312499,9.952696800231934,-2.8826189041137695,0.8092401623725891,-4.4097900390625,3.5400390625,10.955810546875
2.1337498999999998,9.962273597717285,-2.853888511657715,0.8188169598579407,-4.974365234375,4.1961669921875,10.43701171875
2.1362499,9.955090522766113,-2.8395233154296875,0.828393816947937,-5.5694580078125,4.5013427734375,9.765625
2.1387499,9.931148529052734,-2.832340717315674,0.8475474119186401,-6.2408447265625,4.7760009765625,9.674072265625
2.1412499,9.890447616577148,-2.8395233154296875,0.8547300100326538,-6.7291259765625,5.2490234375,9.27734375
2.1437499,9.840168952941895,-2.853888511657715,0.8619126081466675,-7.1258544921875,5.6915283203125,8.5906982421875
2.1462499,9.773131370544434,-2.8826189041137695,0.8738836050033569,-7.4462890625,5.8135986328125,8.4686279296875
2.1487499,9.696516990661621,-2.9281086921691895,0.8882488012313843,-7.904052734375,6.16455078125,7.9193115234375
2.1512499,9.615114212036133,-2.985569477081299,0.9169792532920837,-8.4075927734375,6.16455078125,7.4920654296875
2.1537498999999998,9.533711433410645,-3.050212860107422,0.933738648891449,-8.697509765625,6.16455078125,7.2174072265625
2.1562499,9.452308654785156,-3.117250680923462,0.9385270476341248,-8.8958740234375,6.1798095703125,6.988525390625
2.1587499,9.385271072387695,-3.1747114658355713,0.9217676520347595,-9.1552734375,6.34765625,6.683349609375
2.1612499,9.32541561126709,-3.2297780513763428,0.8882488012313843,-9.3231201171875,6.6070556640625,6.2255859375
2.1637499,9.26795482635498,-3.2824504375457764,0.8427590131759644,-9.4451904296875,6.40869140625,6.04248046875
2.1662499,9.217676162719727,-3.3303346633911133,0.7996633648872375,-9.552001953125,6.439208984375,5.645751953125
2.1687499,9.165003776550293,-3.380612850189209,0.7541735172271729,-9.5672607421875,6.4697265625,5.279541015625
2.1712499,9.117119789123535,-3.4141316413879395,0.7158663272857666,-9.2620849609375,6.439208984375,5.157470703125
2.1737499,9.07641887664795,-3.4356794357299805,0.6847416758537292,-9.46044921875,6.2408447265625,4.57763671875
2.1762499,9.045293807983398,-3.4380736351013184,0.6631938815116882,-9.3841552734375,5.9356689453125,4.3182373046875
2.1787499,9.02135181427002,-3.4308910369873047,0.6584054827690125,-9.429931640625,5.706787109375,4.0130615234375
2.1812499,9.009381294250488,-3.4141316413879395,0.6655880808830261,-9.3536376953125,5.6304931640625,3.448486328125
2.1837499,9.002198219299316,-3.399766445159912,0.6775590777397156,-9.46044921875,5.401611328125,2.86865234375
2.1862499,9.011775016784668,-3.3901896476745605,0.6991068720817566,-9.5977783203125,5.2032470703125,2.9144287109375
2.1887499,9.023746490478516,-3.3877954483032227,0.7206547260284424,-9.490966796875,5.0048828125,3.082275390625
2.1912499,9.047688484191895,-3.3877954483032227,0.7422025203704834,-9.796142578125,4.7149658203125,2.899169921875
2.1937499,9.071630477905273,-3.3877954483032227,0.7757213711738586,-9.6893310546875,4.6539306640625,2.7008056640625
2.1962498999999998,9.105149269104004,-3.3734302520751953,0.7996633648872375,-9.6893310546875,4.486083984375,2.7313232421875
2.1987499,9.133879661560059,-3.3446998596191406,0.8236053586006165,-9.9639892578125,4.8370361328125,2.593994140625
2.2012499,9.167398452758789,-3.3016040325164795,0.8427590131759644,-10.19287109375,5.0048828125,2.5482177734375
2.2037499,9.193734169006348,-3.2561142444610596,0.8595184087753296,-10.5743408203125,5.0201416015625,2.8228759765625
2.2062499,9.210494041442871,-3.2154128551483154,0.8810662031173706,-11.0015869140625,5.096435546875,2.8839111328125
2.2087499,9.217676162719727,-3.1938650608062744,0.9145850539207458,-11.2457275390625,5.035400390625,2.86865234375
2.2112499,9.217676162719727,-3.1890766620635986,0.9528923034667969,-11.2152099609375,4.913330078125,3.1280517578125
2.2137499,9.21288776397705,-3.1962592601776123,0.9983820915222168,-11.444091796875,5.0811767578125,3.2958984375
2.2162498999999998,9.21288776397705,-3.2082302570343018,1.0414776802062988,-11.7034912109375,4.8065185546875,3.5552978515625
2.2187499,9.21288776397705,-3.2154128551483154,1.070208191871643,-11.7950439453125,4.9285888671875,3.814697265625
2.2212499,9.21288776397705,-3.2154128551483154,1.0845733880996704,-11.77978515625,5.0506591796875,3.84521484375
2.2237499,9.205705642700195,-3.205836057662964,1.0749965906143188,-11.688232421875,4.8675537109375,4.119873046875
2.2262499,9.186552047729492,-3.179499864578247,1.048660397529602,-11.3677978515625,4.9591064453125,4.5013427734375
2.2287499,9.150638580322266,-3.141192674636841,1.0079588890075684,-11.627197265625,4.852294921875,4.7607421875
2.2312499,9.11233139038086,-3.0789434909820557,0.9576807022094727,-11.90185546875,4.4097900390625,4.94384765625
2.2337499,9.066842079162598,-3.0166940689086914,0.912190854549408,-11.810302734375,4.241943359375,5.31005859375
2.2362499,9.030928611755371,-2.9520506858825684,0.871489405632019,-11.871337890625,3.90625,5.4931640625
2.2387499,9.004592895507812,-2.894589900970459,0.8355764150619507,-12.2833251953125,3.509521484375,5.950927734375
2.2412499,8.980650901794434,-2.849100112915039,0.8092401623725891,-12.6190185546875,3.2196044921875,6.2713623046875
2.2437499,8.959102630615234,-2.8107926845550537,0.7781155705451965,-13.0462646484375,2.86865234375,6.7138671875
2.2462499,8.932766914367676,-2.779668092727661,0.7493851184844971,-13.519287109375,2.25830078125,7.0648193359375
2.2487499,8.899248123168945,-2.7557260990142822,0.7206547260284424,-13.946533203125,1.861572265625,7.2479248046875
2.2512499,8.865729331970215,-2.734178304672241,0.689530074596405,-14.3890380859375,1.40380859375,7.8582763671875
2.2537499,8.83939266204834,-2.7126305103302,0.6584054827690125,-14.9993896484375,0.9918212890625,8.48388671875
2.2562499,8.813055992126465,-2.6886885166168213,0.6368576288223267,-15.6097412109375,0.640869140625,9.124755859375
2.2587498999999998,8.796297073364258,-2.6647465229034424,0.6224924325942993,-16.4642333984375,0.3204345703125,9.2620849609375
2.2612499,8.78193187713623,-2.6408045291900635,0.6200982332229614,-17.242431640625,-0.091552734375,9.6588134765625
2.2637499,8.772355079650879,-2.626439332962036,0.629675030708313,-18.0206298828125,-0.3814697265625,10.1318359375
2.2662499,8.769960403442383,-2.6216509342193604,0.6416460275650024,-18.9361572265625,-0.48828125,10.8184814453125
2.2687499,8.774748802185059,-2.628833532333374,0.6536170840263367,-19.8516845703125,-0.701904296875,11.3372802734375
2.2712499,8.789113998413086,-2.650381326675415,0.6584054827690125,-20.477294921875,-1.068115234375,11.962890625
2.2737499,8.808267593383789,-2.6671407222747803,0.6560112833976746,-20.8587646484375,-1.1749267578125,12.542724609375
2.2762499,8.832210540771484,-2.6839001178741455,0.6512228846549988,-21.453857421875,-1.2054443359375,13.24462890625
2.2787498999999998,8.851364135742188,-2.691082715988159,0.6344634294509888,-22.2015380859375,-0.9918212890625,13.885498046875
2.2812499,8.865729331970215,-2.6839001178741455,0.6129156351089478,-22.8424072265625,-0.8697509765625,14.556884765625
2.2837499,8.875306129455566,-2.674323320388794,0.5889736413955688,-23.25439453125,-1.129150390625,15.0146484375
2.2862499,8.882488250732422,-2.655169725418091,0.5674257874488831,-23.86474609375,-1.2664794921875,15.7318115234375
2.2887499,8.892065048217773,-2.6384103298187256,0.5530605912208557,-24.3988037109375,-1.251220703125,16.265869140625
2.2912499,8.9064302444458,-2.6144683361053467,0.5363011956214905,-24.688720703125,-1.2054443359375,16.7083740234375
2.2937499,8.920795440673828,-2.5929205417633057,0.5315127968788147,-25.299072265625,-1.0833740234375,17.3797607421875
2.2962499,8.93037223815918,-2.5689783096313477,0.5195417404174805,-25.421142578125,-0.9613037109375,17.7001953125
2.2987499,8.942343711853027,-2.542642116546631,0.5123591423034668,-26.0162353515625,-0.9307861328125,18.2342529296875
2.3012499,8.944737434387207,-2.516305923461914,0.49799394607543945,-26.2908935546875,-0.4730224609375,18.707275390625
2.3037499,8.937555313110352,-2.494758129119873,0.4812345504760742,-26.4892578125,-0.0457763671875,19.1650390625
2.3062499,8.927978515625,-2.4684219360351562,0.4596867263317108,-26.6876220703125,0.457763671875,19.744873046875
2.3087499,8.9064302444458,-2.456450939178467,0.4381389021873474,-27.191162109375,0.42724609375,20.0653076171875
2.3112499,8.882488250732422,-2.449268341064453,0.40940847992897034,-27.374267578125,0.30517578125,20.5078125
2.3137499,8.856152534484863,-2.449268341064453,0.37828385829925537,-27.3284912109375,0.823974609375,21.026611328125
2.3162499,8.827422142028809,-2.4636335372924805,0.33997663855552673,-27.496337890625,0.9765625,21.6522216796875
2.3187499,8.803479194641113,-2.4827871322631836,0.2992752194404602,-27.6641845703125,1.190185546875,22.2320556640625
2.3212498999999998,8.78193187713623,-2.5019407272338867,0.2513911724090576,-27.6336669921875,1.6632080078125,22.7203369140625
2.3237499,8.760383605957031,-2.52109432220459,0.21308395266532898,-27.557373046875,1.434326171875,23.3612060546875
2.3262499,8.738836288452148,-2.537853717803955,0.17956513166427612,-27.4810791015625,1.434326171875,24.139404296875
2.3287499,8.707711219787598,-2.5450363159179688,0.15083470940589905,-27.1759033203125,1.983642578125,24.7650146484375
2.3312499,8.674192428588867,-2.5474305152893066,0.13407529890537262,-26.91650390625,2.1820068359375,25.390625
2.3337499,8.631096839904785,-2.540247917175293,0.11971008777618408,-26.336669921875,2.288818359375,25.970458984375
2.3362499,8.588001251220703,-2.5306711196899414,0.10534487664699554,-26.123046875,2.471923828125,26.611328125
2.3387499,8.544905662536621,-2.513911724090576,0.0933738648891449,-25.57373046875,2.410888671875,27.496337890625
2.3412498999999998,8.506598472595215,-2.497152328491211,0.07661445438861847,-25.3448486328125,2.6092529296875,28.38134765625
2.3437499,8.47786808013916,-2.477998733520508,0.06224924325942993,-24.688720703125,2.7618408203125,29.0985107421875
2.3462499,8.449137687683105,-2.451662540435791,0.05027823522686958,-24.444580078125,2.777099609375,29.96826171875
2.3487499,8.425195693969727,-2.43011474609375,0.043095629662275314,-24.0936279296875,2.899169921875,31.0211181640625
2.3512499,8.394071578979492,-2.4013843536376953,0.043095629662275314,-23.681640625,3.0670166015625,32.1044921875
2.3537499,8.365341186523438,-2.3750481605529785,0.043095629662275314,-23.2696533203125,3.2196044921875,33.294677734375
2.3562499,8.329427719116211,-2.346317768096924,0.0454898327589035,-22.705078125,3.23486328125,34.4085693359375
2.3587499,8.29590892791748,-2.3127987384796143,0.0454898327589035,-22.491455078125,3.0975341796875,35.6597900390625
2.3612499,8.26478385925293,-2.276885747909546,0.038307227194309235,-22.216796875,2.9296875,37.1246337890625
2.3637499,8.233659744262695,-2.2361843585968018,0.019153613597154617,-21.881103515625,2.9449462890625,38.604736328125
2.3662499,8.20492935180664,-2.183511972427368,-0.014365210197865963,-21.5911865234375,3.0364990234375,40.130615234375
2.3687499,8.176198959350586,-2.1284453868865967,-0.05985504388809204,-21.331787109375,3.0670166015625,42.0989990234375
2.3712499,8.133103370666504,-2.073378562927246,-0.10534487664699554,-21.4691162109375,2.8076171875,43.8995361328125
2.3737499,8.087613105773926,-2.0159177780151367,-0.14365209639072418,-21.30126953125,2.5482177734375,45.6695556640625
2.3762499,8.027758598327637,-1.9608511924743652,-0.181959331035614,-21.3470458984375,2.532958984375,47.66845703125
2.3787499,7.9631147384643555,-1.9129672050476074,-0.2106897532939911,-21.575927734375,2.349853515625,49.3927001953125
2.3812499,7.8960771560668945,-1.8602946996688843,-0.23942017555236816,-21.78955078125,1.861572265625,51.727294921875
2.3837498999999998,7.833827972412109,-1.8100165128707886,-0.26575639843940735,-22.3541259765625,1.3580322265625,54.1839599609375
2.3862499,7.781155586242676,-1.7597382068634033,-0.2944868206977844,-22.88818359375,0.8544921875,56.7474365234375
2.3887499,7.733271598815918,-1.699883222579956,-0.33279404044151306,-23.13232421875,0.3662109375,59.234619140625
2.3912499,7.692570209503174,-1.6328455209732056,-0.37828385829925537,-23.7274169921875,-0.3509521484375,61.767578125
2.3937499,7.654263019561768,-1.5634137392044067,-0.43095630407333374,-24.5361328125,-0.9918212890625,64.2547607421875
2.3962499,7.623138427734375,-1.4939818382263184,-0.4836287498474121,-25.390625,-1.6021728515625,67.0013427734375
2.3987499,7.5968017578125,-1.434126853942871,-0.5315127968788147,-26.214599609375,-2.044677734375,69.6563720703125
2.4012499,7.575253963470459,-1.3862427473068237,-0.5770025849342346,-27.0538330078125,-2.716064453125,72.5250244140625
2.4037498999999998,7.553706169128418,-1.3527239561080933,-0.6129156351089478,-28.01513671875,-3.6163330078125,75.6072998046875
2.4062499,7.536946773529053,-1.3287819623947144,-0.6416460275650024,-29.11376953125,-4.4097900390625,78.338623046875
2.4087499,7.524975776672363,-1.314416766166687,-0.6584054827690125,-30.2276611328125,-5.096435546875,81.1920166015625
2.4112499,7.527369976043701,-1.3120225667953491,-0.667982280254364,-31.158447265625,-5.9661865234375,84.2742919921875
2.4137499,7.55131196975708,-1.3215993642807007,-0.6751648783683777,-32.1502685546875,-7.0037841796875,86.9598388671875
2.4162499,7.5968017578125,-1.335964560508728,-0.6799532771110535,-33.3404541015625,-7.843017578125,89.691162109375
2.4187499,7.661445617675781,-1.3646949529647827,-0.6847416758537292,-34.3017578125,-8.85009765625,93.0328369140625
2.4212499,7.745242595672607,-1.3886369466781616,-0.6943184733390808,-35.4461669921875,-9.8419189453125,96.0693359375
2.4237499,7.841010570526123,-1.4173674583435059,-0.7086837291717529,-36.4837646484375,-10.9710693359375,98.9532470703125
2.4262499,7.939172744750977,-1.4437036514282227,-0.7350199222564697,-37.506103515625,-11.8865966796875,101.9744873046875
2.4287499,8.044517517089844,-1.4724340438842773,-0.7805097699165344,-38.39111328125,-12.8326416015625,104.8736572265625
2.4312499,8.14028549194336,-1.4963760375976562,-0.8427590131759644,-39.3524169921875,-13.824462890625,107.5592041015625
2.4337499,8.226476669311523,-1.5203180313110352,-0.9169792532920837,-40.83251953125,-14.739990234375,110.5194091796875
2.4362499,8.303091049194336,-1.558625340461731,-0.993593692779541,-42.0684814453125,-15.960693359375,113.525390625
2.4387499,8.35097599029541,-1.599326729774475,-1.0582371950149536,-43.731689453125,-17.0440673828125,116.3330078125
2.4412499,8.389283180236816,-1.647210717201233,-1.1061211824417114,-44.6624755859375,-18.035888671875,119.62890625
2.4437499,8.40843677520752,-1.6927006244659424,-1.1444283723831177,-46.539306640625,-19.1802978515625,122.6654052734375
2.4462498999999998,8.425195693969727,-1.7190368175506592,-1.1683704853057861,-47.9736328125,-20.4315185546875,125.7171630859375
2.4487499,8.439560890197754,-1.7381904125213623,-1.1994950771331787,-49.4232177734375,-21.7132568359375,128.814697265625
2.4512499,8.461109161376953,-1.7597382068634033,-1.2258312702178955,-51.1932373046875,-22.8118896484375,131.9580078125
2.4537499,8.494627952575684,-1.7884687185287476,-1.2713210582733154,-52.91748046875,-24.2919921875,135.1470947265625
2.4562499,8.53293514251709,-1.8339585065841675,-1.3287819623947144,-54.656982421875,-25.45166015625,137.9852294921875
2.4587499,8.585607528686523,-1.8914192914962769,-1.3910311460494995,-56.3201904296875,-26.79443359375,140.5487060546875
2.4612499,8.647856712341309,-1.944091796875,-1.4628572463989258,-57.92236328125,-27.77099609375,143.646240234375
2.4637499,8.729259490966797,-1.98958158493042,-1.5418659448623657,-59.5245361328125,-29.3121337890625,146.7132568359375
2.4662498999999998,8.81784439086914,-2.0254945755004883,-1.6184803247451782,-61.431884765625,-30.731201171875,149.6429443359375
2.4687499,8.918401718139648,-2.054224967956543,-1.702277421951294,-63.4307861328125,-32.012939453125,152.587890625
2.4712499,9.02135181427002,-2.0853497982025146,-1.7836803197860718,-65.399169921875,-33.660888671875,155.609130859375
2.4737499,9.129091262817383,-2.123656988143921,-1.8555063009262085,-67.2149658203125,-35.369873046875,158.99658203125
2.4762499,9.246406555175781,-2.1715409755706787,-1.9321208000183105,-69.305419921875,-36.9110107421875,162.17041015625
2.4787499,9.38048267364502,-2.2242133617401123,-1.9991583824157715,-71.685791015625,-38.4979248046875,165.95458984375
2.4812499,9.531316757202148,-2.2816741466522217,-2.073378562927246,-73.91357421875,-40.0390625,169.4183349609375
2.4837499,9.6989107131958,-2.346317768096924,-2.1380221843719482,-76.4923095703125,-41.6412353515625,172.8363037109375
2.4862499,9.890447616577148,-2.403778553009033,-2.1978771686553955,-79.315185546875,-43.304443359375,176.57470703125
2.4887499,10.101137161254883,-2.4684219360351562,-2.2601263523101807,-81.756591796875,-45.013427734375,180.23681640625
2.4912499,10.333374977111816,-2.5330653190612793,-2.3247697353363037,-84.869384765625,-46.5240478515625,183.807373046875
2.4937499,10.584765434265137,-2.6024973392486572,-2.3989901542663574,-87.9364013671875,-48.3551025390625,187.9119873046875
2.4962499,10.860098838806152,-2.6623523235321045,-2.492363929748535,-90.5303955078125,-50.4302978515625,191.7572021484375
2.4987499,11.15697956085205,-2.7078421115875244,-2.604891538619995,-93.353271484375,-52.703857421875,195.5718994140625
2.5012499,11.470620155334473,-2.717418909072876,-2.7461493015289307,-96.74072265625,-54.931640625,199.493408203125
2.5037499,11.798625946044922,-2.7126305103302,-2.9089550971984863,-100.2960205078125,-57.159423828125,203.3233642578125
2.5062499,12.12902545928955,-2.6886885166168213,-3.093308687210083,-104.1107177734375,-59.661865234375,207.09228515625
2.5087498999999998,12.45463752746582,-2.652775526046753,-3.28963303565979,-107.9864501953125,-62.286376953125,210.9832763671875
2.5112499,12.78264331817627,-2.612074136734009,-3.4955344200134277,-111.9842529296875,-65.2008056640625,215.240478515625
2.5137499,13.12261962890625,-2.5498247146606445,-3.6990416049957275,-116.0888671875,-68.3746337890625,218.841552734375
2.5162499,13.48653793334961,-2.4684219360351562,-3.9001545906066895,-120.4986572265625,-71.5179443359375,222.7020263671875
2.5187499,13.874399185180664,-2.3558945655822754,-4.098873138427734,-125.152587890625,-74.64599609375,226.5625
2.5212499,14.286201477050781,-2.1978771686553955,-4.311957359313965,-130.4931640625,-77.9266357421875,230.2093505859375
2.5237499,14.72673511505127,-1.9991583824157715,-4.51067590713501,-136.8865966796875,-80.7037353515625,233.82568359375
