# Time (seconds),Accel_X,Accel_Y,Accel_Z,Gyro_X,Gyro_Y,Gyro_Z
0.0012499,7.3832988734512135,-3.9791655571313838,2.137917222669099,5.450233020197362,5.932824393066822,-2.290479297515483
0.0112499,7.498102569135911,-3.8777075200505275,2.1696551058391504,4.772445506248384,6.232671451245012,-1.556742510007054
0.0212499,7.626211316954076,-3.772531999828368,2.159989663775166,4.069349721295745,7.275731891965282,-1.0405133698253832
0.0312498999999999,7.807080437444843,-3.6919401489914003,2.124859291105516,3.163419141316371,8.498272450295797,-0.5691854534000845
0.0412499,8.00050307418435,-3.652789413446955,2.1341457566400748,1.733921269675308,9.654474539593773,0.14682357319070682
0.0512499,8.215373759107164,-3.605755715303636,2.173789938196,-0.40927874250983537,11.49157448364031,0.8506354950518494
0.0612498999999999,8.445672429121986,-3.524463572485632,2.2224442574248773,-2.833275819932757,13.579263787778498,1.4927872087463483
0.0712499,8.563725290235672,-3.434934949565125,2.276230676970156,-4.983190927308493,15.245736214887035,2.279773854937211
0.0812499,8.5658053572962,-3.3925608575685717,2.340518701511311,-6.524000291741602,16.667488446910543,3.1408354259819453
0.0912499,8.638237831446013,-3.4917925267145487,2.4556960146428612,-7.220343975575721,18.22090284683926,4.748243166025599
0.1012499,8.712933400737281,-3.711940189837642,2.5154158648533853,-5.988295628633038,19.818109691166995,7.480442802902625
0.1112499,8.680248627293764,-3.9482425987968854,2.5358289026702616,-2.825207159523239,21.119201324895123,11.442206377351152
0.1212499,8.663574050188549,-4.1173845122843495,2.6174572855040137,0.8321362656210517,23.19665217425212,16.233011688332496
0.1312499,8.67161221208803,-4.150277809238742,2.641630654647607,4.559510949031224,25.442567113753075,20.83178651256864
0.1412499,8.643313476085087,-4.144615671755214,2.6140328136443354,7.93401929167213,27.009884974849975,24.482220474082443
0.1512499,8.591106340413997,-4.196067517266064,2.6203891787288818,10.474321815424341,28.26334177561171,27.69059729930023
0.1612499,8.569869094306451,-4.242403549104309,2.6603635488352944,12.22096441419139,29.52902501252395,30.213164989857848
0.1712499,8.629727820712501,-4.231424167934052,2.7277123430875507,13.370137043098902,30.63076079280942,31.61908419909795
0.1812499,8.708729028940287,-4.210035866307011,2.7708951752010234,14.24218297014199,31.453332626481966,32.08797650145276
0.1912499,8.66582958386941,-4.213008138380045,2.810690619756684,14.516754322643628,31.761332022113745,31.694763937965217
0.2012499,8.465036432930189,-4.263074721065013,2.882215302207998,14.451501586883854,31.629424240982097,30.642784306564
0.2112499,8.20349645411595,-4.359794061100596,2.9419921445531494,14.183257195869741,31.249488996586127,29.181013275950686
0.2212499,7.996834785783654,-4.448874714844512,3.0018741382427665,13.677117791429843,30.500512259812997,27.323428895498683
0.2312499,7.856132859213214,-4.512167117754853,3.0952349292383605,13.538995073684847,29.283291523196603,25.00212397691671
0.2412499,7.760977457534083,-4.496787841461023,3.18442200330032,13.815886803630477,28.10095134454297,21.883622037054845
0.2512499,7.616370574236708,-4.453001446956268,3.3032780773080628,14.572795324349878,26.900990199113036,18.23388024750754
0.2612499,7.379298207318518,-4.52060533202333,3.4399262084293545,16.255893740568062,25.8044686945145,14.742361268426215
0.2712499,7.219872189239045,-4.601940862378172,3.5331926490379146,18.453145054848203,25.082570750300466,11.546384921742696
0.2812499,7.200385159865765,-4.572806262072103,3.6004340847490077,21.29010484290309,24.50269877703716,8.240505877970334
0.2912499,7.1755182155654085,-4.515068559243555,3.6788843340717343,24.92593459288343,24.163689561839917,4.866002459446989
0.3012499,7.140914816107727,-4.478143871836315,3.7844478897434377,29.133212623176576,24.260861267396557,2.1866320115728124
0.3112499,7.1827630867667,-4.436902012954157,3.8510948817499293,33.306470987522225,25.158060090391114,0.48078698846424955
0.3212499,7.345204420462413,-4.314717045828152,3.8337173789646175,37.48625489370252,26.911481174343617,-0.4352214860185297
0.3312499,7.620845701418387,-4.135060367590682,3.8608764058841665,41.554835364455755,28.82646066644406,-0.9400527496742667
0.3412499,7.8693897724209885,-4.043999638887297,4.028600893273909,44.98510419571912,30.708894685072902,-0.7052428104770816
0.3512499,7.990151910680938,-4.02988448473502,4.20223694162898,47.7805025592876,33.01801281230473,0.6366534716004812
0.3612499,8.075501327228782,-4.010205909814964,4.241422424389218,49.44288388861512,35.225635836242596,2.2937901304072814
0.3712499,8.251162841599905,-3.9587152514475163,4.304850383397471,49.43564615789716,36.71118206397496,3.6926505313522937
0.3812499,8.492342915529868,-3.8582796789017224,4.59905703859756,48.01246499619381,37.81945342878439,4.498339378878595
0.3912499,8.695488253457782,-3.7396916613066957,5.042205171702328,45.822120839887255,38.9182394786002,4.03391303078389
0.4012499,8.83857821145689,-3.663658065401947,5.476930537175972,42.81960009467021,39.7142546533067,1.964224070064631
0.4112499,8.952940821193463,-3.745600659103375,5.929821182131393,39.40818052243247,39.8381471701788,-0.4906434147896606
0.4212499,8.997647712986678,-4.050757141378833,6.4686512891251295,35.94267363159454,39.30922379866386,-2.3240020425413466
0.4312499,8.953971537423708,-4.42383117344258,7.025986135092653,32.22916835298187,38.08074556354481,-3.1929366431480544
0.4412499,8.900442200897862,-4.666755334545586,7.434649748922756,28.25397250627936,36.36122772022036,-3.9405100295646998
0.4512499,8.865443368996829,-4.802040747571466,7.604207282547759,24.661899795704084,33.42863024258172,-5.497181817411755
0.4612499,8.842097618239888,-4.927939975125966,7.65544549331128,21.564109832281645,28.445576284409835,-7.870853702461583
0.4712499,8.870504036963398,-5.090768467639841,7.742100041164297,18.851753975725945,21.940573228538273,-10.271522724404397
0.4812499,8.907085232649123,-5.206197536409358,7.73862129510537,16.691551226133928,14.665652600286101,-12.398968460343564
0.4912499,8.89327221273368,-5.2819932796691,7.558181810971135,15.194781507792408,6.594545154215646,-14.25247924682181
0.5012499,8.878646581794438,-5.346270516892382,7.340919186062357,14.099724824169622,-2.7729401578465023,-15.106270240378786
0.5112499,8.906841108049118,-5.269442616990453,7.10599464800197,12.741301779796098,-12.257450882685733,-15.150806005745979
0.5212499,8.923848413436033,-5.076000278420045,6.6827183915597805,10.419208712264034,-21.220048070212368,-14.896281573984805
0.5312499,8.912116631680178,-4.866538340917157,6.1902382833292,6.87858192928692,-30.095763643861993,-14.701329199778028
0.5412499000000001,8.997894963452682,-4.561086220558137,5.882793930262808,2.239463284466815,-38.038206775720056,-14.792894188990052
0.5512499000000001,9.18803983364191,-4.24021210794641,5.738441895168445,-3.0677084666466126,-44.27902008191257,-15.426848432776817
0.5612499000000001,9.272780123199086,-4.032112895757509,5.578412225356987,-8.453294877730654,-48.523555091713135,-15.727862516721668
0.5712499000000001,9.145374820520692,-3.8834402068319336,5.28553474863291,-14.36698561072546,-50.79145294629728,-15.553332562279248
0.5812499,8.850909637089437,-3.7265419653809984,4.909487804833963,-20.246448880575947,-52.05949597808143,-15.334643964171107
0.5912499,8.499579848684835,-3.519787704582285,4.5093839257632915,-25.36420340155165,-53.20251306520195,-15.401757956256017
0.6012499,8.130737530782183,-3.3220971083233177,4.134632880915448,-29.514116572507373,-54.081020748372126,-15.47126486253545
0.6112499,7.7765605395800135,-3.212542201312477,3.801715301552362,-32.19713751026984,-54.45855759136556,-15.357314288789246
0.6212499,7.478820293425995,-3.1659418147648712,3.5070303753155554,-32.801610746490276,-54.68109152411684,-14.865348537104705
0.6312499,7.216308634727843,-3.1409520254090397,3.2965378133095413,-31.541664624810853,-54.43198402422519,-13.677900172355605
0.6412499,6.9636899663835115,-3.141478130395051,3.1992102725636986,-28.867145026631075,-53.14600734940272,-11.88657318662231
0.6512499,6.804763984381587,-3.081059914900505,3.100957590961319,-25.08592931839865,-50.75267208165369,-9.631877787738508
0.6612499000000001,6.758694083804744,-2.926477726109023,2.9563664283352957,-20.80649137103893,-47.727618996507736,-7.285715985728687
0.6712499000000001,6.702604476489598,-2.784983836157927,2.897730708066194,-16.582186957427805,-44.233226305244656,-5.082036859803103
0.6812499000000001,6.5776235097675935,-2.7207126259040906,2.9476018475061228,-12.335710217055606,-39.90507403368381,-2.644509261172613
0.6912499000000001,6.439801313215212,-2.6793274111563323,2.951700581788072,-7.8963736603339445,-34.89632768270833,0.010426916521255068
0.7012499000000001,6.364465481231335,-2.640954674243207,2.858279064456237,-4.185181219378925,-29.448453434079596,2.5688373411838015
0.7112499,6.349087401149864,-2.654883626076955,2.7632823081057705,-1.6391671970431514,-23.887430608239985,4.986358398418512
0.7212499,6.338309914758243,-2.6780672752320234,2.7302112655144812,0.09623260599512244,-18.291678219862092,6.9035520521779015
0.7312499,6.33616327876174,-2.6734398155028116,2.7583146334621143,1.0866831256078164,-12.436664352049224,8.49511988079925
0.7412499,6.369112963700833,-2.7074800753392267,2.809302188779507,1.3019950418642101,-6.288069368852111,9.592067592376248
0.7512499,6.432245917983532,-2.776937114477062,2.860410494607298,1.1986540775852175,-0.2914741568629156,10.143189810067359
0.7612499,6.602544327873741,-2.885671725636236,2.93107480798154,0.7718258670745599,5.538121929163406,10.452866127906697
0.7712499,6.833809718961751,-3.0981045618831997,3.1107970537443697,0.3742384625662307,11.393895475868336,11.015300162656118
0.7812499,7.036285490705185,-3.330843810604485,3.3508913304432655,0.8867643472897405,17.268998095975775,11.939858634506878
0.7912499000000001,7.203799891772835,-3.5185034873342156,3.516874153383648,2.483105374464233,22.611595535532793,12.917190924172273
0.8012499000000001,7.334849908051137,-3.7159035799852265,3.56878850143539,5.6189876734369095,26.84533819295144,13.972963798577913
0.8112499000000001,7.418399326188561,-4.008358020034917,3.6080522106112682,10.551204725300925,29.53599532954795,15.489680545872751
0.8212499000000001,7.502128765249143,-4.441795389437459,3.7207320022052204,16.57038346595137,31.26730937100106,17.961288989898236
0.8312499000000001,7.677465768620623,-4.854325227683195,3.856881521573371,23.382231051951955,32.57764417168243,21.07657985634998
0.8412499,7.941728936485824,-5.190021151287235,3.993664782211541,31.695174515240677,33.104167523240534,24.05593773582055
0.8512499,8.213403798019716,-5.545745107812255,4.137205403047341,42.29137934863349,32.46609062354733,26.77759105271048
0.8612499,8.421569708488136,-5.847895633973847,4.21466793255482,54.18108541116693,30.536376424554792,29.260919986829386
0.8712499,8.559905566380355,-5.9685504382032715,4.279704264258724,65.12603964249848,28.083466165032817,30.662562964201523
0.8812499,8.651739269953898,-5.97492358534818,4.36733923111595,73.97361280173375,25.317884024924716,30.71875038148508
0.8912499,8.765101189590343,-5.894823109033816,4.4969765236098285,79.45717430749667,21.925544121294028,30.00621717605902
0.9012499,8.904717343368219,-5.554640566854552,4.676328559067603,79.22311708530123,18.292146441948024,27.788724832836582
0.9112499,8.950484837260701,-4.997559869767599,4.7801600847669805,71.3032493578275,14.629376607560719,23.785376709766656
0.9212499,8.98338489546555,-4.433372581697916,4.762017752818749,55.11255831300001,10.804848034374153,18.20987551667015
0.9312499,9.066994370860696,-3.9774366791599434,4.779856711155075,31.413676758541683,7.046063033861481,11.481011277040217
0.9412499,9.007713319920667,-3.656239460404795,4.849487148816855,3.226998746370608,3.8847038638575797,4.410993771359152
0.9512499,8.814299866690485,-3.449172562953775,4.855310245311842,-26.247652817282233,1.3829750983331361,-2.8572972991721537
0.9612499,8.63140948960217,-3.482342440675612,4.787739377544607,-53.70875416706618,-1.27214257345381,-9.412788185390324
0.9712499,8.41278650001163,-3.7719311998645857,4.789993973060001,-75.55990801784749,-3.8725563700674313,-14.481147318206416
0.9812499,8.133248615588975,-4.108867440908923,4.82132611756797,-89.8999438815947,-6.02790345572884,-18.09304329808861
0.9912499,7.931478508209515,-4.420745077057782,4.772428889818879,-96.45542287363428,-7.885172283645808,-20.116037316616467
1.0012499,7.787347897677874,-4.704620713509248,4.749097326020602,-95.07419961731192,-9.484568924598646,-20.603969565443112
1.0112499,7.6381833569100035,-4.94374802491834,4.8014619836948285,-86.2506002593024,-10.52859131466573,-19.70315578810607
1.0212499,7.467722872787024,-5.125476366904909,4.817263383249073,-72.76169729848998,-10.796848187335794,-17.446498236662375
1.0312499,7.279887904847768,-5.211502569538963,4.711127639503419,-56.61591710592626,-10.577320570516722,-14.317399121062442
1.0412499,7.208120849206472,-5.1685396264538035,4.5800289202225795,-39.55233707873207,-9.938302451938767,-10.657084174226124
1.0512499,7.265288119232375,-5.024206607846026,4.522274150037983,-23.393191998947813,-8.753323010710416,-6.852473285929697
1.0612499,7.233290863315056,-4.845112076764436,4.431937551770659,-9.539438473118386,-7.225575915989636,-3.2872682271077402
1.0712499,7.133616491634289,-4.627971790153734,4.251094874405218,1.0055392976754984,-5.45743270215698,-0.14063217780753243
1.0812499,7.141871707741295,-4.346978504370513,4.078847118723316,7.452165374176135,-3.391583255345653,1.9394104201486058
1.0912499,7.204575069325881,-4.053240822440125,3.9669839689146156,10.01043068047147,-1.2848183360063374,2.6456978901041537
1.1012499,7.228356668659497,-3.864065408012939,3.872504206308245,9.312604715396718,0.8317015489099027,2.738101489971773
1.1112499,7.233289603029063,-3.7696124740610477,3.8012624340056655,5.965751359256495,2.8835716085482805,2.7044793414696553
1.1212499,7.253521340124555,-3.6533307826274894,3.8138489470790766,1.2793647800298533,4.532675145589865,2.3936784020893236
1.1312499,7.279101336821499,-3.596405135787478,3.815170301700818,-4.114851418269325,5.421557654063167,1.8011073109951456
1.1412499,7.288765006511845,-3.605311248008869,3.61867204056839,-10.277805959575538,4.82770885488627,1.2873991661185271
1.1512499,7.34421159856284,-3.578211351368814,3.509466058667388,-17.127899455460692,3.6080737942916317,1.0209150580754793
1.1612498999999998,7.3958550954582565,-3.64277605516736,3.6602310495671873,-23.322270304586116,2.8296615708792867,1.2130161335673937
1.1712498999999998,7.426455165953535,-3.8434532624887634,3.844676837017534,-27.617393666521096,2.3040609755249033,2.0972589853785655
1.1812499,7.535046442310798,-4.044604910421379,3.9820960396868563,-29.66079073859339,2.155656532420589,3.4871246758540027
1.1912499,7.648390316569375,-4.223306028817679,3.9969959133227255,-28.343965818737665,1.9968138546347876,5.313566148165892
1.2012499,7.690701257406453,-4.444529239171866,3.946705022485085,-23.57239191343133,1.6973050585144205,7.949266627284975
1.2112499,7.7102974272902856,-4.605387836787294,3.927161378465382,-17.451180710711604,1.7080849234559397,10.62448485301434
1.2212499,7.7334897878741184,-4.609180194638164,3.8844795467026434,-11.209996785467618,1.977395474079915,12.853942832309107
1.2312499,7.812187832986646,-4.545570961380796,3.8665820071354102,-5.071027681841592,2.465649986307662,14.323368213683231
1.2412499,7.9208514531810925,-4.513503272515675,3.898734577512607,0.5862672090373873,3.1120710304699983,14.74277456532106
1.2512499,8.001361121602653,-4.478749853854093,3.9326789537371707,4.64581673827827,3.988190056727703,14.337425115814568
1.2612499,8.083856906428803,-4.403260435695704,3.9581601483114093,6.366421410774717,5.114336915452515,13.078421374302021
1.2712499,8.176833375799717,-4.329255123175867,3.953073045994165,5.952184311459537,5.880514883760557,11.22776443466119
1.2812499,8.274962457026223,-4.326241668137611,3.969502092388006,4.349684553246309,6.461640385157419,9.165964066889394
1.2912499,8.356795872706265,-4.3998122180914185,4.016329427658812,2.6741287796491005,7.0139612147601555,7.268771491694872
1.3012499,8.358698838733421,-4.504971614424615,4.026331465553552,1.6381213433678543,7.1029801923019535,5.7349608855172365
1.3112499,8.31830005339109,-4.582209032648947,3.98238874630085,1.6449023756105583,6.8274650564295305,4.584796323088256
1.3212499,8.307444023947333,-4.671387890552676,3.920443010264044,2.7651461815834146,5.826106617450873,3.744975559050863
1.3312499,8.333739940100601,-4.823298449346406,3.963564150983715,5.161411097859465,4.358430533240811,3.3873425973697593
1.3412499,8.426836727411436,-4.940675308479077,4.104318382563036,9.161170298449507,3.225062411859237,3.5918274519934688
1.3512499,8.47413893978154,-4.984857026970713,4.245322275517816,14.204617661470062,2.012144802356647,4.163322987352727
1.3612499,8.40118552743718,-4.958003536342976,4.2735407917831525,18.752816774590098,0.5746467987176729,4.431377616137611
1.3712499,8.282729928589175,-4.90549279429794,4.237576596631316,22.69456893742665,-1.3590042548823291,4.3081866859605
1.3812499,8.164841539399193,-4.860593594930406,4.267246041774806,25.451265106396125,-3.7744411383535286,4.000389612084327
1.3912499,8.040911890826264,-4.807431027632615,4.303776890331426,26.151554983957652,-5.977348477863526,3.5665449391153903
1.4012499,7.945739053507036,-4.708862633224585,4.36564723863221,25.41590641756345,-7.926583997571772,2.7543634335932
1.4112498999999998,7.937147416440141,-4.576819132167064,4.420626165475411,23.67872959370495,-9.771217526853826,1.5126684888955402
1.4212498999999998,7.9467350123647575,-4.491925779968809,4.478536148963868,21.325161836222016,-11.230681486993447,0.16059113017045262
1.4312499,7.903940045340104,-4.438509942338768,4.585068414812597,18.692747772646836,-12.22863594007888,-1.230848022248719
1.4412499,7.818000673725271,-4.382834954667939,4.632509187019191,15.987768079741974,-12.680725324916045,-2.613909455466558
1.4512499,7.705819159700553,-4.34964646551355,4.575018136734577,13.281865693931667,-12.91526673354549,-3.8627144287254365
1.4612499,7.580245545450407,-4.37615810383471,4.506198524921796,10.822652091057469,-13.221090050927424,-4.732262147332034
1.4712499,7.4870141816737625,-4.442601495879731,4.492847780738987,8.9905467001818,-13.502808968866429,-5.25535372200725
1.4812499,7.422905252683155,-4.4859547830320246,4.4861068813733755,8.378246677313804,-13.703541853261184,-5.5316581020371265
1.4912499,7.406128376038964,-4.4984635219635924,4.466402439889166,8.970360177076532,-13.82712244949146,-5.466476205354568
1.5012499,7.410510559475669,-4.48917223267398,4.468308472171988,10.114283669898578,-13.551697185737865,-5.263391442447582
1.5112499,7.407659084832894,-4.520259551775409,4.46710369214152,11.822094985940629,-13.099635655498007,-4.598752978210959
1.5212499,7.420294274972789,-4.552467429644788,4.445640875746478,13.929345838864732,-12.702606404576041,-3.520306418567506
1.5312499,7.411222001991072,-4.503268007057037,4.44326015008428,15.668558671897264,-12.05506766504213,-2.6470159645034577
1.5412499,7.383179136992545,-4.423918175728554,4.3825010669987225,16.859271112843288,-11.351139826340486,-1.9714359968691846
1.5512499,7.381833695496959,-4.398344365552371,4.232157542481971,17.32465142364634,-10.883374882708031,-1.2861246946887157
1.5612499,7.364360266453212,-4.39491131847668,4.128505162501123,16.874223873134337,-10.487083509227793,-0.40724387519402117
1.5712499,7.374312451760355,-4.383179185931589,4.13959083497874,15.66869994458891,-9.733993682623478,0.5824689279042244
1.5812499,7.455453209608845,-4.369106368806899,4.152849212928137,14.338108238899958,-8.776473374821634,1.3445676581535169
1.5912499,7.510030224183144,-4.365465190780671,4.102407978115483,12.870333938443794,-7.969447710065957,1.9803839292595586
1.6012499,7.5328357878622905,-4.399397194967461,4.0858857775770705,11.283633458522567,-6.880180638822038,2.6962007095690597
1.6112499,7.593414921314689,-4.460155134502278,4.134678038019927,9.851938978152672,-5.6333309718548925,3.690920767970514
1.6212499,7.629465528361333,-4.493227300082706,4.155464882080512,8.716659078630686,-4.540161251554691,4.537175817954235
1.6312499,7.607029954306904,-4.482297970859739,4.117006490968126,7.698121715644929,-3.707161271677142,4.976780946489282
1.6412499,7.60799199304377,-4.497203549972323,4.046538838872832,6.393900127181842,-3.2174220056100995,5.254429693502981
1.6512499,7.594172964697218,-4.570607960601319,4.014241688953782,5.346470833637391,-2.949463518409982,5.440721872945444
1.6612499,7.54414386809376,-4.648970589832454,4.054284533874157,4.567191105833051,-2.8808712471393343,5.542022865290228
1.6712498999999998,7.573146211913803,-4.676695992191519,4.072900970859894,3.750855312996674,-2.569265234233542,5.34278339171771
1.6812499,7.643144035278425,-4.6803309698962305,4.068967460031785,3.263535971552637,-1.9866810426118409,4.965517314021977
1.6912499,7.684912954017688,-4.7264369252778,4.087983700257066,3.090106590432591,-1.5267643618798619,4.947589998948336
1.7012499,7.6850654219820775,-4.771569146835229,4.096492060385153,3.1076606730492156,-1.0454063402384142,4.784002491967093
1.7112499,7.676426073613935,-4.756002286399983,4.070525677391331,3.1294937548539554,-0.504451237027977,4.276395051368563
1.7212499,7.7137942632775305,-4.726843295669532,4.057958152444447,2.7144400667448556,0.026914678911789527,3.3520560800193704
1.7312499,7.735875682744995,-4.731622940778507,4.087209896319829,2.2380481687809315,0.5679881571076749,2.35193666832307
1.7412499,7.731150420418563,-4.7349983766254,4.103849632123214,2.1521881865128747,1.0580842278360987,1.4742102972146685
1.7512499,7.696960332998321,-4.740271105566986,4.046929461077082,2.0432718492113353,1.5613104347856885,0.6803414488222451
1.7612499,7.654215010491796,-4.766344987303326,3.9774923766268198,1.6506153900204246,1.8791423141421466,0.2604349351207854
1.7712499,7.657967063284434,-4.7443619168929505,3.9829036579174146,1.432082941731208,2.239091860662987,-0.11256294304239937
1.7812499,7.665305329240336,-4.660632892112978,3.98860794588233,1.2848571177498662,2.5643734506234916,-0.5857110310743486
1.7912499,7.674605188513276,-4.613687436647499,3.953261368885461,1.048242442643199,2.965617587720133,-0.9941348941125584
1.8012499,7.683109793864305,-4.6175432523233875,3.915325053263551,0.7199937924662452,3.6625332347815585,-1.2114896915315778
1.8112499,7.667755043848815,-4.595967318469214,3.8640318478430014,0.09720470359235169,4.4139823537293985,-0.9901725887235889
1.8212499,7.64166165263662,-4.57257571416316,3.81589937025391,-1.059967217670832,4.9450664148053365,-0.4943676970092813
1.8312499,7.62682716532913,-4.5751451525705695,3.8149138319535654,-2.9916229783460775,5.688772081908955,-0.1091883298244781
1.8412499,7.639911166461357,-4.552910706505216,3.8095101648892817,-5.7052663664090595,6.699441887619765,-0.134289538100468
1.8512499,7.677479419761867,-4.504213885846762,3.813034882805986,-8.847828307692199,7.452277995170499,-0.7219720373887913
1.8612499,7.707337900800969,-4.515095820766732,3.870097116890877,-12.101832279603578,8.229484400207152,-1.4793865774036024
1.8712499,7.717924579900612,-4.6036929798546495,3.975009428142235,-14.96890122255893,9.291122083815955,-2.175362060295343
1.8812499,7.76876533093803,-4.671839214582058,4.112817773019204,-16.79243907835915,10.202613051810344,-3.2337350276059507
1.8912499,7.800686201687799,-4.685957480827887,4.211886561761934,-17.642961495254944,11.061428310888598,-4.529895170794977
1.9012499,7.766688424148823,-4.727691432050176,4.230381316788624,-17.9935414790891,11.701072667654016,-5.992702661234725
1.9112499,7.719331632506411,-4.81531776568672,4.244179390710001,-17.63510492498665,11.712293506429015,-7.336403970191226
1.9212499,7.669817858579522,-4.931421567508542,4.3018401685709575,-16.536492982251353,11.51206244634826,-8.1164455676243
1.9312499,7.603263518862805,-5.023369112349522,4.3185000453329625,-15.08142422601452,11.488511978438762,-8.491533720545554
1.9412499,7.555034238950337,-5.065477156488776,4.261244566941901,-13.453563716052482,11.347547796666278,-8.408676630160773
1.9512499,7.579345122143312,-5.104689085988544,4.250178675412174,-11.951212849910473,11.296470161868228,-7.74313516763348
1.9612499,7.6345367142269005,-5.135164823339722,4.320404265886071,-10.656919966414318,11.51501784143432,-6.7130408040271865
1.9712499,7.619380472927577,-5.119698192609175,4.287474796403597,-9.7687678580925,11.972016668751943,-5.565707513456372
1.9812499,7.5491289319707295,-5.108500962619081,4.137742932267991,-9.918091164623759,12.398838241422075,-4.370659526619601
1.9912499,7.483474942168453,-5.125807623685631,4.052505836683016,-11.285964573390329,12.91284815894151,-3.2020973088448503
2.0012499,7.370165900873962,-5.14170291767008,3.960080147232416,-13.787717127429934,13.709184175264781,-2.0512853439403105
2.0112499,7.199711705291357,-5.178447672178017,3.782803493428241,-17.24364701566544,14.383118317519283,-0.863938049592041
2.0212499,7.038456788032322,-5.275259512147473,3.6666008209436374,-21.319330377663817,15.503010103470766,0.286518681194755
2.0312499,6.840288395263122,-5.409981960482919,3.6062856290267753,-25.590458329283358,17.596950194628906,1.4354627135183005
2.0412499,6.526515888101877,-5.574020523444828,3.4875097458589885,-29.831591538137296,20.23742533753328,2.850380662607542
2.0512499,6.121769303555686,-5.7188014409487575,3.2968713712353495,-34.25415216664405,23.70098626462872,4.798224163970556
2.0612499,5.706006761000697,-5.779661347290458,3.049710647732238,-38.638067701869176,28.037497457690705,7.155288421611024
2.0712499,5.30021071689384,-5.751529886666309,2.741745854757588,-43.28584786562271,33.4092996825721,9.585139117686435
2.0812499,4.766409358598865,-5.6708698144126135,2.4022582984370957,-49.3114344419773,40.30354311617854,12.383240210777773
2.0912499,4.010428365436026,-5.622483869384954,2.0304633244219437,-57.83357652825871,49.46997265940279,16.629510453929687
2.1012499,3.2067823759528724,-5.539476568799074,1.513217422661321,-68.59585878872086,60.314733255658076,22.230733637715122
2.1112499,2.4181965543508057,-5.393864784305053,0.8603681701377848,-82.24028119247696,72.57902601351297,29.37413941793317
2.1212499,1.5533102704771458,-5.246310442673535,0.31099738156794005,-97.98609601878186,86.62698372604,38.747382962582826
2.1312499,0.6961926073702303,-5.118510665770576,-0.03127913852666618,-114.37552604204036,102.45676344599363,50.304283888502404
2.1412499,-0.09904196384399602,-4.951596581991272,-0.35917007565609815,-132.76857898883463,119.89253446999848,63.14477111378754
2.1512499,-0.8963271809098128,-4.71620592850617,-0.7913671832449074,-151.11221859921406,138.6642585115509,75.94253916324482
2.1612499,-1.7502659865115122,-4.477605865791794,-1.3551812074409244,-166.1613057922019,158.9253050323244,88.92147163828997
2.1712499,-2.570033199829245,-4.245430806878729,-1.9294128209723367,-177.09238923754748,180.07829105449179,102.4891590673098
2.1812499,-3.186184253575917,-3.9633750141405053,-2.1843606765510897,-181.27964483514822,202.6860490467718,117.19227466732619
2.1912499,-3.796450625140145,-3.8466997724351,-1.9625286702031353,-176.72832719916178,227.48323181472134,134.66782539778904
2.2012499,-4.5664206028661845,-3.9938626717908923,-1.6832830694612457,-165.00296169958943,253.93502606687113,156.48138779958117
2.2112499,-5.196124350874584,-3.9236611615667902,-1.649517580194157,-149.97350090127384,282.6366776256049,181.04150504295808
2.2212499,-5.658333781215545,-3.5483843935830555,-1.6626553165885625,-133.21761395991444,312.73297398100493,206.30273164694012
2.2312499,-6.316735630099717,-3.400606521161531,-1.3366880940351187,-114.86047494259107,341.8584479835342,232.4708344390065
2.2412499,-7.1109799784301915,-3.5303235606332732,-0.3575504143495009,-97.79645157818348,370.21926929530576,260.14780690087053
2.2512499,-7.971506418410993,-3.636016519709866,0.6267674996854538,-84.82572206436318,397.41411171017796,287.869239569923
2.2612499,-8.99807263512444,-3.8427794844586134,1.2478155759656684,-78.2962155241247,421.2730002853393,314.69918197730004
2.2712499,-10.029090278285032,-4.020236253586615,2.5416829599751902,-82.07502597639575,439.9016505671627,341.8650437282557
2.2812499,-11.069153111090609,-3.6605106921973727,4.683759547146572,-100.10316793001367,449.03020837013884,365.058504560534
2.2912499,-11.902508108189911,-3.019342564127525,7.0038926372232755,-129.6234785594817,446.8962805664133,378.5576649893135
2.3012499,-11.95123715481263,-3.3671077925171957,9.74846946328319,-161.55008106176268,433.46456909119354,386.5177864052985
2.3112499,-10.809989447274805,-5.694224131644688,14.311944803810565,-179.94086626862946,407.59478064731945,395.967940424
2.3212499,-7.839196104167093,-9.258563370293977,21.047267441105614,-162.76208962100924,373.9388459837074,407.46155987613025
2.3312499,-2.504545769385246,-13.277292521442371,29.42977174332518,-100.24355324446773,334.139832309213,419.6100232553416
2.3412499,3.0190429513732817,-17.078764284077113,38.34999183148081,-0.08007538405448955,284.5589913354643,430.39402518450316
2.3512499,6.0523871717680615,-18.26579563357274,44.64190710566161,116.75746779139484,222.5615252705178,427.64368284300474
2.3612499,7.18046989492432,-17.419534519495674,48.212861455153835,215.78804552924413,140.3587705927872,404.3696955961481
2.3712499,7.377361902293078,-17.61221365804813,51.06911291648254,271.7205610191271,35.004162421832554,370.1416280291147
2.3812499,7.844697020453173,-18.41669813453836,52.417509585803565,285.38667634754836,-83.7954506776452,330.14094948362873
2.3912499,9.909874637461401,-18.039808673516553,52.225325808908444,258.371662173709,-208.35678005460255,288.32257229334743
2.4012499,11.900271203730057,-17.379658606950017,52.55924369046535,203.79408437706175,-333.7350616251643,248.04928949330073
2.4112499,11.048132907636015,-18.336263829072113,53.82596421761511,143.5374260015708,-450.44507096882256,203.49599239173273
2.4212499,7.503455747287955,-20.3255005159788,54.777856917648364,94.31359124388949,-503.0546973392963,143.49623748237906
2.4312499,2.62900103809332,-22.21272183363584,55.61126000028973,74.85926558778574,-499.9269603139391,63.14459006604311
2.4412499,-3.8565968432700237,-24.9575300006321,57.61133979079534,96.2299687011089,-499.3697971306579,-24.584085051804394
2.4512499,-12.130618209670859,-28.728109658146444,60.10795434112892,156.27869245700697,-500.4041643040498,-102.5829901928274
2.4612499,-20.898039917542132,-31.66236971908441,61.34608814236825,235.65904091229058,-499.87573654271387,-162.0711106292017
2.4712499,-29.071379173901715,-32.20541155491506,61.69232802957739,305.87759933728046,-500.0050777010898,-201.88601476774778
2.4812499,-37.47938754053033,-31.706236634166977,62.52464172601861,347.9348994463685,-500.01269610821356,-220.70992444741287
2.4912499,-47.092090942771094,-32.21123457927563,62.047112686926454,355.1348744120971,-500.01454795014496,-212.85277416888806
2.5012499,-56.683624145759396,-32.62318195897937,56.1064919747102,319.90695604488326,-499.93587026167444,-183.13329673582203
2.5112499,-61.048564141800156,-29.68505725992552,44.58332590916196,246.54324196577025,-500.0846536318487,-156.87252053268548
2.5212499,-58.1570567611953,-21.416459299068645,32.45969811423107,159.14275869032295,-500.1229426056696,-155.27835126021634
2.5312499,-54.83504873399129,-11.53088452295159,21.00668642853791,77.13251051060729,-499.0993085923981,-167.33049275785768
2.5412499,-51.846084123146206,-7.490191377456919,8.486026532448847,29.732212920173474,-502.5246418479556,-163.17742611192196
2.5512499,-46.06777345048116,-5.657684771146431,-3.060352772330628,20.941112727880384,-488.68841393347645,-121.81583347608134
2.5612499,-40.13406323581236,-4.171159092150103,-11.265306429489556,25.651559201425936,-424.9884519902459,-40.29897181861438
2.5712499,-34.01185008068313,-2.519446948291998,-15.218971302510559,21.456820655978543,-339.3096068368582,57.06216151491904
2.5812499,-28.67739822823445,5.544360601006741,-15.479202125244052,-31.385747996868798,-247.6979574147293,117.81148478680348
2.5912499,-26.55340301191568,11.466465410855452,-13.844675591836284,-107.8153687479973,-155.279200967112,131.99739988442815
2.6012499,-24.348055113503438,9.862210684150616,-11.66441216623137,-176.61446090537098,-73.33967651909231,132.8493494862794
2.6112499,-20.85028248243892,6.042024072934853,-10.2513515627342,-231.15854599805664,-11.523768236977098,139.50711718326696
2.6212499,-16.7660068053095,3.1499116125530238,-9.511100080925779,-256.78460388357496,23.010593285277544,145.07875305488398
2.6312499,-11.912244782733275,0.4415553826843584,-8.13074904537046,-249.30733328134082,37.58408966442382,143.66588598756675
2.6412499,-7.093453270160726,-2.5781854464852825,-5.089905888410301,-220.4363507766577,47.74102395484099,138.39529707682487
2.6512499,-3.293929316507733,-5.00285082450683,-1.1037334123598468,-183.3848591807318,62.4976997320452,132.69359187386814
2.6612499,-0.16082106933319412,-6.600161097733005,2.102073345835633,-146.7102192638565,82.23165168155911,125.72070203909533
2.6712499,3.440101655980633,-7.0597803119064215,4.094709452218387,-114.73907264506761,103.80477819568767,112.84066774787036
2.6812499,7.491784652157002,-6.424433291194193,5.55767819486521,-86.05624177114613,122.37625828914405,92.16836579968161
2.6912499,10.485047059648801,-6.403933891739695,6.604552738530693,-55.04201428540371,132.79963432060532,71.61276371563494
2.7012499,11.767439824001082,-6.962370285846463,7.444716556658011,-24.28326578700202,134.5434725210006,59.10798080139696
2.7112499,12.08635458491018,-6.862203297017839,8.461273137894304,1.4521261393127392,128.8913039267044,53.085085533905335
2.7212499,12.05377355800989,-6.6790380267769445,8.805593871753903,21.656622113761788,116.42314952516683,49.21854873284
2.7312499,11.8974417189899,-6.542421340230306,8.520762565896701,30.003859298537037,99.96559942133112,46.113239727056715
2.7412499,11.68812437504576,-5.93649814532624,8.502058644709528,20.446865388771997,83.52300177858689,42.349191167786444
2.7512499,11.243336998709077,-5.275476260473985,8.502304328761712,-4.652973445813445,68.87200172547462,36.37910621542284
2.7612499,10.764560314701692,-4.9760809788296685,8.322074185528614,-38.72499829439318,56.52472721947899,27.311555251305265
2.7712499,10.66707573730546,-4.932270951638965,8.363542970490885,-74.55299961686312,45.091170323516195,15.79884507785364
2.7812499,10.948049061319924,-5.07563978061499,8.845109019840736,-104.46552138747714,34.6606679848503,3.812058075892511
2.7912499,11.28115257311332,-5.865062195039939,9.122586524198418,-121.07306031929866,25.57833871265635,-4.890148180558298
2.8012499,11.39965415590813,-7.134169973577373,8.941066257744147,-123.6516296902602,16.516063848491758,-7.754409369661188
2.8112499,11.394022299175283,-8.04021496238669,8.537569988693992,-114.7488379712585,7.589059194928496,-6.136594342949084
2.8212499,11.263561246132875,-8.583049677091484,7.723526334189249,-97.03054421962229,-2.0777871963604153,-2.1072274627753664
2.8312499,10.901803755604242,-8.790941109298767,6.64263876383059,-78.37553571371383,-12.159447653346453,2.1364166989785667
2.8412499,10.358008332989765,-8.142732989020157,5.997559782816107,-64.36248020115285,-20.858060614325282,2.9907699477942336
2.8512499,9.723694089839727,-6.947416353634723,5.520383139218104,-55.73488527356329,-27.93161402770338,-1.4317145318626596
2.8612499,9.178439685504339,-5.898394317093565,4.991420623085023,-52.37890551217684,-34.11778936182255,-8.93826785264099
2.8712499,8.807688457343525,-5.154452184963418,4.594849493191385,-51.93451607915641,-38.51550643989442,-16.74467818348942
2.8812499,8.406729854876408,-4.5939999226571695,4.263727729969304,-53.16147698763082,-40.737569342401265,-22.907640270346516
2.8912499,7.918409595924183,-4.250430950153121,3.982191113868906,-54.91981133417856,-41.10702879564829,-26.327878091444052
2.9012499,7.440359230231538,-4.157950164171665,3.5982060160620444,-57.39974062821806,-39.57303430508036,-27.68204149683754
2.9112499,7.006596045411878,-4.05367485714826,3.0820859813686106,-63.70041604075481,-36.00468684151364,-28.750114921073653
2.9212499,6.70102740123184,-3.538970214794517,2.710447437147818,-74.33861817385974,-30.737302258647006,-31.69459613134879
2.9312499,6.638178942501402,-2.7680261324083317,2.5927196502681467,-86.26665335757279,-24.377544978222858,-37.80635056284092
2.9412499,6.594347826876513,-2.327644878166843,2.551790019066269,-95.75708990462648,-17.695786233737135,-45.440021701086124
2.9512499,6.357684714514278,-2.4623830091912393,2.3125860495656743,-99.04619466031977,-10.907619778025511,-52.2622496528642
2.9612499,6.085353912188773,-2.9076905544981697,2.023597412963295,-94.5695026396147,-4.032828103425717,-55.99926444543145
2.9712499,5.981705610105008,-3.2899133920490238,2.031694162931239,-82.22918637253147,3.2603165180976794,-55.29825975616636
2.9812499,6.078269562714519,-3.4617170336003102,2.1490278436062034,-67.45140340766388,10.246763338803287,-52.07180746276295
2.9912499,6.301909962590345,-3.306488036503688,2.054913963248745,-55.270969362378224,16.556258598527286,-48.34045801909325
3.0012499,6.526394985738188,-3.033767992605921,1.8365938750911188,-46.13594523426168,21.69582450016538,-45.095286156041986
3.0112499,6.6976284437806095,-2.909125874005229,1.7180073671176423,-40.62795016228691,25.326107584245158,-42.50972447369079
3.0212499,6.984776038445387,-2.6703097389383856,1.759663657995229,-38.26202110954983,28.525473842362757,-40.79228700898681
3.0312499,7.3145784591547995,-2.636667878207992,1.8832335637421709,-36.4598484696975,31.32040971146482,-38.9656232817198
3.0412499,7.553164385235359,-2.8268930456729335,2.084070380737595,-33.48346638794785,33.859202645812374,-35.78764051565737
3.0512499,7.795588692545597,-2.7727371436518684,2.2935143138681573,-30.551142768801736,36.04076862276907,-31.987982574467893
3.0612499,8.112513174886661,-2.6417557428380807,2.307144330445935,-29.42827387340476,37.85960634183088,-29.40308327800867
3.0712499,8.458141562583297,-2.6286006536238635,2.201716326138793,-30.970783638937966,38.53504913977787,-28.30045563302325
3.0812499,8.830020937058622,-2.7391413328438654,2.246432777429074,-35.61194354418928,38.45561908049296,-27.853494190655002
3.0912499,9.223252110436789,-2.8599367431144134,2.539943586271061,-42.54764872188314,38.20623438627533,-27.75612892549005
3.1012499,9.475287221633128,-2.91557409202807,2.9413321660987597,-49.48172691822716,37.38352745998636,-28.588279446585837
3.1112499,9.525766499360255,-3.0433386211513187,3.173074648058175,-54.21883551121772,35.5510793497929,-30.052594877840622
3.1212499,9.465012686508176,-3.3432847823553584,3.229638173033271,-54.96561204062922,32.215864951681944,-30.590039533666637
3.1312499,9.294276279030345,-3.656042960441718,3.32907425933373,-51.89357690352933,28.24868541387709,-29.52332563686047
3.1412499,9.010563128888567,-3.731793135496539,3.425987169815925,-45.7234426820821,24.130198764020896,-27.1008019226416
3.1512499,8.682387681782952,-3.7061196939513783,3.409569635961448,-36.976248230845215,19.405118847641212,-23.49433621069215
3.1612499,8.557982951609732,-3.7200862780626647,3.412769558507981,-28.273019237596625,15.1589517883429,-19.40843166108322
3.1712499,8.663806062582845,-3.625774967445735,3.5113523119169967,-21.279487080566145,11.720168355294934,-15.649261841492457
3.1812499,8.845002054978469,-3.362290884401895,3.5781808843600507,-17.04787907058019,8.802919306542583,-13.055117156779392
3.1912499,9.009809049197385,-3.046944939665616,3.650302194056157,-15.764559941655257,6.844432764920626,-12.033069972366997
3.2012499,9.168571479461747,-2.8865927912981055,3.6655833436340597,-16.808379515152474,5.802068074423714,-12.092446764506384
3.2112499,9.381996350559598,-2.905275918112376,3.605765008240476,-19.863375831099948,5.226995725269099,-12.59745181307598
3.2212499,9.551548012310217,-3.005170656300914,3.626230612117837,-24.045401576722085,5.524869401940317,-13.26586797851138
3.2312499,9.619451766697665,-3.112828300357583,3.6627128870681274,-27.661261969202503,6.534324701575808,-14.096687221576124
3.2412499,9.63243883829635,-3.2799796398461862,3.6325830905549226,-29.60466311787292,7.3554622899602835,-14.493458900279151
3.2512499,9.549030275237786,-3.5200723713308277,3.5834840954897933,-28.792722701979685,7.974635788274029,-13.985863879959691
3.2612499,9.329976964427944,-3.8397898844170872,3.4965088624967384,-24.190028207036704,8.589097282077997,-12.222475993587762
3.2712499,8.995277101487185,-4.309045144430172,3.449999458031884,-15.632832086421406,8.851516759716011,-8.823138282665864
3.2812499,8.655667038686849,-4.71936199783994,3.489989284182367,-4.942629770136097,8.85769248105507,-4.36500469470834
3.2912499,8.461471374409928,-4.811835404555504,3.4226107068798353,5.981243237166365,8.26579359614172,-0.5168778028045021
3.3012499,8.387355090000948,-4.700107196366561,3.2623991721281724,15.070207539284285,6.693848465178344,1.9722827290879859
3.3112499,8.343038187587194,-4.519005033716404,3.2647159344284353,21.171415021933747,4.7449022479147684,3.438817340774192
3.3212499,8.263494860172676,-4.234368732700832,3.345192879242243,23.90865212247535,2.8798174931185105,3.685689257215398
3.3312499,8.147333276051887,-3.936058184513874,3.320164573608994,23.24687741508239,1.1307616860267817,3.3862676289887896
3.3412499,8.061209200721908,-3.7632864859532287,3.3442201263410625,20.597526283345484,-0.32679131282940266,3.075607675266643
3.3512499,8.008095694270756,-3.6915475811986638,3.3911584980408813,17.159051406465164,-1.778848200242987,2.87214542352454
3.3612499,7.934793200822662,-3.6703905096876026,3.48820463429622,13.566887157671436,-3.1985679554167197,2.807277112647275
3.3712499,7.856309869919047,-3.6543890379185533,3.6229215793732577,9.620027620424468,-3.890971211515302,2.5714466907147813
3.3812499,7.894350781350069,-3.5927297101266027,3.647033291305967,5.341139562428493,-4.317433748076814,1.8566114451233655
3.3912499,8.019471611537721,-3.5225092592120135,3.7479916282854315,2.012933368601416,-4.335245351472009,0.8891233772070488
3.4012499,8.0623366750678,-3.5538015111380554,3.8480746425478336,-0.33551209258671094,-3.6871554217929714,-0.12728174433447167
3.4112499,8.008369740845357,-3.7025765468996212,3.869693775921203,-1.5469684448510335,-2.5688290676716456,-0.9665643369276853
3.4212499,7.940025985298873,-3.8317394221197763,3.8953703558413144,-1.4899427239652945,-0.8468853808884413,-1.6479298448244908
3.4312499,7.87975604946284,-3.9061953394622,3.9353343373175607,0.17233077951249834,0.5586274993167424,-2.5118840960049256
3.4412499,7.86948520642735,-3.9800984721688337,4.005382644700788,3.629486494026255,1.748002876971715,-3.262248925749479
3.4512499,7.911899590171881,-4.064682632541093,4.029866756772261,7.638391243364821,3.172869500105461,-3.423716027715899
3.4612499,7.953060661006137,-4.105322188624436,4.0489706451104235,11.009303010835266,4.7723432600090945,-2.96935481213332
3.4712499,7.937117160409374,-4.042601749374317,4.073936293715048,13.1072417470581,6.35597499476868,-2.604833411446552
3.4812499,7.916399511099939,-3.9455923675269724,4.021611142461718,13.422479242948857,7.594451185310772,-2.844939392628599
3.4912499,7.977326914264706,-3.893907546994486,3.993886820715029,12.47841335527309,8.912164028267872,-3.3603782656663577
3.5012499,8.103237959924677,-3.836414897586822,4.028252813230494,10.783973294596583,10.583231945436332,-3.8716572181305833
3.5112499,8.320129302322922,-3.7000469862938754,4.072268485666927,8.175121533685003,12.201682863860517,-4.735932326483092
3.5212499,8.549560206062962,-3.6125153035784003,4.069600934727883,5.175908128943192,13.670963720482236,-5.699520548657904
3.5312499,8.613033558284164,-3.733153210991117,4.0032039135611175,2.8015378267442865,14.58216726442585,-5.971656570413482
3.5412499,8.49643123923242,-4.014711074789698,3.8962679837694956,1.7087543444876256,14.076313377331775,-4.909417758330471
3.5512499,8.30657875053512,-4.265246116722506,3.8021963575765123,1.952783706161555,12.706745626435762,-2.6162574963578837
3.5612499,8.212158568618328,-4.363379438876553,3.821564653645703,3.0813361923537737,10.819343987492868,-0.04369118716885885
3.5712499,8.1992575810597,-4.38756149804901,3.90314713297552,4.383453581872228,8.307811391760586,2.5051961327809384
3.5812499,8.098308961249822,-4.381361188092346,3.9450452987574396,5.3440421423188225,5.854206631494453,4.883723648739579
3.5912499,8.011264359685327,-4.352959834731052,3.9550441003406918,5.625432582929621,3.3247692179845383,6.9032186591277505
3.6012499,8.02552501743365,-4.340972165507565,4.040608251183197,4.683888805283933,1.296432166721936,8.554343447090968
3.6112499,7.986450311879672,-4.401480323211341,4.053765842844975,2.8742051956050827,-0.00443985436597545,9.756961484986348
3.6212499,7.967960633172952,-4.48996964962109,4.00167063208263,0.7160306022116574,-1.2913492418697783,10.678593845902004
3.6312499,8.076433050959295,-4.4726369075227845,4.0457369054050485,-1.6055001034011271,-1.8819178859642185,10.913164089225026
3.6412499,8.159520142711516,-4.45341054779731,4.09465323871066,-3.976531533716502,-1.945321528734762,10.678039816993293
3.6512499,8.103679319951079,-4.537203284273547,4.17711806188738,-6.204294853629779,-1.8690924524874513,10.573546656754429
3.6612499,7.979263900182576,-4.640119929206934,4.227012132753848,-8.402675166565125,-1.3869386317298844,10.505773761356764
3.6712499,7.90937985869041,-4.722026897192943,4.123120094059461,-10.764516185436683,-0.6254875958174634,10.488578120238579
3.6812499,7.853020275050405,-4.822006982475366,4.038764376586211,-13.240356636636276,0.1385414962122923,10.445909119638022
3.6912499,7.785177760693433,-4.972804294621392,4.052912310313937,-15.19305476459691,1.2892065367931116,10.121884011006378
3.7012499,7.765178199005062,-5.1698362507927715,3.978273671788096,-16.71040537916656,3.049142884348244,9.799252229030996
3.7112499,7.7169043549152665,-5.377862303610691,3.7827891987278606,-18.97588570923201,5.506436110266931,9.239131054016243
3.7212499,7.545899028702909,-5.5599748984088695,3.630307149228798,-22.198449365269774,8.44259121836694,8.033792012960367
3.7312499,7.320996577716168,-5.745154855566776,3.500563041818685,-26.317237593090802,11.817803621771798,6.283448172464483
3.7412499,7.084357455527827,-5.9897674810333275,3.168136420770276,-31.909112905126907,16.03030983135087,3.8822269405515657
3.7512499,6.825648595218063,-6.247731360154645,2.7141743985120037,-39.589176805221584,21.122638578730623,0.9175686182740905
3.7612499,6.516702803618142,-6.4598254146104255,2.394047551439836,-48.82808555459659,27.47165545418326,-2.2712151511242054
3.7712499,6.087466448772253,-6.576397289704077,2.1545813705917154,-58.85311483434746,35.41587101885991,-5.532672191951323
3.7812499,5.545555550716214,-6.677923576633327,1.8132342272708004,-68.81319369949689,44.85834826219665,-7.959866586059036
3.7912499,4.8957774762365025,-6.780651419009718,1.3775269297428705,-77.95828260279654,55.829461751368726,-8.079529569000913
3.8012499,4.152559148040626,-6.774102795685408,0.9084824994962296,-86.34070494694046,68.25711518512391,-5.223721008906488
3.8112499,3.3177940648244464,-6.64106465858363,0.39921732378359204,-93.34403920610885,82.19497435308288,0.9284538686208594
3.8212499,2.256597224967043,-6.463747705348826,-0.16407812486678464,-99.12363667922675,97.48800063170374,10.803955297313655
3.8312499,0.9346030636835022,-6.239803299381361,-0.6813762573195645,-104.53902181722081,113.16334697213023,24.416625772064776
3.8412499,-0.39950229528661696,-5.807959341628458,-1.2111937242400121,-110.18563922733568,129.63184493951653,40.373907523076255
3.8512499,-1.8993163071287862,-5.24435861468371,-1.9140747750878433,-117.18515273842172,147.69606894663755,58.42600774725832
3.8612499,-3.459458446620378,-4.833276404871231,-2.4754981509896914,-124.7566048953076,165.26062240419196,77.26441810493495
3.8712499,-4.817034404127153,-4.3928026546571735,-2.6538231328859867,-132.1339730846172,184.01544381198633,96.35915015777421
3.8812499,-6.045025251285387,-3.8211544311326686,-2.603411066057579,-138.32489267117086,205.47502369186475,116.62395770578883
3.8912499,-7.000194458111665,-3.3317314481615075,-2.3884454306162444,-142.60439661819282,228.93821342941146,138.60970649366948
3.9012499,-7.62033897778827,-2.9397507829897154,-2.01972255762399,-145.43481734785593,254.40128635355876,162.2735320759085
3.9112499,-8.01268389537444,-2.5584251126717934,-1.5980634230689161,-146.15116830496493,281.19851798828034,187.1763650768064
3.9212499,-8.265918911972703,-2.3295398730767087,-1.1859417564429904,-143.8005611068969,308.3337904072233,213.4433972013307
3.9312499,-8.341349184981222,-2.2178134296403362,-0.5556225256363575,-139.38711171725964,334.9189396622942,240.84078816352206
3.9412499,-8.354735234274235,-2.0224930727911716,0.3541611874162817,-132.79558145462147,359.64863406934495,267.76177274881127
3.9512499,-8.651249161620715,-1.972791586499944,1.4582121558920713,-125.03480529523051,381.84334916224674,293.86683138303584
3.9612499,-9.210101934616418,-2.284833176734305,2.714400349507149,-118.50853293182257,401.07795046675244,319.6995266276004
3.9712499,-9.72115619512904,-2.484104497719535,3.935234080006725,-112.20486772135084,414.2315288713679,343.47506104328244
3.9812499,-10.097066478037254,-2.5714961840200767,5.391637220398066,-106.19154641848554,419.0645933173377,363.56886479676825
3.9912499,-10.491774390621716,-3.689787482316099,8.218097467579526,-101.69558387106868,415.84084007376964,383.2507833839995
4.0012499,-10.69799668569507,-5.2431865487707086,12.262354149982992,-96.9804877140201,407.82273639333874,402.16328117689216
4.0112499,-10.174341446706745,-5.91834849142244,16.362878296866292,-89.09354003339635,394.9075734067223,415.5500633215359
4.021249900000001,-7.78777211278992,-7.424504607199402,23.406265272696952,-67.85243856675996,373.4814444858791,425.39262644097806
4.031249900000001,-3.2242631965646584,-10.974611736725215,34.399296704746966,-15.968786771330409,351.082712195589,432.7442973536012
4.0412499,0.20927023461620897,-14.214151273843735,42.523051623501644,68.90252134377464,322.1157244193943,431.08950437409374
4.0512499,1.0131503020139083,-15.775751024797112,45.906689676012654,181.66654142006047,261.69561665683665,412.1384587047573
4.061249900000001,2.406798388962874,-16.338916895842047,46.94261089011435,290.9211890948949,175.402073491084,374.29497360233864
4.071249900000001,6.280953828142087,-17.079310298817976,48.2152002687383,363.1938071173842,77.47076582993243,335.9301237362792
4.0812499,10.913939339769298,-17.10290415367864,49.606416075273856,387.91845032538816,-25.53635630896346,310.29883265638165
4.0912499,14.468529353524241,-14.594535632084114,48.92266070108551,357.89818105347064,-135.2788079951929,293.4898021970758
4.1012499,16.8322947485874,-11.150438052626235,47.834636659157105,272.9307556857879,-248.12514240148607,276.8621959059201
4.111249900000001,16.272437706682506,-10.069681350968681,48.0859641459374,157.031983254973,-359.2471263861026,250.96790795992501
4.1212499000000005,12.348999579361841,-11.553424950134854,48.66250858466617,46.230170026289954,-459.9546022981745,206.10014056677468
4.1312499,8.128813937303816,-14.112645789415584,50.05844254724688,-38.1778302106281,-502.7936111572235,139.200856424784
4.1412499,2.990801770921481,-18.28440751400916,53.68822328045276,-72.89976441693608,-499.7894699837423,55.42861418512441
4.151249900000001,-5.302355470684367,-24.025791364641005,58.356434361876495,-38.88651545927049,-499.5353222214787,-35.38685414627563
4.1612499000000005,-15.599249027131806,-29.727171633792363,61.41717742919124,54.689931376184916,-500.3260812736242,-119.67690540505932
4.1712499,-25.456422780571298,-34.36049824880766,61.61664200637876,175.19518784778978,-499.89414361894467,-183.69430774762972
4.1812499,-33.35808770902638,-36.19889749137394,59.448706769451356,286.592104316465,-500.0018397122982,-222.89856500187392
4.191249900000001,-39.71462918588252,-34.1842796608511,56.56945932295683,356.3884279645592,-500.022837099583,-236.10634732506102
4.2012499000000005,-46.7973444021755,-32.01539585870783,53.769672048426635,377.41595521362126,-500.0018109723173,-220.79997700400395
4.2112499,-55.69347702451985,-30.490059382083682,45.84324966860018,359.8127470648214,-499.89793330838376,-185.8199403454103
4.2212499,-60.712200092860655,-24.04372458615215,32.225408250491995,294.29012844080677,-500.3105490390769,-155.32691577886388
4.231249900000001,-57.53343133757436,-12.829772227940056,20.93121246833498,191.29076897246443,-499.5642784345583,-150.90015385951182
4.241249900000001,-52.225876710386274,-5.644410915385788,12.239503553079068,95.07665204688918,-499.7594145619265,-161.43385053060237
4.2512499,-48.197483258635714,-6.589206445894568,1.884906226755732,38.33906799029665,-502.90203406039825,-147.42258910371186
4.2612499,-42.471363815952955,-7.765200506688239,-7.981873131027855,6.031772507384101,-464.8017321170813,-92.06659103944895
4.271249900000001,-34.160520644352346,-4.501547972047134,-12.139017069156715,-20.509897624467982,-380.67438202112277,-23.801380352363143
4.281249900000001,-26.166468249459,0.7729705918917823,-11.114159396256056,-47.271050129910506,-295.1262652684321,25.76819056363666
4.2912499,-21.377567738301142,5.391037631685308,-9.402340730687799,-85.65812079095721,-211.39404978139214,52.151403394154144
4.3012499,-18.564693827083424,6.775578991975015,-9.127162967659434,-132.37894039589065,-139.23524591033367,70.85539322340239
4.311249900000001,-15.052079192667431,6.200945262193583,-9.073086087815314,-176.23950490818092,-88.12643510682064,90.11331846487839
4.321249900000001,-10.892164894707273,5.559595158892318,-8.023459333053957,-206.22511195518413,-54.729938971183884,102.13823708568928
4.3312499,-7.058480209338875,4.097059628134495,-6.181180284779101,-218.46222586751577,-30.797775860545315,106.36916223380317
4.3412499,-3.853625278711632,1.6257057480120853,-3.888335735389887,-216.99149630185744,-8.005485853298941,110.06984608013447
4.351249900000001,-1.2845735694472777,-1.1657840841671703,-1.7696079411577872,-204.50398914367963,16.35107777992841,114.1990516423286
4.361249900000001,1.2770049421950078,-3.1284009251116425,-0.21931244495238697,-185.19672121641048,41.862343109003554,114.21488559139911
4.3712499000000005,4.3336519445912725,-3.8773018515968234,0.8787040962548286,-161.6216936194144,66.3109335727989,106.45316776634873
4.3812499,7.459527740686071,-4.071343519140308,1.9788573135803964,-132.33681450098072,85.74397478491608,92.39309609816813
4.3912499,10.116080191788425,-4.395938026374076,3.3194115027835718,-97.60487901491214,97.74341475207416,77.79716086852638
4.401249900000001,12.018065214741059,-4.855891462601908,4.7206144118667765,-61.098979919159525,102.25493825539503,67.6545859823425
4.4112499000000005,12.791098042367656,-5.014028395361813,5.872618330677979,-27.429386621261823,99.40434232383576,63.07814676338385
4.4212499,12.604158393849703,-5.00850085394185,6.251241762976218,-3.7100103896030965,90.46508151936617,62.3766317865681
4.4312499,12.070917195172582,-4.778172158001625,6.444925964539345,1.7281615787370563,78.45337881329972,62.861217903856094
4.441249900000001,11.46778657986753,-4.3153408264254525,6.989672990424245,-10.455608024977982,65.47423195581356,61.502204019364385
4.4512499000000005,10.806764674647493,-3.9314022571233687,7.340437456156399,-35.75243108399613,52.94148362263879,56.90489695493768
4.4612499,10.209037181676676,-3.4706231176389646,7.616466183628856,-69.79596960181487,42.06351049180339,49.15069536017107
4.4712499,9.85554393085071,-3.277054834294208,7.851674401201645,-103.66720110790367,31.86323529844489,39.00598740162286
4.481249900000001,9.838262500348707,-3.921617795959925,7.6854855287725075,-129.34139679175513,21.64070637055322,29.717757195494794
4.491249900000001,10.036433372425275,-4.9691662992114525,7.380777462164853,-140.99479375747316,12.632481988637416,24.176920044411556
4.5012499,10.049735569373816,-5.853230736957313,7.070179142558011,-136.16195891640064,4.568731373506055,21.857595938522078
4.5112499,9.841828958020583,-6.53352339016839,6.2772916014636095,-119.95281332450828,-2.4375866745834163,20.852707908060026
4.521249900000001,9.841937365657586,-6.868887740119095,5.165746334480083,-99.98530360569289,-8.337644024874127,19.244855161243116
4.531249900000001,9.93316457962534,-6.475658651583807,4.552556836164079,-84.4602060587337,-12.805668689992912,14.908811426792504
4.5412499,9.753416179946855,-5.432522636883154,4.440384962642819,-76.42953146558557,-15.468367245242778,6.013489606135349
4.5512499,9.382476843534766,-4.471289068541229,4.082125185155908,-75.72027272067191,-16.629143851140448,-6.8704993374457555
4.561249900000001,9.019684262553668,-3.8716240908542336,3.514633562030924,-81.80666989835416,-16.782526764054825,-20.330997210353967
4.571249900000001,8.742543354985,-3.502345499667768,3.1714947709610737,-90.74088183715767,-15.993812461683202,-31.234213261083475
4.5812499,8.482020155184966,-3.3052606853100395,3.0084569160802155,-97.33711970912316,-13.988094506589219,-37.98982902205192
4.5912499,8.324957190933624,-3.1757642097800556,3.030404729645683,-98.62730829556304,-10.61021054940606,-40.68385508059218
4.601249900000001,8.181226934550208,-3.132756091962345,3.2522117744355863,-92.14680145788523,-6.604570315085493,-39.947308886294344
4.611249900000001,7.896676584308744,-2.9135819499625004,3.513897281064375,-79.63835356321775,-2.0847050277202275,-36.64526457346152
4.6212499000000005,7.562754898920924,-2.4906021069922026,3.592056255929599,-63.70520248871845,2.7237864339640807,-31.830938872312405
4.6312499,7.340028659849505,-2.227424688332327,3.3413602611583206,-46.705860241512255,6.636676540159728,-26.36828805367643
4.6412499,7.2678334705333665,-2.08736260559163,3.0541626328065212,-31.945006290973886,9.854923754478936,-21.3221933181458
4.651249900000001,7.257829296481925,-1.9880622624765394,3.0012410974499977,-19.791366849236795,12.135211430359021,-17.37412561103584
4.6612499000000005,7.357141565347875,-1.8482826844569473,3.032825537086258,-10.87889509057479,13.757369076240115,-14.534138864486499
4.6712499,7.418804531905284,-1.5112066695620228,2.853118411557472,-6.852202214131091,15.729080392881354,-13.249712717729786
4.6812499,7.372205257345885,-1.2059558294336934,2.5490194647425874,-7.00740218209474,17.376825106537936,-13.663948115074064
4.691249900000001,7.4196745027038,-1.2445445076851565,2.3216398728229293,-9.444377561733319,18.354246805374604,-14.235593220480496
4.7012499000000005,7.659905411841253,-1.5052194027669812,2.0558947921304913,-12.897264508036658,18.962977479436187,-13.479704165124037
4.7112499,8.123829204688365,-1.7633234350034344,1.8370115406783787,-18.34950229952153,19.27870157553847,-11.385057775504198
4.7212499,8.581777860585266,-2.0505411879875517,2.000183876351407,-24.904810172214415,19.302963435140363,-8.713406019816745
4.731249900000001,8.807669017165805,-2.417687932668767,2.333656019663918,-30.328471123122778,19.342109978413607,-6.349362797087149
4.741249900000001,8.97159539139786,-2.803425412964519,2.3793903810506816,-34.24540557408389,19.39494734636751,-5.261625618233264
4.7512499,9.22791267520511,-3.1723525629158926,2.261399693388112,-36.46539669844257,18.939912534442854,-5.2191655286096745
4.7612499,9.587501059735816,-3.5030955656431093,2.4163646779237666,-37.414766210213166,18.241692036344055,-5.234198032695236
4.771249900000001,9.86015766527948,-3.6990007907158255,2.7258395120541534,-37.37047902044209,17.774552709784643,-4.978441040596277
4.781249900000001,9.909130038591814,-3.7712811679914853,2.829500462614122,-37.04284677914477,17.272754807195234,-4.357798186954138
4.7912499,9.878949843906986,-3.943905749546627,2.7839999364765182,-36.21005522072852,16.201783430303767,-2.9640731264216904
4.8012499,9.799810360912721,-4.206661999040565,2.751860938805405,-34.17149860215958,14.639889862538816,-0.7319768291447959
4.811249900000001,9.621428757500505,-4.293171978119413,2.733346373565722,-32.68164105708655,13.049990340816487,0.9992840703799984
4.821249900000001,9.443482158668006,-4.300623630966526,2.8283343414388566,-31.92092411005729,11.572165122512336,1.7228490383430217
4.8312499,9.374609509278423,-4.292896530952266,3.0929096575979917,-30.56498081789827,10.308828710133426,1.483381489721231
4.8412499,9.348896261840702,-4.1246950229098065,3.364489900287082,-28.564893461870966,9.055950895238688,0.10201397491167279
4.851249900000001,9.140940461711867,-3.9784629472896316,3.4940217265512423,-26.01521549771385,7.675824214942473,-1.4717054030828973
4.861249900000001,8.721984960529612,-3.990510151714055,3.45275903467433,-23.502386327053433,6.2088761758138835,-2.432377123761759
4.8712499000000005,8.287929555560066,-3.964616918172964,3.3739857436579195,-21.97243348326607,4.465870051809596,-3.1598106593935054
4.8812499,7.983233845795029,-3.840954262616269,3.3336060425401453,-21.327126317022294,2.759287672887797,-4.627123538287224
4.8912499,7.826520585043676,-3.694141440614093,3.2837628932651404,-21.495529796717456,1.2789134552636194,-7.1285838366762935
4.901249900000001,7.844009326097106,-3.519269320009801,3.323531804094251,-21.347411118327127,0.21993621684906792,-10.139316046872477
4.9112499000000005,7.986173760913934,-3.3556656094134603,3.4765356427490453,-19.80470427934781,-0.4150295327966369,-13.006041105394116
4.9212499,8.091178652336438,-3.2328031776070683,3.5097100189430903,-17.458496475398935,-0.5531301639842576,-15.057389010460017
4.9312499,8.131413650759965,-3.1854428528825123,3.3985965891899617,-14.690569266803749,-0.3016535083132534,-15.74916699279597
4.941249900000001,8.104319752695314,-3.1575569001628208,3.2943673124414885,-11.7872636764629,0.19125229588428627,-15.260624691439878
4.9512499000000005,8.057062339199046,-3.091159105923846,3.181580172552892,-9.888335964566108,0.9242954058573208,-14.445962566219443
4.9612499,8.059485846024643,-3.0188571353937195,3.016530148309403,-8.911493174558608,1.662098214348416,-13.604537872983405
4.9712499,8.139216629857692,-3.0415551401919996,2.9485910681530934,-8.010607550783098,2.5746498632126396,-12.334635123607374
4.981249900000001,8.300662192499383,-3.152608570490308,3.071125988955431,-6.869636088102296,3.700938216705949,-10.732363216066851
4.991249900000001,8.417456826024855,-3.1754427585578386,3.1925675767244632,-5.621021196891565,4.962398153349865,-9.287835808245474
5.0012499,8.509338794094559,-3.1693793938996824,3.3047077303931727,-4.699311237624194,6.729371818485925,-8.065548636897589
5.0112499,8.639205679715117,-3.2896743753930173,3.450426560871908,-3.6941102156849963,8.263011730561795,-6.945076275888743
5.021249900000001,8.606969030571149,-3.4484969400782584,3.553267349540843,-2.157687870569637,9.002919844660727,-5.4934344321167865
5.031249900000001,8.459320035479378,-3.577378111537435,3.5946223823072234,-0.13066163744051998,9.51126924510001,-4.000104802625076
5.0412499,8.375068633997792,-3.6568171133089105,3.524733231818455,1.826686078650135,9.58631322371838,-2.777029455249194
5.0512499,8.275348224129395,-3.710111975236304,3.4283534422963005,3.7354438982945273,8.662816292424575,-1.7841406802786501
5.061249900000001,8.1695760861788,-3.845622689317433,3.4078400383710172,5.422484448284939,7.346909116174814,-1.1174002834713586
5.071249900000001,8.191305729315483,-3.9664414332785984,3.5111726474767915,6.302586066789463,6.341017621000899,-0.4443792764011152
5.0812499,8.27088601533809,-4.010142423882034,3.6512755675207487,7.056489974931827,5.519896582744413,0.3478637441131231
5.0912499,8.279527105879376,-4.095455544780517,3.7217137285454833,7.767937612321947,4.773179433241664,1.3502471037670887
5.101249900000001,8.209781133584444,-4.16708067015307,3.733570631997833,8.080056471557043,4.320787254574596,2.3506365869926586
5.111249900000001,8.155411480972738,-4.187338849022702,3.703502354882218,8.4662379233972,3.646424392225333,3.3632166137941595
5.1212499000000005,8.181648677278984,-4.160975689152418,3.726096584496253,8.600933306075751,3.011197925163949,4.178022956481069
5.1312499,8.172859316770703,-4.058869538427239,3.759679438438756,8.13603005862642,2.621037431227215,4.451353527532285
5.1412499,8.167362781338175,-3.9445791562929555,3.711924593116684,7.087405639427368,2.0248626291896703,4.344223339147485
5.151249900000001,8.245273793381918,-3.922050361661881,3.7335395406046787,5.4598600138004505,1.516327720346201,4.375867752551713
5.1612499000000005,8.32537141520465,-3.9465502276395648,3.819428575219963,3.8794961770519953,1.5309815653013736,4.57144037745944
5.1712499,8.340565592207541,-3.9808075401523118,3.733269796600545,2.4686808297111007,1.4179890186132853,4.882607417166798
5.1812499,8.293470145494432,-4.018920107565187,3.591481460717155,0.4926809164401394,0.9744678750225902,5.305304651168181
5.191249900000001,8.187624982175722,-4.051634012804206,3.50152023672405,-2.426566172286437,0.7053096306543076,5.555208079372167
5.2012499000000005,8.073995139645136,-4.129335739430208,3.351864187379019,-6.1404594870075915,0.3200326198337199,5.629871857181639
5.2112499,8.002856713376891,-4.359668261851437,3.2186906406122846,-10.308324576960695,-0.15623744682032592,6.050235772791958
5.2212499,8.008696547974369,-4.657841390707784,3.235781777417129,-14.480601436866165,-0.15621472814692042,6.729275279808239
5.231249900000001,8.091834738841122,-4.809208317475056,3.359104793019213,-18.723782318025638,0.19454507286196157,7.184664100151736
5.241249900000001,8.107402244104719,-4.918057423719258,3.514112556970631,-22.503175079157035,0.902181375752934,7.080763206820063
5.2512499,7.9970277739518725,-5.1383333887021,3.652770903068129,-25.168415948683123,2.221555546138537,6.727925250147699
5.2612499,7.843433543253197,-5.381539538484905,3.6857305303506007,-26.948447777085764,3.7849264145369794,6.205605519528933
5.271249900000001,7.704868708301243,-5.618753496918003,3.5477819344581607,-28.391299849926035,5.513590589711496,5.55038566629128
5.281249900000001,7.548678662200199,-5.838313194972545,3.4419529111173293,-30.042421501356873,7.882537368271566,4.975660558730627
5.2912499,7.349878039361338,-5.972534995728187,3.4351151829432345,-31.370546190592396,10.882413811527195,4.63119171353137
5.3012499,7.131410304597415,-6.028943962514899,3.286120074358039,-32.55200552737393,14.213454805513164,4.279642368386212
5.311249900000001,6.907441302512315,-6.143031823067112,3.108372988399696,-34.171278517615484,17.85102819531207,4.439817897412902
5.321249900000001,6.657865856535555,-6.316299059659886,3.0448241111882917,-36.48486217055238,22.428627978760176,5.46319970794464
5.3312499,6.384596540569735,-6.331629912149885,2.9540706917269763,-39.92159992944471,27.803003213251014,6.396263527522033
5.3412499,6.050876191284605,-6.226643989795652,2.748970087117577,-44.43917637282555,33.28098438626928,7.191250983517992
5.351249900000001,5.572533299218744,-6.2418956501111005,2.528451092348946,-50.12106124868619,39.290532783098705,8.826273202468766
5.361249900000001,5.063041882014624,-6.265737687219888,2.361882302431388,-56.986604846974366,46.864243713241166,11.528840183595724
5.3712499000000005,4.553931894966636,-6.12997986882595,2.12235227285538,-64.38122963236843,55.28335624202145,15.06733717630927
5.3812499,3.891549591705498,-5.970670005547842,1.793768546792427,-71.79705816174331,64.14907715457282,19.87587794011013
5.3912499,3.1268031748011915,-5.859010040389939,1.4827623507887326,-79.36074214330218,74.29096128091477,26.57585199219505
5.401249900000001,2.355568575114224,-5.616980925484938,1.1438336489792196,-86.81080692221778,85.46125468166485,35.17576276092616
5.4112499000000005,1.5359661699062763,-5.23113739903748,0.8340178851184796,-93.39278638965587,97.54782539228803,45.86012127017372
5.4212499,0.6976459919615299,-4.886746416047429,0.6114838454654473,-98.59863234267195,110.55439835482882,59.00786865183228
5.4312499,-0.09459899931439258,-4.569622475217619,0.31101833443021204,-102.91775072435543,124.1976986056103,74.34309309512942
5.441249900000001,-1.0470147317921392,-4.157923808425343,-0.1367257958591682,-106.4817304276914,137.22316042451357,90.92720212016967
5.4512499000000005,-2.2355716823252214,-3.7373568190442366,-0.6303811499160625,-108.41116467030425,148.92273510983304,108.36265547568004
5.4612499,-3.403508910901632,-3.4094739276820154,-1.1541845248458835,-109.62726485922924,160.53362732492482,126.92750650541582
5.4712499,-4.422642582981392,-3.044174656348146,-1.6508293228301394,-112.06810299139654,173.71323110099829,146.10274636440522
5.481249900000001,-5.204629716347472,-2.676619610144952,-1.9169331131742409,-115.33520184478986,189.05348675337328,165.1166503084019
5.491249900000001,-5.498350013588275,-2.266185105404417,-1.8484258785926595,-119.01117684073942,207.47610961977207,184.74392714144471
5.5012499,-5.292927432706914,-1.800997972671869,-1.3988295419173702,-123.10078094699111,230.18912036443848,205.56640829269242
5.5112499,-4.81607849441541,-1.5536563816045958,-0.6990801131073726,-126.76758010391592,257.77080748360527,227.7304082227842
5.521249900000001,-4.403602736792485,-1.550685967920219,0.19346444892916095,-127.15867647689086,287.87367340600116,251.8213597146055
5.531249900000001,-4.460578382784351,-1.6289840367354518,1.2119626729436492,-122.33455728827286,317.2806429131898,278.34157901468643
5.5412499,-4.799932368241773,-1.8295232853250822,2.3457837094586385,-113.26074092412816,345.48591340764426,306.04521072147827
5.5512499,-5.066812611625866,-2.0704208575872936,3.5520762124502108,-100.02686966546106,370.54318338816546,331.9302552705362
5.561249900000001,-5.40355325363783,-2.175090651760569,4.537975620850978,-84.04373520063295,388.41029005891596,354.1540948084678
5.571249900000001,-5.790213789747297,-2.1625314294307603,5.697135752300981,-69.1403530458487,398.1377991652136,372.6965189185824
5.5812499,-5.796502801816905,-2.17666116935448,8.17120179172438,-59.533658275555545,402.12156497753716,387.621532421196
5.5912499,-5.076961892017508,-2.5779759607184416,12.229416412510377,-54.39484456444312,401.6508941969288,399.6659254342913
5.601249900000001,-3.541838304840561,-4.031783314881185,18.030192638670243,-45.96911495368558,395.70389699461447,410.2145808013069
5.611249900000001,-1.4709078308909733,-7.2652882847335025,26.325352946049417,-20.11877999170947,381.80518517788465,417.7202394648125
5.6212499000000005,0.39167195970667157,-11.563808120825318,34.84495584858154,38.60343973110625,356.1961675094413,417.599006335411
5.6312499,1.2131164532742704,-15.175004155976938,39.71059885899169,131.33248303989313,307.7085914623137,400.0474044834288
5.6412499,1.718345826265488,-18.603372203663792,41.79044078572976,244.09517426695163,226.61212113409397,364.86335477790186
5.651249900000001,4.61026868972379,-22.22516298877514,43.790327971527404,344.5655637232823,127.81120787582475,328.65657741460393
5.6612499000000005,9.35160559731363,-23.173649865839675,45.06000916277289,395.6900919982512,24.53762696171686,303.28656613110593
5.6712499,13.453109548214162,-19.22590238765961,45.53554748167152,382.0833652063965,-88.44864252043409,281.60623015434436
5.6812499,15.784764792298548,-12.972843104169543,46.05739216386838,304.7347681964296,-205.04839238343317,250.06306367949523
5.691249900000001,15.32034508251846,-9.432498989614219,46.05110540258197,185.15080345131042,-311.99758421121896,204.2168995321076
5.7012499000000005,13.619976069630054,-10.09639060903812,45.95816839701719,64.47443221416333,-412.2825799063508,145.58384114921938
5.7112499,11.649658607078734,-13.25187254449869,47.072629151308156,-17.580394702943693,-487.305020355327,78.92956612718396
5.7212499,8.202274267528495,-17.97950220357999,48.44675425892199,-43.43152291840048,-503.0043308544767,11.059660593065958
5.731249900000001,3.3692987714940403,-23.182770984448286,49.72659469075307,-11.963708069930082,-498.9025132920857,-56.82388202585432
5.741249900000001,-3.352195236431949,-27.73256123093905,51.87621587674351,75.3457422528207,-500.1648647601486,-121.39413892048576
5.7512499,-12.322660876349953,-32.194115043824354,54.39275763288131,198.73308531850313,-500.097234876737,-167.3027094369611
5.7612499,-21.37499801137803,-35.510380149777454,55.600072999217375,315.63189462373043,-499.9108803859351,-185.984406657831
5.771249900000001,-30.339291428040312,-35.12678178793351,54.1327865074807,389.8041674292657,-500.04583378492043,-183.0674527932942
5.781249900000001,-40.570726230003025,-32.350560896927355,50.106956774193954,405.79294769741534,-500.0006967845057,-156.42806713436536
5.7912499,-49.53672222351856,-28.326439171493956,42.49832317564141,365.6400169724769,-499.8813709590286,-108.13658206877275
5.8012499,-53.97579827053416,-20.859603280470456,31.927006677039497,278.70760037834594,-500.3844588922712,-59.5212323222689
5.811249900000001,-53.76810977951612,-12.334759781893272,22.66124967939927,171.43231865524305,-499.3865347766133,-30.332513593947787
5.821249900000001,-52.70212228952556,-6.507427763827302,12.832978764238375,80.82080926828439,-499.9842380400212,-17.13001601660131
5.8312499,-48.9955351139213,-3.738175396572879,1.2456826389534796,12.741054354590691,-502.81131601065584,-0.40869691299461236
5.8412499,-41.224625419912854,-4.2349603785079495,-7.731727462570222,-43.58619188645843,-454.2540906842143,39.214137579206
5.851249900000001,-32.37880316325547,-4.343057988986141,-12.266251227874012,-90.7888443757369,-352.1550547974073,94.651741867844
5.861249900000001,-23.88201427955241,1.5711225732355225,-14.230701726760007,-153.3557409691919,-250.93992270235915,125.08985336548227
5.8712499000000005,-18.495882581675442,8.806752253563175,-13.904600704933337,-228.71830167746583,-156.79917721106327,113.3206955501191
5.8812499,-16.446649167335917,10.31014192093372,-11.169076250343213,-278.53138907816015,-73.72290803079245,90.46089517292855
5.8912499,-14.455255054487495,5.451273432268154,-8.979230520266004,-284.2115307040152,-7.680738946417626,91.67237821823805
5.901249900000001,-10.729115760910984,0.3866324194243123,-7.525334368582076,-261.69602165233607,37.93007354346465,114.71468158653967
5.9112499000000005,-6.326173288078904,-0.5751073066815505,-4.900317466791376,-217.63331459597134,64.58282400502168,131.3714131977772
5.9212499,-2.645641250907396,0.11392370351635683,-1.4468268041833077,-161.36027670212485,81.92237295911042,128.64908396342824
5.9312499,-0.14047363080158398,-0.4631658289346108,2.044617664408886,-114.53008433559536,97.42494289094307,113.66166346687379
5.941249900000001,1.7262614299435926,-2.7421945988813974,5.00299301519188,-79.2304822113516,111.20741730305356,95.8111453840811
5.9512499000000005,4.211988072149744,-4.867750711417997,6.742069572961212,-52.04789832665853,123.38826258481458,77.58428825731123
5.9612499,7.31410579045168,-5.430399227036963,7.460695855498783,-35.45577485709634,133.36772831221322,55.775606582849505
5.9712499,9.853171199867694,-5.311142169306317,8.290772509530651,-27.9481486478856,138.3976946282806,30.855158401719216
5.981249900000001,11.050192437708697,-5.627290490500267,9.426927967533297,-22.394855209496072,138.31867080797178,6.815068849057804
5.991249900000001,10.901490825894268,-6.5615330858261895,10.023355413132064,-16.97295048656252,133.40873390625617,-11.434318009079952
6.0012499,10.180143941820448,-7.475071128221594,10.088548077821807,-15.183712703774626,124.91709051814469,-23.058563651155005
6.0112499,9.783977940254925,-7.748186537586789,9.88637444569278,-17.924948163631502,114.47715460437342,-31.05359191447193
6.021249900000001,10.142130057668307,-7.570648322593258,9.535298390648242,-25.722848853903535,102.38153934129339,-37.61501968038581
6.031249900000001,10.615521536160522,-7.391791467357197,9.428220529742616,-36.73666059898434,89.81022188992135,-43.22337832703703
6.0412499,10.708076316229349,-7.180147935182803,9.590969032991232,-47.18410589559796,78.03313262573366,-48.312883346572306
6.0512499,10.749093024369708,-6.773844668425904,9.564152233499545,-56.63859187064656,67.29958786611499,-54.34599135586738
6.061249900000001,10.730744512575786,-6.472338354162813,9.526289106514726,-63.290446240855246,56.43086868764452,-60.55063677018312
6.071249900000001,10.472980292205351,-6.548998786683618,9.55103346372466,-63.996846459235655,45.72797548774762,-64.43261716513788
6.0812499,10.043035546296654,-6.687612613382022,8.995623233639515,-62.3960401489028,35.72781286617629,-65.22932097570157
6.0912499,9.657068300968131,-6.374271438673108,8.132508648305377,-62.558880576058385,25.980485546138365,-64.2262999475579
6.101249900000001,9.305342521950045,-5.63415877389923,7.550014057542326,-64.26149972961835,15.868585204598016,-63.1029512030262
6.111249900000001,8.932954228813891,-4.913487332064035,7.093282966354157,-67.4509779038867,6.232151776380887,-62.25974150177932
6.1212499000000005,8.622460815474964,-4.435764678303777,6.753471083314254,-70.3127203282948,-2.236796440579384,-60.859234733306806
6.1312499,8.307938457707007,-4.20130223103138,6.6487763353587646,-70.30130571436071,-10.012123638464853,-57.71408607671037
6.141249900000001,7.973801297412128,-4.086652189728506,6.6372820073052665,-67.11273541807877,-16.86783609946657,-52.78376010222984
6.151249900000001,7.604346712690353,-3.923123724742483,6.375095275286673,-63.62089203740797,-22.462847248653787,-47.10242675783417
6.1612499000000005,7.220098314801972,-3.6972093588309716,5.777381828794547,-61.44242958830475,-27.491762882180765,-41.63920543081793
6.1712499,7.045319311429856,-3.4100869652212396,5.046502573106024,-61.43563711280474,-32.38393814062372,-37.261043188309166
6.1812499,7.130007797559913,-2.9407359727082785,4.627518173108799,-64.11959480306015,-36.52893418875197,-34.39649968616735
6.191249900000001,7.213390544802397,-2.4033268520591444,4.465636027459905,-67.88209853646775,-38.94352047294576,-33.152256250670355
6.2012499000000005,7.192820400355521,-2.007674465552769,4.277208530877438,-71.2994198174707,-39.21815981018338,-32.68001144281554
6.2112499,7.048820677852317,-1.8035234447917845,4.091714546675035,-72.54736258086663,-37.950935662286014,-32.6364568643744
6.2212499,6.871008824379027,-1.7709174199563786,3.847146675598533,-69.94827862822181,-35.967331141000955,-32.35395685799986
6.231249900000001,6.8016217800248855,-1.7718069238668361,3.5995126601440157,-63.075061551382575,-33.91230409765187,-31.371961568378236
6.241249900000001,6.678722715098425,-1.8626840246356424,3.327262808837434,-52.87724902513889,-32.79464106847159,-29.67445715733654
6.2512499,6.459991179343767,-2.11353838135468,3.012624421687738,-42.68396616091496,-32.475680284819155,-26.84069755632457
6.2612499,6.254449449558326,-2.1891978492989956,2.7779370388312343,-35.634279398386745,-31.421228963563795,-24.08685268129428
6.271249900000001,6.126665803300724,-2.0521429703149248,2.5114899496799374,-32.45044971050738,-30.356262864892752,-22.675416091530337
6.281249900000001,6.197975599968617,-1.9500915589870276,2.3755586692571464,-32.438449111073,-29.18087568970123,-22.41468333405053
6.2912499,6.3910642702231,-1.9126686501291814,2.3212798924859652,-34.607210152659874,-27.16585201626016,-23.08873213353745
6.3012499,6.517848212149618,-1.9873196847839352,2.197435919630196,-36.826076010353894,-24.926691983983854,-23.801037019671746
6.311249900000001,6.546083716370222,-2.200997013310576,2.1183463212630027,-37.567764969313636,-22.564926415777997,-23.621341795445293
6.321249900000001,6.594112405730204,-2.6147827650040507,2.120117459290675,-35.74523283888801,-20.14280715434085,-21.92825024813529
6.3312499,6.724182596590045,-3.154757546496772,2.0858582987310577,-31.73467831206437,-17.911660719493216,-18.14292591333815
6.3412499,6.857055959195335,-3.574994082308766,2.1846174517834607,-27.36110088526325,-15.607728295134816,-13.113539728057653
6.351249900000001,7.100361984026077,-3.797273223488111,2.498761092106447,-22.743675844325676,-12.893375864319676,-8.80279481339747
6.361249900000001,7.64585850497574,-3.850583694041388,2.6974123132864825,-18.726078150546577,-10.540514150481942,-6.778775635783836
6.3712499000000005,8.344899261593445,-3.822095530494875,2.7368412149993824,-16.113535163465436,-8.657703991941718,-6.919174953060067
6.3812499,8.871421254586993,-3.806558674071548,2.8340752575940686,-14.681701768126615,-7.0952172086955265,-8.109402095988239
6.391249900000001,9.146938884383019,-3.7676763150378796,2.949599405336118,-14.162880815322616,-5.659149631836109,-10.023267521158187
6.401249900000001,9.267227158133544,-3.904470536418171,3.054281922400606,-13.65867505896334,-4.440737845748803,-11.491429674594231
6.4112499000000005,9.272663769338438,-4.244626762540021,3.1654473881863057,-11.81178969198746,-3.570666211614533,-11.366146152024763
6.4212499,9.194101226846227,-4.434992555882645,3.1834396279014276,-8.409195540387833,-3.0348485290806058,-10.351115484389318
6.4312499,9.108590527343555,-4.344718253276471,3.1328623391475356,-3.8500976741763733,-3.590493663970377,-9.543266861956567
6.441249900000001,8.968676561849367,-4.232367015632884,3.047797299597997,0.45838051312590417,-5.490605323892592,-8.926499483871993
6.4512499000000005,8.776807327072675,-4.196781119081047,2.9916143920272,3.312844421762574,-7.805290649513146,-8.69216707012634
6.4612499,8.65210439426847,-4.027339992670524,2.9703670628010124,3.9220578236268993,-9.879214258897457,-9.281983307628257
6.4712499,8.544979208484202,-3.7205005884364177,2.923009364380722,2.1994988657276116,-11.986037879064064,-10.792970219184623
6.481249900000001,8.411349240021666,-3.458169574612074,2.9926938938943,-1.4812635189871524,-13.801821745513513,-12.804599218194417
6.491249900000001,8.350051396256742,-3.308203360457318,3.129771586710341,-6.2325210116921195,-14.170573450244206,-14.800267245876157
6.5012499,8.44100242313695,-3.169119271852919,3.12294424905757,-11.228245265661899,-13.66343825074405,-16.618949167490374
6.5112499,8.657804251436616,-3.073540879596149,3.099722131546697,-15.524832893996196,-12.846585868775575,-17.888095670206933
6.521249900000001,8.869111337755516,-3.088536757684809,3.3024268110911934,-18.05895743210626,-11.17910765734995,-18.40588844883639
6.531249900000001,8.903844048635133,-3.1516212880921293,3.5482461694092002,-17.95516058368234,-8.922109888101428,-18.316909423954698
6.5412499,8.811148458648482,-3.240675575745582,3.547364257708114,-15.466961568543791,-6.86589682046717,-17.906185903917958
6.5512499,8.73410463957649,-3.3442025260858816,3.4526031033352838,-11.200112673935827,-5.534482612999719,-17.14875470734148
6.561249900000001,8.59749753125235,-3.4618011658439127,3.4360344568285615,-5.336014506641601,-4.790598598503945,-15.732752018223703
6.571249900000001,8.416608720264014,-3.5326956945514656,3.468418208060573,0.9450202406464946,-4.2574995516282925,-13.625307239176554
6.5812499,8.346934299257406,-3.5146932985326096,3.4487394576922656,5.974176588805402,-3.680318647830434,-11.326166269399305
6.5912499,8.375651073547324,-3.52409325054984,3.3944272504109936,9.571917716596937,-3.3762768783712467,-8.895820671061484
6.601249900000001,8.44643498171671,-3.5464982475662388,3.5145954506229313,12.379621626419862,-3.0431034086560174,-6.565560269803085
6.611249900000001,8.558135256796337,-3.484301382887731,3.677185066474837,14.682198334532385,-2.400779225729963,-4.937515792604013
6.6212499000000005,8.677182964462585,-3.448574794401085,3.6531210506723686,16.826389310310613,-2.298328817971913,-3.6480699066644506
6.6312499,8.710380249419257,-3.5133500286310393,3.5446397375897165,18.585434986789842,-2.7432270998673496,-2.098760550285888
6.641249900000001,8.565914332885589,-3.561864442382879,3.4861057476188155,19.2738292648322,-3.5025623453785992,-0.09340185048651206
6.651249900000001,8.31311674665387,-3.5198471329122247,3.351828924585612,18.235726962647313,-4.722976197644679,2.1548371516417806
6.6612499000000005,8.169187105851423,-3.4581259009591947,3.1211515342225717,15.552408427972605,-6.1567963604509,4.207868159756159
6.6712499,8.148401091351218,-3.4376732315869725,2.9737976936364943,11.615904586767911,-7.5292286392344705,6.182526419988748
6.6812499,8.170361553371132,-3.452776037238179,3.0387410107946846,7.724306073241857,-8.941534172383376,7.721381204185917
6.691249900000001,8.214578143594556,-3.493291728188108,3.1202278883822907,5.057968103449243,-9.768622770190156,8.758761575380102
6.7012499000000005,8.290601041703962,-3.5532149979691585,3.104843912810043,2.8469327787268526,-9.939302395886736,9.556258210221802
6.7112499,8.360314654565899,-3.6019470557450157,3.1467065751299645,0.7553324110556318,-9.366133480440036,10.169355501875282
6.7212499,8.398328640240944,-3.614707897878695,3.1950016494606146,-1.0645865751971662,-8.06543319204835,10.268633335704278
6.731249900000001,8.41906493840624,-3.5973558876103913,3.1494135240477497,-2.6192504697071657,-6.421815371842665,9.948856747542616
6.741249900000001,8.427237994313721,-3.665005289883531,3.200983456879158,-4.091043753561777,-4.525268706551555,9.452998524570914
6.7512499,8.443994291907075,-3.7937238254428625,3.38808386566697,-4.49781928148446,-2.5015077189591794,8.649507464828488
6.7612499,8.486510913227269,-3.9221729516771084,3.420075822085333,-3.4935417810112974,-0.5047659240332437,7.542484436861166
6.771249900000001,8.506646417427248,-4.096293641869406,3.3453793722835035,-1.838253639309713,1.0981045828550267,6.721393380766161
6.781249900000001,8.428181919843198,-4.24227097927259,3.46471873563915,-0.12859324192466165,2.7724399539460602,6.498386051435977
6.7912499,8.286158214976062,-4.316964279799821,3.6423673622905697,1.5842751124233254,4.895692133551532,6.274364996283267
6.8012499,8.155249890993158,-4.430732398895789,3.5939320551479663,3.2338210580119897,6.739559938027105,6.102397787433049
6.811249900000001,8.041480651193714,-4.61405648965695,3.5239163227951247,4.428548164472458,8.125329070215347,6.38680436718361
6.821249900000001,7.911668992163787,-4.790457184229157,3.535003786337063,4.791751034402135,9.505964390327922,7.167810674202466
6.8312499,7.783557088540452,-4.923671386023537,3.4410729255947663,3.7131563084948707,10.98582565044899,8.017537843716186
6.8412499,7.753794925798977,-4.947664754072632,3.3772212272498088,0.6649940621538639,12.64038257755755,8.575374956060847
6.851249900000001,7.792327274927976,-4.955922156259554,3.4313178317642734,-3.5597500574858243,14.568525618867346,8.548956036738218
6.861249900000001,7.723455271042283,-5.088073364010534,3.404283504539351,-8.350273337578276,16.737175480303343,8.255505196779389
6.8712499000000005,7.517323227245188,-5.3321153854568495,3.3071592886578167,-13.60269765262346,19.132418784734234,8.361229092080386
6.8812499,7.264732344580519,-5.555226286568391,3.2175198646463468,-19.09040698432368,21.977452678851098,8.7526106788919
6.891249900000001,6.977824602822976,-5.731869120889817,3.06245029584067,-24.50093936564213,25.181460132329242,9.1222493184263
6.901249900000001,6.589548713297204,-5.947461065204792,2.815526780815374,-30.051668519740105,28.479342363020514,9.627965510944984
6.9112499000000005,6.023247782527561,-6.137856576590223,2.4851008739304636,-36.62385227303747,32.54680810884947,10.94229263784742
6.9212499,5.44334159763292,-6.151078296784896,2.048930543341935,-44.59005768655699,37.291335380836976,12.774417382503769
6.9312499,4.95514527918942,-5.9800891719355755,1.5684973306457144,-54.187038160071005,42.218491783959266,14.87000853827612
6.941249900000001,4.232832334131685,-5.782631397157686,1.1029822612059703,-64.97886602596306,47.89482190750837,17.896434399857792
6.9512499000000005,3.261146554556865,-5.628892228232166,0.5989837611333997,-75.97541870963144,54.24783720765748,21.93135753724571
6.9612499,2.408881181728264,-5.373505211504052,0.07872183625453712,-87.41912381085321,61.380390906368724,26.677682224964474
6.9712499,1.7687763115141915,-5.003135163178655,-0.3226643913146669,-99.2005459382305,69.75377070244205,31.720627954644634
6.981249900000001,1.3135255404803197,-4.686918422179472,-0.6019579669353935,-110.05608788919322,79.5540557935832,37.198488878439626
6.991249900000001,0.9474447228313829,-4.500928629534746,-0.7696460279570683,-119.09901216723524,91.36652573298159,44.00578377784845
7.0012499,0.5168740376959223,-4.370439121911405,-0.7942735986144556,-125.72505398335619,105.82803443124146,53.31594478387137
7.0112499,-0.013759011713755492,-4.290594417094397,-0.7928206902472742,-130.84990350256624,123.43043697805,65.76129525005763
7.021249900000001,-0.8299549342430006,-4.216742881907355,-0.8271397434915972,-134.63174011738363,143.5759474007045,81.74595383244045
7.031249900000001,-1.8505005816264264,-3.954185807750759,-0.676051900736426,-136.04768339176832,165.96518657616207,100.18652408293495
7.0412499,-2.8249105703035506,-3.569723079279755,-0.4604839726065079,-135.00639709553528,190.57658611335611,119.96935235936806
7.0512499,-3.691789766285432,-3.2967669936944852,-0.27325580191217874,-130.61957122533826,215.2060768414385,140.87136913170454
7.061249900000001,-4.419082066370298,-3.1061685552541247,-0.15620972927168658,-122.76769313932866,238.63161220784983,162.86379980704672
7.071249900000001,-5.094524045417007,-2.8120131394170205,-0.08691410327395366,-113.73097592608701,261.0186760468788,185.97102010137505
7.0812499,-5.6626967739511604,-2.6536498458916915,0.6744844347152962,-105.70536344124649,284.07824918540916,210.3725932284512
7.0912499,-6.139774644704422,-2.6797447643352386,1.8768830252208981,-99.4820118993457,308.3251066180062,236.1308352530246
7.101249900000001,-6.5931642188122,-2.59422267886769,3.0868311887519093,-96.66119804111416,332.5436895420102,261.9797915078437
7.111249900000001,-7.144111775946843,-2.698351355171027,4.579218641947281,-96.10554881372599,354.49453059283843,287.4136996314872
7.1212499000000005,-7.7558360288052715,-3.1830163273928065,5.886197342615283,-96.98611519751964,372.4890928892632,311.441498140353
7.1312499,-8.137225890199838,-3.6859727882205897,6.6029042684342585,-99.65872248989508,385.0881870829596,332.727400002602
7.141249900000001,-8.41307374659356,-4.258641419513387,7.467025816928097,-104.20681573960033,390.6273512418046,352.4534452456479
7.151249900000001,-8.946552868793091,-5.344160181261132,9.335559385572466,-108.85146242644795,389.03220892549405,371.04726718430777
7.1612499000000005,-9.510752971416286,-6.861169390450694,11.639275193601543,-110.30846398834406,381.64632836822415,386.3407241230157
7.1712499,-9.49056491437531,-8.068062967803163,13.79298059766839,-108.7204574532678,368.7086638258466,397.0961149678558
7.1812499,-8.83628899125804,-9.037821286704363,16.73390851898307,-101.91524114744942,349.86216764807057,401.3731567033251
7.191249900000001,-7.522399398706557,-10.729502390297913,20.5916072268332,-81.89286795887787,327.88205129611845,398.34616572423005
7.2012499000000005,-5.016343544760059,-13.257260328548435,24.882933912449815,-44.41079616320415,307.9709905586621,392.78428134705496
7.2112499,-1.4201994477893496,-16.654045188869276,30.327763969477033,14.968130758925543,286.60413395052586,391.03605588069996
7.2212499,2.40371539116651,-19.88686755285711,34.65033029985963,103.36034156789907,252.59457278451052,389.5413251632375
7.231249900000001,6.34358260148414,-20.59202370998643,34.08197093881579,206.59230146275505,195.91870766386074,380.0582679714255
7.241249900000001,10.529834016094831,-19.70756001500943,32.31320530154625,294.0890503889475,113.31834398071345,367.4671055959019
7.2512499,13.527501137251312,-18.707707982749717,33.96962843235585,334.97929063121137,21.83178639864007,358.56108247472844
7.2612499,14.641134358960901,-17.58769801870244,36.43704832496902,318.73746098196824,-64.30022116454542,348.8666047167125
7.271249900000001,15.342082840887656,-16.879864026313204,36.844049554773875,248.16264454545438,-149.96448273773564,330.06740381992483
7.281249900000001,16.476312877808812,-15.661419222889723,37.230070617509774,124.35934929266715,-234.12330779545084,287.7165150844446
7.2912499,15.95163985651712,-13.374395813113523,39.417615697277796,-23.613315258899245,-313.56688924897503,205.77489071637004
7.3012499,12.410928499612588,-13.34392472840802,42.27574548824144,-141.36829399875194,-394.73701495897586,90.8993709088365
7.311249900000001,8.095251632312142,-19.597604883221237,45.89443814334734,-180.5353899704391,-470.3306357397709,-24.07048762325078
7.321249900000001,3.2348915836612298,-29.390579027337143,50.142559833427036,-125.038129894905,-501.99652629048825,-116.0761513873512
7.3312499,-4.109519796990077,-35.93036373689897,53.09461948055231,5.424393660681541,-499.83252038481425,-188.25205503470065
7.3412499,-14.315782021082324,-38.10149118731627,55.063696011937836,175.2162871945353,-499.67092326715124,-244.80282548307576
7.351249900000001,-25.674702365953568,-38.433923556928285,56.6892050765362,328.60583181256095,-500.2353782026082,-273.1343437604091
7.361249900000001,-36.31995952031176,-37.26641416728217,55.91953428969754,407.4544747743786,-499.91441499043316,-267.4051892693009
7.3712499,-47.014576793274266,-33.98193058815353,52.58431240038855,403.54410246900665,-500.0325503374139,-240.8547317833119
7.3812499,-57.26643734592962,-28.961980960282528,46.92681401085202,334.6504313417514,-499.9590646715715,-210.94587009627617
7.391249900000001,-63.01723545805832,-22.815476553105114,36.9389603174756,228.98656939126496,-500.0131258856016,-193.0691912644422
7.401249900000001,-59.95414659322885,-14.453400156481994,25.799359092803623,110.41090705950387,-500.24392726903307,-190.6925183554874
7.4112499,-51.17502737360481,-5.299124939285249,17.569411471285843,2.2157981664477995,-499.0588655505335,-199.0268939813243
7.4212499,-43.565431466696225,-2.785728024353298,9.002869805059548,-60.887412666085616,-501.99427416716713,-193.9533907229257
7.4312499,-38.275761265484036,-5.12866908416787,-1.9327226094950056,-73.60315400837271,-495.1932404635896,-145.27512061320755
7.441249900000001,-33.15835690883865,-4.871053999999188,-11.495507929176174,-66.95890007119978,-446.2750623754879,-62.28608142150579
7.4512499,-26.42712496572693,-0.5090828159967814,-15.493893125385723,-65.39961231751889,-385.2609778845365,14.937042800359572
7.4612499,-20.204930505456584,5.783408632860608,-14.275916662329685,-86.92672461547687,-323.2497703493777,56.236622386268465
7.4712499,-17.476818363213507,9.396999306082227,-11.246884318312201,-125.89155493474736,-250.77045271644818,65.85687007331137
7.481249900000001,-16.208582545502566,8.388491572026863,-8.98485588626592,-161.3141631318025,-180.49766415113908,67.23228082337653
7.491249900000001,-13.909047342806337,5.121896887626401,-7.624291589326151,-177.97797861865305,-123.4956772754177,73.02089863627279
7.5012499,-10.917346201990043,2.7770810159024157,-6.065608471371941,-177.55766863974827,-82.82445607364696,79.10995160232426
7.5112499,-8.315722862819669,1.5223822003260292,-4.135968549546074,-168.9622828344502,-53.929218398648665,79.04931205751494
7.521249900000001,-6.173727385557461,0.2572214416077244,-2.0264384216797193,-164.598207258913,-29.62198946830189,73.18945627986525
7.531249900000001,-4.225581411079172,-0.7303649002910259,-0.2557436928745696,-170.13439664628112,-9.48714622155304,63.65093772706717
7.5412499,-2.2288869448959043,-1.8129218257306585,0.829107275738749,-172.15263543581423,6.486324868319882,52.276006955406295
7.5512499,-0.01439348966701355,-3.269370265595001,1.4423994663168775,-157.40692821929153,19.744593989750594,41.87857845842536
7.561249900000001,2.540363473312573,-4.378744756204436,1.937831761402932,-126.962998975206,32.18886165168539,34.179384232158895
7.571249900000001,5.229705245957446,-4.770552542635358,2.461920002739031,-89.38672448605902,44.45228442854756,28.85251331426287
7.5812499,7.634191348766858,-4.844813828021225,3.1173830649806185,-53.972184376746,55.32085224517645,24.980918899916936
7.5912499,9.151775753395144,-4.751379745558265,3.809979764683188,-29.337928478920055,63.40956764640883,21.28681710332963
7.601249900000001,9.627363251097483,-4.360438331596327,4.360472608264033,-19.925264473869426,68.74933175210091,15.86223793883665
7.611249900000001,9.632781670926258,-4.044919983205001,4.706155454875548,-25.21629163183952,71.94968169132862,7.915212538413699
7.6212499,9.745872992386113,-4.009060784410967,5.115373983023843,-40.78613561244914,73.5438465537434,-2.243698753919095
7.6312499,10.077028787997326,-4.371414478081374,5.807248965493363,-56.80392905357051,73.74380514572285,-13.219649366166342
7.641249900000001,10.431784620473291,-5.1066957431112785,6.413850635904031,-65.75602458400519,73.85367968031252,-22.316349153762886
7.651249900000001,10.592438583723823,-5.816396251784,6.846168414789718,-65.4827760450211,73.78809104550396,-28.041718945924874
7.6612499,10.461359474724068,-6.314256953895562,7.145244227591936,-54.953046479261985,72.02545225495354,-30.3689296780005
7.6712499,10.224127396295755,-6.646006477697639,7.108312384871471,-37.633411297874076,68.46577368161914,-29.639590905292287
7.6812499,10.093417744602228,-6.704117866184759,6.930731899027721,-18.178536602673383,63.03125513000379,-27.22778045439482
7.691249900000001,10.068772662485653,-6.462431179717409,6.8906427866968984,-0.51526841400759,56.02816464505161,-24.987105636315086
7.7012499,9.975364446532133,-5.975528064857537,6.852554247187699,12.75857932049854,48.083842776917166,-24.27810917763944
7.7112499,9.823523867453117,-5.3957371366828095,6.525174111639166,20.806768556215776,39.151049780376354,-25.642091595948003
7.7212499,9.795741090494221,-4.775713436346616,6.14939270675828,23.1470818443017,29.780599673622092,-28.50378829705432
7.731249900000001,9.76368149761138,-4.015065085453177,6.272568959508325,19.947199294124513,20.951120559204288,-32.724242310092876
7.741249900000001,9.577403599146033,-3.2466550731767527,6.464870437742549,13.119446692258387,13.988212172105943,-38.46380685799708
7.7512499,9.348960237320085,-2.8422519942933353,6.170715253232726,4.34381543102686,7.888011399375939,-43.528230601312536
7.7612499,9.235043187546262,-2.825022377737931,5.656776285908514,-5.006444842028468,2.201953602242825,-45.70410391424786
7.771249900000001,9.251159164540036,-2.815867362994067,5.304916597324116,-14.48599699060486,-2.0595246050306506,-44.97330321365024
7.781249900000001,9.242810775026149,-2.677005638926234,5.005625905777472,-23.383386899559753,-4.862515070674746,-42.230752092618005
7.7912499,9.151625560335342,-2.5780500778518185,4.69705307598309,-30.083241212653647,-6.5763584634442624,-38.137914998022175
7.8012499,8.993857599887296,-2.5521385057784016,4.446416410595362,-33.99432046236158,-7.0678319158369565,-33.402841285604296
7.811249900000001,8.774007150697784,-2.47986669958222,4.234219037714588,-36.60955252390054,-6.889537862453846,-29.049987102467774
7.821249900000001,8.555848331008958,-2.4412288444788213,4.094911900212186,-38.700094938643936,-6.203656536653571,-25.507001812522642
7.8312499,8.283041325192613,-2.517854697463904,4.066161162990725,-40.16386293482649,-5.179237273117654,-22.349629820827786
7.8412499,7.913728666883463,-2.686594469092792,3.904138748656465,-39.554771107900606,-4.831954362361183,-19.11284313037324
7.851249900000001,7.670730648793859,-2.852972294314882,3.455016455948081,-38.276886229413996,-6.03850377091133,-15.225671398899632
7.861249900000001,7.689198802180227,-2.8891021339743594,3.2342063947616304,-38.18746859242533,-7.908837158006217,-11.369788044925045
7.8712499,7.735215067666693,-2.7826933227642408,3.2642346752112803,-38.82148891347707,-9.923085864804532,-8.543193613058111
7.8812499,7.621500286475781,-2.6725479914987607,3.184816409866957,-39.68304575112876,-12.226338020498686,-6.289922653569668
7.891249900000001,7.507252509409405,-2.638380000122132,3.138490075755189,-40.714366006190595,-14.074541880737366,-4.002628388913956
7.901249900000001,7.539000267009206,-2.5648674346656812,3.1936686218781523,-41.944794139785095,-14.784700223995763,-1.5324868920935684
7.9112499,7.561486776418336,-2.456740133213353,3.2348223275851646,-42.67303475462098,-14.868305590701235,0.46441729642606155
7.9212499,7.554031870972967,-2.4785878844385443,3.3162889263761737,-42.208770147152634,-14.650615105479972,1.7754395606885613
7.931249900000001,7.611408117498189,-2.490042302698215,3.3849269491045515,-41.29520325407283,-13.812586825608866,2.4770340341743733
7.941249900000001,7.699866880148899,-2.3721689729560542,3.1803408560459707,-40.67278735966861,-12.762921038491765,2.063144041021681
7.9512499,7.791488093017424,-2.267970854286572,2.9766069038386402,-40.147340233550835,-12.410735921537492,0.6203636526221006
7.9612499,7.803271305194383,-2.259846920158679,2.9605280838784678,-39.43650542395318,-12.2627767452155,-1.9400095320434558
7.9712499,7.763125031488039,-2.32385151098897,2.9058917240349222,-38.61633924469863,-11.893396990293446,-4.871661204419355
7.981249900000001,7.873007826262697,-2.4952660472822217,3.032349193633292,-37.43281999697555,-11.048086378891485,-7.1656173583076095
7.991249900000001,8.109939410530773,-2.768602785972055,3.3842597941108177,-35.29840383046313,-9.212893201585047,-8.393932945260326
8.0012499,8.253447495040685,-2.938148437556686,3.6326539857057147,-32.11643861552624,-6.080808427293346,-8.69029748741625
8.0112499,8.278956208984937,-2.9428130428487616,3.6414315331092433,-28.101419552123346,-2.9720726773958455,-8.547227326713724
8.021249899999999,8.317531478325733,-2.908651971970497,3.491264469519327,-24.397294633129906,-0.46362585542984797,-8.049552595572138
8.031249899999999,8.368263170808035,-2.892087165751686,3.340590916397711,-22.144681503545637,1.6659890006476892,-7.726920996508777
8.0412499,8.265790470594133,-2.9369280566374667,3.1564702577123853,-21.762750693327607,2.974371224085373,-8.074940843521413
8.0512499,8.096708184092103,-3.071075130693526,2.9512516935254522,-23.065615543605283,3.645494011135948,-9.383497449855593
8.0612499,8.147216372558514,-3.2421306988702066,2.8751348611696894,-24.95340444409244,4.4111869357458,-11.58585791660799
8.0712499,8.4149474909397,-3.4331416079349477,2.9745566422134657,-25.09265599665817,5.0472270779347665,-14.092536092929269
8.0812499,8.648289842460727,-3.7242190778144515,3.147429666439834,-20.9219366447642,5.2069117231661854,-16.039800285441494
8.0912499,8.729750438059531,-3.968045744818834,3.296055315894714,-12.475014665171976,5.336173043627744,-16.927616482415324
8.1012499,8.717380124195516,-4.052242500028918,3.3249741279241762,-1.6194744848522336,5.695433888888247,-17.101191344997037
8.111249899999999,8.64076752802601,-4.120138241449793,3.114701000990449,10.500952648774906,5.401580389504972,-16.519032890430843
8.1212499,8.553314891030007,-4.14707677164203,2.7974914802201387,21.357723550533425,4.424561876176777,-14.844692180026218
8.1312499,8.495837641172136,-4.056295101807383,2.663046306450867,28.557701677456894,3.524893966083032,-12.543388269888563
8.1412499,8.46306313410498,-3.865049491040783,2.697547949119465,31.790107336327367,3.0727620855315267,-10.330478284642215
8.1512499,8.471989784372653,-3.5625231224952594,2.711869722810703,30.982100970495534,3.1896096180502966,-8.72137949060395
8.1612499,8.54588772339202,-3.2070723429744374,2.7987522259316533,26.225971910324443,3.7612736517171883,-8.0221245089042
8.1712499,8.608422620771673,-2.9538779126568073,3.039845108750432,18.70232524358403,4.492798313213074,-7.951223048004568
8.1812499,8.61771580856645,-2.9260474518520088,3.317506963149311,10.363668161520533,5.629628499927789,-8.090627974794792
8.191249899999999,8.619589594057613,-3.0534890684954004,3.537202782798148,2.9396870963011357,6.559360582714107,-8.336238046675442
8.201249899999999,8.507654960517481,-3.2479593619482685,3.705117484051636,-1.9547132445180921,7.115925326813388,-8.417766940601165
8.2112499,8.245440467833275,-3.5250630201364275,3.8336039425255812,-3.0983683872522487,7.519304015178553,-7.776363385165861
8.2212499,7.985487925783157,-3.8048823709562325,4.004457430658422,-0.3108202635163467,7.653402696775426,-6.0104524226163525
8.2312499,7.844353056600983,-4.004900194512434,4.230082086539549,4.878181093437296,7.845148942937139,-3.367730804556361
8.2412499,7.745181391121661,-4.14665137170899,4.328209340399661,10.90749311929151,7.958060601348974,-0.5728602657822807
8.2512499,7.6738694913407235,-4.162854226775304,4.258604346005927,16.07824425867835,7.884435438310871,2.103208346238877
8.2612499,7.763268296956579,-3.995832439383966,4.274380140133152,19.11162275488409,7.928873035464363,4.253212545275676
8.271249899999999,7.936958066533033,-3.746867150312934,4.392107389364226,19.839521947262877,7.863522427640535,5.292985040648558
8.281249899999999,8.067103823720885,-3.580682274830757,4.346416135976655,18.358237626255804,7.636268310345931,5.826633234992279
8.2912499,8.180532392966049,-3.4775880043886462,4.173722406090636,14.678953866518002,7.598124382886841,5.992361073961766
8.3012499,8.290578686823155,-3.3719437003039947,4.0639889762193,9.58854911100262,7.608160419496705,5.5802933727872714
8.3112499,8.42885934383154,-3.2983939304367813,4.043900248481277,4.4882159606387955,7.812085565743045,4.765214603283492
8.3212499,8.601662166415535,-3.3251266999424014,4.059264718049736,0.3714909212529599,8.426212852294025,3.6288759407890328
8.3312499,8.739794119993109,-3.4219346900212164,4.0576377552522676,-2.1358712035950322,9.45909687730829,2.8747144969960496
8.3412499,8.788950445762879,-3.464229275176538,4.052417464123247,-3.067429888522943,10.635831043477166,2.3988149071736364
8.3512499,8.71778237952597,-3.506080538462524,4.100236801848522,-2.5466114028781366,11.139077512072582,2.085691380518771
8.361249899999999,8.536857703715086,-3.6344584503767448,4.1747060588245075,-0.6202132187702039,10.931965281397087,2.2837157933765235
8.3712499,8.27469536301232,-3.795456394970925,4.11487862067322,1.6571208584725792,10.181807429059871,3.078076156100736
8.3812499,8.048528203695133,-3.9098298117565604,4.081519189061513,3.131679849607584,8.747133886686411,4.189081756042527
8.3912499,7.927947609711018,-3.8358110453587533,4.163776811637109,2.717256442856872,7.0184188764402675,4.784889383473752
8.4012499,7.822323890521909,-3.6172500164969126,4.1215961338643945,-1.6431555220604572,5.366419786102807,4.387850648240514
8.4112499,7.754019685237242,-3.5050820378226657,4.029373039037628,-9.925357435725829,4.5179280675686515,3.2797533565142323
8.4212499,7.891265859154529,-3.394342738171841,4.07215971839763,-19.65572727884829,4.8323025559649455,1.2984980654896874
8.4312499,8.27561032838265,-3.2788565370572536,4.12719290076232,-28.99890419905183,5.6572509100251,-0.6561793162207017
8.441249899999999,8.57528791099803,-3.537184907743115,4.293820158997331,-35.95011641156751,6.745666767149781,-0.5025498202881808
8.451249899999999,8.540047234678378,-4.12658221583107,4.495438933389169,-38.411155170934926,8.358777832167739,2.749905780609405
8.4612499,8.397053140649364,-4.663277020457232,4.364869111106552,-36.13115789861252,9.899465504874454,8.152593397259716
8.4712499,8.27864634816627,-5.107363850201918,4.066477888921323,-30.592433772831168,10.041897901191048,14.370605049854442
8.4812499,8.031242532522603,-5.464056959871392,3.7629978333546354,-24.168960093738168,9.272180041426886,19.827533284872047
8.4912499,7.684043471404099,-5.572305678771466,3.39012712160588,-19.92519381596167,8.347146425381183,23.272438909535147
8.5012499,7.373158832485426,-5.532403887609753,3.113170151436105,-19.80845723273644,7.656104776005553,24.796664805014395
8.5112499,7.003653960842021,-5.517440373659946,2.967697264667085,-24.526040222312844,8.128722867469117,25.00805636506096
8.521249899999999,6.602310051113758,-5.539242363184742,2.912491626625797,-33.74282527596075,10.4207331902909,24.297522537994645
8.531249899999999,6.221859175056898,-5.686166945195669,2.724351086410125,-45.61334360593263,14.525834780666505,23.528447510245886
8.5412499,5.703138733473944,-6.095195662706719,2.3770535620245528,-58.742970305003894,19.946655001610477,24.256869434342676
8.5512499,5.0977035039127125,-6.668727302758099,2.188829552339235,-70.82374046301042,27.304775503633397,27.14214611357766
8.5612499,4.516576323813221,-7.10183767050349,2.0241935260669264,-80.76946551840717,36.56754766667734,31.526088149702733
8.5712499,3.809054258142419,-7.313759667426517,1.7196838359544544,-89.7049945788649,46.78182930058399,36.08067417319729
8.5812499,2.813120862631422,-7.4543723024439705,1.4633698603313046,-97.70583101147376,57.72090996746675,40.42801425711638
8.5912499,1.5917752572688155,-7.517553475971346,1.2343566429780575,-105.02016822555389,70.02935748538964,44.33179903038309
8.6012499,0.19654436589630583,-7.43543308781529,0.8754261115215066,-112.04964235210943,83.0567565751551,47.66309893549787
8.611249899999999,-1.1507941567290856,-7.275538839141845,0.5660625268236223,-118.44936889425267,96.97842753903507,51.34753114031099
8.6212499,-2.225681219878728,-7.050336631631377,0.2621027933310444,-124.48225447726455,113.32714830402963,55.85830702164184
8.6312499,-3.192448312962226,-6.538913643955575,-0.13562932655819135,-130.344784412959,131.74807072888123,61.01979709662775
8.6412499,-4.1361201529980205,-5.677705985143776,-0.5191860479929892,-136.28179166455914,151.66633211632728,66.31239644687255
8.6512499,-4.966621684785456,-4.694435311142655,-0.9604221455866916,-142.9715614334802,173.04536154821142,71.17914646083129
8.6612499,-5.716780003609527,-3.822789380421419,-1.2361169226530966,-149.77923124983968,196.0633992924307,77.1933481454934
8.6712499,-6.31680725787294,-3.14490081232987,-1.0806027403674605,-154.89371170239014,221.2957363493592,86.95740807384946
8.6812499,-6.593210025387027,-2.6739538416134003,-0.7238245526242061,-157.54488093401704,249.21038536366595,101.27830079104196
8.691249899999999,-6.744918373783909,-2.2503553912609227,-0.399434149268441,-155.63526624443884,279.16419789605334,119.62998479674052
8.7012499,-7.084775500624146,-2.03406040846325,0.09923336076569882,-148.21247497071164,309.07914506385595,143.0586256412563
8.7112499,-7.499150052594833,-2.1533693167108154,0.941270297882727,-138.97639407042507,339.15384393749514,172.39633485135047
8.7212499,-7.676268555499664,-2.027879841518362,2.1003315830107385,-131.0988687354909,368.6387466913736,204.8702375275611
8.7312499,-7.663784808675085,-1.6623942333867494,3.428105006939609,-122.25742610945836,394.63986466910416,236.67986572534116
8.7412499,-7.856321822546159,-1.5896644280846568,4.618752147014211,-114.15496493562718,415.68424544108115,266.5413157149611
8.7512499,-8.39687627497002,-1.9352923665438533,5.7866538837764585,-108.16294099179981,432.02430034748346,294.0203923955524
8.7612499,-9.080674164172725,-2.4872038613875858,7.37392720007638,-100.60002517385264,443.08929834939937,320.27234580066687
8.771249899999999,-9.500376553773409,-3.1545195903043712,9.252107588567926,-88.18151216101604,447.55369771483095,347.3894621937901
8.781249899999999,-9.745584113713475,-4.024783044427553,11.145840459629152,-73.6118485268612,444.6074402742058,374.5859329819099
8.7912499,-10.22193270710449,-5.212075988975363,13.403778679978316,-62.521613944315355,434.7329621108661,398.6703119928673
8.8012499,-10.698604050323306,-6.761563489920382,16.09976841618581,-56.72758941813698,417.157608066669,417.0417702662325
8.8112499,-10.484084286038172,-8.481336494359095,19.52023162717195,-49.59316192016213,391.56148587277056,429.39897889213614
8.8212499,-9.131647850588037,-9.975314482587786,23.920507161096484,-32.953399122615785,361.14567277559263,435.0629867045228
8.8312499,-7.144448545472392,-12.245285269682448,29.07296977978867,2.6260587642044273,327.4575682750835,432.559467345151
8.8412499,-4.9214740448260645,-15.91843532313885,34.48883912730984,63.58613644506166,290.54342792864384,421.2530062719849
8.8512499,-1.715605987656899,-18.671250803605755,38.69540883513543,138.86630167816028,245.9286948338726,398.0916145518391
8.861249899999999,2.951407987738035,-19.63248191065856,40.940820776864,204.1742085759215,187.98180188486202,362.3760324301993
8.8712499,9.324047615561673,-20.029814187827828,42.43657052207787,236.21030134737944,119.31428408909696,320.1615198615808
8.8812499,15.605855396753718,-19.920053155146228,44.53438914446973,232.29122179008544,38.746817685674436,275.8165261776034
8.8912499,18.639311608532793,-20.06686837098499,46.68235554178097,220.11788866511688,-58.8454054491374,228.05823421013648
8.9012499,18.431676529682424,-21.785872860190654,48.654112777911145,217.07422954153407,-170.70537077673958,183.21892656792727
8.9112499,15.945863618918919,-23.863641475774934,52.33412928555552,226.30464986984015,-284.9853909301299,149.05799458554955
8.9212499,10.118404317987645,-24.104321133678788,56.31620468841833,241.87135012427154,-400.42656911433545,116.10430608527935
8.9312499,2.5125653557378125,-22.216093017640663,58.066927344484654,240.99111219357917,-487.65700476984983,74.02012393609337
8.941249899999999,-4.751268978075508,-19.19539550391874,59.87624864024666,215.70085606359558,-503.45144713166667,23.537559283407735
8.9512499,-13.053083191775606,-17.26571333298021,62.97165305182769,190.03440968756382,-498.5987481891839,-30.58202507764521
8.9612499,-22.48855066607623,-17.944726238902486,64.66025552180595,185.86669812551554,-500.27733682969784,-79.34534117436479
8.9712499,-31.36961726895865,-19.86403564683874,63.74827155833003,201.6069552762726,-500.08087813450516,-113.92805252368018
8.9812499,-39.06891797441372,-21.290441802837663,60.81713533621925,223.28015882405768,-499.91009353504614,-128.50739224206313
8.9912499,-45.891105925862604,-21.6019297023715,56.92875073350801,230.31987352674918,-500.03114314426017,-118.54015762806884
9.0012499,-52.81638578029273,-22.122203475082756,51.90728086211255,225.9404587211463,-500.02306858263483,-88.14438638950558
9.0112499,-58.07043950825175,-21.62744158068733,42.68630509725942,206.12718954793397,-499.9324567281141,-50.531975067003415
9.0212499,-57.939409768731714,-17.167646296882058,30.885785091650284,159.75315645748447,-500.0455684615347,-24.159997949793823
9.0312499,-54.96074985815622,-11.001336101822817,20.74679383802204,111.14422777779842,-500.2584933742487,-12.300414033402907
9.0412499,-53.50251634441063,-6.790132341827849,10.779084886122602,73.64733561278538,-498.8674925985729,4.631089131546454
9.0512499,-51.31101697231877,-5.725584693804914,0.6457108877267104,43.93212913983771,-502.5767812594644,38.31020226090327
9.0612499,-45.931992975412356,-4.029509941647886,-6.830510892161271,16.450855752052778,-491.55586439300674,75.969265215964
9.0712499,-39.377110364696236,1.2499400595513406,-10.930188423309584,-25.061564890480287,-423.56642392328763,94.27167003038677
9.0812499,-33.99645992311731,5.969852716302484,-12.215934217557834,-75.99590868346819,-337.02380319710824,86.89149671254073
9.0912499,-29.247553861407585,6.319808421436041,-11.12631527030897,-118.27314575073811,-259.80729054365725,74.28003725229942
9.1012499,-24.276107355220336,4.023622600597399,-9.201959588740607,-142.45402010214528,-182.43468354671148,70.84171047131976
9.1112499,-19.394110074540396,2.3337676736546302,-7.8837539981743925,-145.468215768182,-117.9027640297798,71.18804446003882
9.1212499,-14.826749146650341,1.7168619986550886,-6.64191367833488,-131.790975867876,-74.17621838037054,68.04231724110275
9.1312499,-10.591204968714855,0.6808543379536776,-5.071554816379431,-111.88489510212791,-38.20407124554617,62.51116204891689
9.1412499,-6.734707439409615,-0.853997681511832,-3.7348302974005123,-94.72648823023493,-6.392207808852049,58.81633442817421
9.1512499,-3.115140263648415,-1.9080640696218756,-2.7169852326572825,-84.43837428777191,22.08361514741218,56.146651096249144
9.1612499,0.1351421742367011,-1.9980584774410792,-1.7426730388409464,-83.10032250722467,46.95121924196173,50.6086192645303
9.1712499,3.270076105485173,-1.9393145775023448,-0.8529744093295445,-87.90733514647675,64.54319004320918,42.31093953281522
9.1812499,6.8969036101092165,-2.4361506835283797,0.11850116364921431,-95.97091968993257,76.04516253852628,34.68186250793784
9.1912499,10.649953338481804,-3.272841261648081,1.3709713309698344,-104.37513174995868,84.64204476605137,29.487336965081962
9.2012499,13.555581820597958,-4.193106960639188,2.484575967078134,-110.26305047651738,90.05299341103023,26.10437488051766
9.2112499,15.372098267340494,-4.788048697249298,3.5229639840046625,-113.18332858525167,93.64663813409763,20.902725631008416
9.2212499,15.792704173427051,-5.036753727437331,4.5993534828951805,-109.17771366331496,93.52950789382581,11.078964038854078
9.2312499,15.116369128492767,-5.519925166425751,5.659667867756784,-99.2850120885509,88.60827418680923,0.8560017828478883
9.2412499,14.083076673171123,-6.102461303078643,6.748088830486252,-88.39524472229778,84.05816138882656,-6.66005413260739
9.2512499,12.911629959402953,-6.274083927079922,7.745613637940074,-76.97301629196562,81.0486761667597,-11.694447587309643
9.2612499,11.998932876164131,-6.20286485711485,8.509029405336918,-63.67929681788108,78.44379686664121,-14.125757833452573
9.2712499,11.249091992759126,-6.206088988477487,8.910023440488697,-47.19661731717558,73.68164867677866,-13.384297420765723
9.2812499,10.389579860830342,-6.5301928743904485,8.705908993876928,-27.104157923275807,63.782216544555,-8.469584761746322
9.2912499,9.985764112291074,-6.777070852406924,7.926092125603353,-8.054718571227218,49.88376978530918,-0.4338935878112323
9.3012499,10.040589896931472,-6.180379687402067,7.359011011687151,0.6746329507824219,33.93968435522862,6.307156901349755
9.3112499,9.796124622254371,-5.027335865192566,7.135557981960327,-1.4585420718784157,16.287587776505045,8.979855941195046
9.3212499,9.21435413561974,-3.8088164527905244,7.12108315040225,-12.867592533396914,-1.4188499732712203,7.733495343923889
9.3312499,8.818169199498767,-2.752766274149762,7.224987255872422,-32.79533275058884,-16.36454068013768,2.952626378385305
9.3412499,8.853569458298733,-2.0751690476538704,6.981706100229478,-59.54637435375353,-26.531269673387737,-4.405397398281654
9.3512499,9.007416548959913,-1.7689027891607434,6.479189564035926,-89.21070538017378,-31.761426777759553,-12.274197222817374
9.3612499,8.96729947286919,-1.9932266844672701,6.171363597474784,-113.54198546085424,-33.43814390075735,-18.42769130071591
9.3712499,8.734157777374861,-2.6849356743821846,5.986702376064134,-127.22115775427919,-32.891105626488354,-21.27658082944365
9.3812499,8.42926392159117,-3.3560635977626285,5.670382040466208,-129.98975846271964,-30.46436891477956,-21.528835733363547
9.3912499,8.126423216040772,-3.7637510099916573,5.294764210347935,-124.04128766424888,-27.20228197737812,-20.554567827052818
9.4012499,7.738033763908367,-3.9727164576411846,5.077341230681601,-112.61484697988165,-24.29360912945877,-18.965201272013747
9.4112499,7.107311994248529,-3.9894343566026413,4.971537865942748,-99.09992116680094,-21.662206283535326,-17.729925326689816
9.4212499,6.4358559156180775,-3.6448057986679894,4.66721046011577,-86.87979740547098,-19.763776332341994,-17.86882511286076
9.4312499,6.110126537553683,-3.270982030262763,4.267229990092593,-76.43145164562942,-19.047291125955297,-18.821039648405776
9.4412499,6.0588546443990685,-3.2628637996380667,4.139889762856847,-64.7140928920846,-18.453142016072725,-18.42120192882067
9.4512499,5.961581848972163,-3.4464485385718735,4.187913900589767,-49.06599592973406,-17.381962832987913,-15.709093855561148
9.4612499,5.81744165488093,-3.5801728930361465,3.872291522872043,-32.61664962996623,-15.40533325329609,-11.917830206918829
9.4712499,5.831567765379679,-3.4144719208302936,3.1867784976877664,-20.333674617389626,-12.696486751316979,-8.424592020917846
9.4812499,6.147157142420844,-2.83707839758414,2.7585261749186762,-13.221269465606621,-9.712695888957533,-6.488931352912006
9.4912499,6.531541699864308,-2.231471015630393,2.4948657705075936,-9.87656644266079,-6.707075606143254,-6.6043396541516755
9.5012499,6.772949725024156,-1.9750845289343235,2.1277102606647453,-9.4417228347134,-4.33434560046276,-7.34763289842319
9.5112499,6.89986177180357,-2.0712788171391234,1.874518325890019,-10.212323014928415,-2.472769559804564,-6.825303354998283
9.5212499,6.949796289682128,-2.274407189042639,1.646649542256587,-11.492342059636847,-0.8137329584183466,-4.8955458368862175
9.5312499,7.127714918906632,-2.380813667414958,1.3417494344643477,-13.400387677880659,0.03517775477958865,-2.6149083283681778
9.5412499,7.527121990637431,-2.4079427709319687,1.1409919340680976,-17.138992452086605,0.16753041229354412,-0.8596654655900133
9.5512499,8.017796507400298,-2.413008155060752,1.2381287513992545,-22.80766207847847,0.5619731014572396,0.4663378803144087
9.5612499,8.543002531132599,-2.378418707267084,1.6207372967832494,-29.197221985948925,1.9944124973171917,0.9886158538056334
9.5712499,9.043813258730607,-2.3917123447075452,1.9647958738792588,-35.232304710801785,4.556278675367133,0.28897954831301437
9.5812499,9.444790316465491,-2.612260424055541,2.0832856782815976,-39.208581333271724,7.109428466658729,-0.5821300984738621
9.5912499,9.660897983338831,-2.9918809422248533,2.2239204160726675,-40.511834722693855,9.37700533257593,-0.5132391690720681
