# Time (seconds),Accel_X,Accel_Y,Accel_Z,Gyro_X,Gyro_Y,Gyro_Z
0.0099999,8.901641845703125,-3.1962592601776123,3.1028854846954346,-11.90185546875,10.833740234375,16.571044921875
0.029999900000000003,8.81784439086914,-3.5003228187561035,3.2992098331451416,-7.965087890625,10.9405517578125,16.0064697265625
0.0499999,8.734047889709473,-3.7660791873931885,3.469198226928711,-4.608154296875,10.92529296875,15.777587890625
0.0699999,8.667010307312012,-3.9384617805480957,3.552995204925537,-2.9296875,11.23046875,17.2271728515625
0.08999990000000001,8.614337921142578,-4.027047157287598,3.56017804145813,-4.3792724609375,11.474609375,19.1650390625
0.10999990000000001,8.544905662536621,-4.0533833503723145,3.490746021270752,-6.622314453125,10.6658935546875,19.7601318359375
0.1299999,8.453926086425781,-4.065354347229004,3.3686418533325195,-6.7138671875,8.4381103515625,19.3023681640625
0.14999990000000002,8.38449478149414,-4.091690540313721,3.246537446975708,-5.584716796875,5.5694580078125,19.1497802734375
0.1699999,8.389283180236816,-4.144362926483154,3.141192674636841,-4.6234130859375,4.5928955078125,18.8140869140625
0.1899999,8.542511940002441,-4.223371982574463,3.1100680828094482,-4.5166015625,5.9356689453125,16.05224609375
0.20999990000000002,8.813055992126465,-4.32871675491333,3.1699230670928955,-2.960205078125,8.1024169921875,11.810302734375
0.2299999,9.124302864074707,-4.4532151222229,3.3016040325164795,1.434326171875,8.8958740234375,7.4005126953125
0.2499999,9.385271072387695,-4.584896087646484,3.49314022064209,4.33349609375,6.378173828125,1.89208984375
0.2699999,9.50737476348877,-4.7189717292785645,3.7229835987091064,2.7313232421875,0.762939453125,-5.706787109375
0.28999990000000003,9.478644371032715,-4.807557106018066,3.9432501792907715,-0.457763671875,-6.34765625,-13.3819580078125
0.3099999,9.294290542602539,-4.817133903503418,4.125209331512451,-3.7384033203125,-13.9617919921875,-19.5770263671875
0.3299999,9.006986618041992,-4.73573112487793,4.201824188232422,-7.293701171875,-21.3775634765625,-24.1241455078125
0.34999990000000003,8.65982723236084,-4.5394062995910645,4.158728122711182,-11.23046875,-27.618408203125,-26.5045166015625
0.3699999,8.305485725402832,-4.256890773773193,3.976768970489502,-14.1754150390625,-30.6854248046875,-27.099609375
0.3899999,7.999027729034424,-3.9217023849487305,3.713406801223755,-13.61083984375,-30.4107666015625,-25.299072265625
0.40999990000000003,7.793126583099365,-3.5697548389434814,3.4117374420166016,-10.3607177734375,-27.099609375,-20.56884765625
0.4299999,7.709329605102539,-3.2369606494903564,3.141192674636841,-6.072998046875,-21.7132568359375,-14.862060546875
0.4499999,7.7428483963012695,-2.9520506858825684,2.9161376953125,-3.0670166015625,-15.9759521484375,-9.8876953125
0.4699999,7.869740962982178,-2.7317841053009033,2.765302896499634,-2.44140625,-10.68115234375,-5.9661865234375
0.4899999,8.051700592041016,-2.5953147411346436,2.671929121017456,-3.2806396484375,-6.9427490234375,-4.0283203125
0.5099999,8.252813339233398,-2.542642116546631,2.6360161304473877,-4.8370361328125,-4.150390625,-3.326416015625
0.5299999,8.451532363891602,-2.5689783096313477,2.6575639247894287,-5.3558349609375,-2.0294189453125,-3.1280517578125
0.5499999,8.635885238647461,-2.6408045291900635,2.741360902786255,-2.0751953125,-1.1444091796875,-2.044677734375
0.5699999,8.793902397155762,-2.715024709701538,2.853888511657715,4.3792724609375,-1.03759765625,-0.30517578125
0.5899998999999999,8.916007041931152,-2.7485435009002686,2.9759926795959473,8.48388671875,-1.64794921875,1.0986328125
0.6099998999999999,9.004592895507812,-2.736572504043579,3.0526070594787598,7.781982421875,-2.5634765625,1.2359619140625
0.6299999,9.059659004211426,-2.6839001178741455,3.0837318897247314,4.2877197265625,-3.2501220703125,1.0833740234375
0.6499999,9.083600997924805,-2.6408045291900635,3.1004912853240967,1.52587890625,-3.692626953125,0.9765625
0.6699999,9.074024200439453,-2.6455929279327393,3.090914487838745,2.8228759765625,-4.058837890625,1.373291015625
0.6899999,9.035717010498047,-2.693476915359497,3.095702886581421,6.591796875,-4.608154296875,2.685546875
0.7099999,8.973467826843262,-2.7772738933563232,3.1028854846954346,8.1024169921875,-4.8980712890625,2.9449462890625
0.7299998999999999,8.810662269592285,-2.96162748336792,3.112462282180786,7.2784423828125,-3.4027099609375,0.4730224609375
0.7499998999999999,8.734047889709473,-3.0406360626220703,3.112462282180786,8.941650390625,-2.7313232421875,0.9765625
0.7699999,8.678980827331543,-3.098097085952759,3.1028854846954346,9.7503662109375,-2.349853515625,2.2735595703125
0.7899999,8.645462036132812,-3.1268274784088135,3.069366693496704,8.056640625,-1.6937255859375,2.6397705078125
0.8099999,8.647856712341309,-3.1220390796661377,3.0406360626220703,3.5552978515625,-0.9918212890625,2.593994140625
0.8299999,8.674192428588867,-3.1052796840667725,3.0095114707946777,0.18310546875,-0.274658203125,1.9683837890625
0.8499998999999999,8.719682693481445,-3.0885202884674072,3.0190882682800293,0.4730224609375,0.42724609375,1.64794921875
0.8699998999999999,8.774748802185059,-3.0861260890960693,3.0526070594787598,3.11279296875,1.373291015625,1.739501953125
0.8899999,8.827422142028809,-3.0813376903533936,3.117250680923462,6.1187744140625,1.9378662109375,1.6632080078125
0.9099999,8.87291145324707,-3.066972494125366,3.1890766620635986,8.575439453125,1.434326171875,1.4495849609375
0.9299999,8.89685344696045,-3.028665065765381,3.2345664501190186,9.2620849609375,0.274658203125,1.708984375
0.9499999,8.901641845703125,-2.985569477081299,3.2561142444610596,7.2174072265625,-1.3580322265625,1.9073486328125
0.9699998999999999,8.884882926940918,-2.9520506858825684,3.2369606494903564,3.7689208984375,-2.899169921875,1.9378662109375
0.9899998999999999,8.856152534484863,-2.9520506858825684,3.1866824626922607,1.3275146484375,-3.90625,1.9989013671875
1.0099999,8.825027465820312,-2.978386878967285,3.134010076522827,0.3814697265625,-3.8909912109375,3.143310546875
1.0299999,8.786720275878906,-3.0334534645080566,3.0573954582214355,0.91552734375,-2.899169921875,4.2572021484375
1.0499999,8.755595207214355,-3.098097085952759,2.9879636764526367,2.2125244140625,-1.861572265625,5.3863525390625
1.0699999,8.719682693481445,-3.1531636714935303,2.9161376953125,2.3040771484375,-0.2899169921875,6.195068359375
1.0899999,8.686163902282715,-3.1938650608062744,2.8586769104003906,0.732421875,2.01416015625,6.195068359375
1.1099999,8.662221908569336,-3.2297780513763428,2.8347349166870117,-1.03759765625,4.2572021484375,5.5999755859375
1.1299999,8.655038833618164,-3.265691041946411,2.853888511657715,-1.1138916015625,5.8746337890625,5.126953125
1.1499999,8.669404029846191,-3.3063924312591553,2.911349296569824,-0.244140625,6.6986083984375,4.425048828125
1.1699998999999999,8.695740699768066,-3.3470940589904785,2.985569477081299,1.251220703125,6.7138671875,3.631591796875
1.1899998999999999,8.729259490966797,-3.375824451446533,3.050212860107422,1.5106201171875,5.615234375,2.8839111328125
1.2099999,8.767566680908203,-3.375824451446533,3.0861260890960693,-0.7781982421875,3.96728515625,2.0904541015625
1.2299999,8.803479194641113,-3.354276657104492,3.0861260890960693,-4.8370361328125,2.8076171875,1.129150390625
1.2499999,8.83699893951416,-3.315969467163086,3.0621838569641113,-7.3089599609375,2.410888671875,0.2899169921875
1.2699999,8.863334655761719,-3.2824504375457764,3.026270866394043,-6.8817138671875,2.44140625,0.152587890625
1.2899999,8.875306129455566,-3.265691041946411,2.9975404739379883,-4.9591064453125,3.021240234375,0.2899169921875
1.3099999,8.87051773071289,-3.2609026432037354,2.978386878967285,-3.2958984375,3.9825439453125,0.244140625
1.3299999,8.846575736999512,-3.2609026432037354,2.9735984802246094,-2.44140625,4.791259765625,0.1983642578125
1.3499999,8.810662269592285,-3.2585084438323975,2.978386878967285,-2.44140625,5.4931640625,-0.06103515625
1.3699999,8.769960403442383,-3.248931646347046,2.9903578758239746,-2.899169921875,6.2103271484375,-0.2593994140625
1.3899999,8.722076416015625,-3.24414324760437,3.00711727142334,-3.5858154296875,7.2021484375,0.2899169921875
1.4099999,8.664615631103516,-3.251325845718384,3.0119056701660156,-4.1351318359375,7.659912109375,1.4190673828125
1.4299998999999999,8.597578048706055,-3.2752678394317627,2.999934673309326,-6.4697265625,7.6751708984375,2.593994140625
1.4499999,8.51138687133789,-3.332728862762451,2.959233283996582,-11.16943359375,8.1329345703125,3.3721923828125
1.4699999,8.413225173950195,-3.4332852363586426,2.8850131034851074,-14.7705078125,9.4146728515625,4.547119140625
1.4899999,8.276755332946777,-3.576937437057495,2.762908697128296,-17.4560546875,11.4593505859375,7.2479248046875
1.5099999,8.075642585754395,-3.773261785507202,2.583343744277954,-22.9644775390625,14.8468017578125,11.2457275390625
1.5299999,7.745242595672607,-4.048594951629639,2.319981336593628,-29.8614501953125,20.0653076171875,16.4642333984375
1.5499999,7.232883453369141,-4.393360137939453,1.9177556037902832,-33.3251953125,26.9927978515625,26.2603759765625
1.5699999,6.457161903381348,-4.759673118591309,1.357512354850769,-36.8194580078125,39.00146484375,42.41943359375
1.5899999,5.389348030090332,-5.0685248374938965,0.6224924325942993,-54.290771484375,59.0667724609375,60.48583984375
1.6099999,4.017470359802246,-5.286397457122803,-0.21547815203666687,-88.623046875,86.9293212890625,77.7130126953125
1.6299999,2.3582887649536133,-5.403713226318359,-1.0031704902648926,-120.8343505859375,119.2474365234375,98.968505859375
1.6499999,0.4596867263317108,-5.458779811859131,-1.6136919260025024,-132.7667236328125,152.64892578125,127.105712890625
1.6699999,-1.601720929145813,-5.403713226318359,-1.9584569931030273,-131.134033203125,187.6678466796875,160.5987548828125
1.6899998999999999,-3.6798880100250244,-5.195417881011963,-1.9919757843017578,-136.566162109375,221.5423583984375,192.0623779296875
1.7099999,-5.494692802429199,-4.850652694702148,-1.5921441316604614,-158.69140625,253.6773681640625,219.757080078125
1.7299999,-6.8378400802612305,-4.606443881988525,-0.5722141861915588,-183.41064453125,287.0330810546875,252.2125244140625
1.7499999,-7.527369976043701,-4.802768707275391,1.3311761617660522,-183.441162109375,314.422607421875,296.2188720703125
1.7699999,-7.501033782958984,-5.686229228973389,4.443638324737549,-136.383056640625,327.117919921875,336.7767333984375
1.7899999,-6.677428722381592,-7.326257228851318,8.99740982055664,-59.4024658203125,319.427490234375,352.630615234375
1.8099999,-4.702212333679199,-9.694122314453125,15.3947172164917,12.8936767578125,294.281005859375,350.7232666015625
1.8299999,-1.359906554222107,-12.27507209777832,23.070528030395508,125.396728515625,243.438720703125,333.8165283203125
1.8499999,3.56017804145813,-14.496891021728516,30.75830841064453,304.50439453125,127.38037109375,276.42822265625
1.8699999,9.588777542114258,-15.43062973022461,36.99041748046875,385.2691650390625,-60.089111328125,206.7718505859375
1.8899999,15.483302116394043,-15.195998191833496,40.64157485961914,269.7296142578125,-280.0140380859375,155.7769775390625
1.9099999,19.546262741088867,-14.554351806640625,42.2313232421875,116.8975830078125,-480.4534912109375,97.869873046875
1.9299998999999999,19.979612350463867,-15.167267799377441,43.55771255493164,114.5477294921875,-500,-4.669189453125
1.9499999,15.832856178283691,-17.879898071289062,45.3461799621582,284.24072265625,-500,-117.85888671875
1.9699999,7.580042362213135,-21.830331802368164,47.307029724121094,417.510986328125,-500,-169.4793701171875
1.9899999,-3.1028854846954346,-25.361778259277344,47.7044677734375,315.8416748046875,-500,-174.5147705078125
2.0099999,-14.377181053161621,-26.774356842041016,44.73086929321289,87.799072265625,-500,-174.25537109375
2.0299999,-24.432828903198242,-24.942792892456055,37.131675720214844,-43.792724609375,-500,-159.5611572265625
2.0499999,-31.450233459472656,-20.585346221923828,25.99624252319336,-41.961669921875,-390.0909423828125,-101.3946533203125
2.0699999,-35.204341888427734,-14.116212844848633,13.769054412841797,-2.197265625,-250.030517578125,25.4974365234375
2.0899999,-35.07505416870117,-7.510610580444336,2.741360902786255,-27.557373046875,-106.0028076171875,109.06982421875
2.1099999,-31.39995574951172,-1.9273324012756348,-4.580107688903809,-95.27587890625,19.2413330078125,131.5460205078125
2.1299999,-25.086444854736328,1.3048399686813354,-7.613561630249023,-129.6539306640625,88.3636474609375,149.0478515625
2.1499999,-16.77138328552246,1.699883222579956,-7.204153060913086,-98.20556640625,126.0528564453125,149.8870849609375
2.1699999,-7.094019412994385,0.1364694982767105,-4.587290287017822,-38.8031005859375,151.6265869140625,150.1007080078125
2.1899999,2.7533318996429443,-2.432508945465088,-0.8523358106613159,-19.622802734375,158.416748046875,134.2926025390625
2.2099999,11.305420875549316,-5.044582843780518,2.896984100341797,-32.77587890625,145.99609375,92.22412109375
2.2299999,17.513586044311523,-7.137115478515625,6.141127586364746,-49.4232177734375,121.3226318359375,49.5758056640625
2.2499999,20.745758056640625,-8.549694061279297,8.267178535461426,-44.8150634765625,82.6416015625,19.9432373046875
2.2699999,21.279664993286133,-9.100360870361328,9.253589630126953,-34.1339111328125,35.430908203125,-3.936767578125
2.2899999,20.022708892822266,-8.87291145324707,9.121908187866211,-53.0242919921875,-4.5013427734375,-33.63037109375
2.3099999,17.73624610900879,-7.872135162353516,8.233659744262695,-84.8846435546875,-27.801513671875,-62.5
2.3299999,14.9182710647583,-6.411672115325928,6.9695210456848145,-107.208251953125,-34.8358154296875,-78.887939453125
2.3499999,11.949460983276367,-4.8482584953308105,5.56173038482666,-111.8621826171875,-34.6221923828125,-84.4879150390625
2.3699999,9.160215377807617,-3.3901896476745605,4.266467571258545,-101.6082763671875,-30.21240234375,-80.3070068359375
2.3899999,6.775590896606445,-2.1739351749420166,3.155557870864868,-85.0982666015625,-22.3846435546875,-70.1904296875
2.4099999,5.006275653839111,-1.2641384601593018,2.2912509441375732,-72.418212890625,-14.83154296875,-56.5948486328125
2.4299999,3.9384617805480957,-0.6991068720817566,1.7094600200653076,-63.2171630859375,-9.2315673828125,-41.80908203125
2.4499999,3.5482068061828613,-0.47884035110473633,1.3096283674240112,-56.8695068359375,-2.288818359375,-27.679443359375
2.4699999,3.7636849880218506,-0.5386953949928284,1.1037269830703735,-58.197021484375,7.568359375,-16.6015625
2.4899999,4.4723687171936035,-0.8475474119186401,1.036689281463623,-66.4520263671875,16.7083740234375,-9.979248046875
2.5099999,5.518634796142578,-1.3503297567367554,1.1228805780410767,-68.1915283203125,22.2320556640625,-6.28662109375
2.5299999,6.7708024978637695,-2.0231003761291504,1.357512354850769,-49.560546875,27.801513671875,-2.410888671875
2.5499999,8.042123794555664,-2.82515811920166,1.7142484188079834,-17.6239013671875,32.3638916015625,-0.9765625
2.5699999,9.174580574035645,-3.555389642715454,2.169146776199341,9.124755859375,32.9437255859375,0.518798828125
2.5899999,10.041281700134277,-4.082113742828369,2.626439332962036,15.289306640625,32.1197509765625,-1.0223388671875
2.6099999,10.584765434265137,-4.393360137939453,3.028665065765381,7.0343017578125,29.205322265625,-10.284423828125
2.6299999,10.828974723815918,-4.474762916564941,3.315969467163086,2.1820068359375,20.2178955078125,-18.7835693359375
2.6499999,10.800244331359863,-4.412513732910156,3.5051112174987793,-1.007080078125,6.683349609375,-22.5372314453125
2.6699999,10.556035041809082,-4.2544965744018555,3.5625722408294678,-9.246826171875,-5.5999755859375,-23.1781005859375
2.6899999,10.134655952453613,-3.9887399673461914,3.576937437057495,-16.3726806640625,-13.7939453125,-21.66748046875
2.7099999,9.610325813293457,-3.6583402156829834,3.5649664402008057,-16.448974609375,-17.974853515625,-19.317626953125
2.7299999,9.050082206726074,-3.313575267791748,3.552995204925537,-10.467529296875,-18.5699462890625,-17.27294921875
2.7499999,8.53293514251709,-2.9927520751953125,3.5051112174987793,-4.425048828125,-16.876220703125,-14.2669677734375
2.7699999,8.118738174438477,-2.760514497756958,3.3949780464172363,-1.46484375,-14.0380859375,-10.80322265625
2.7899999,7.850587368011475,-2.63362193107605,3.1938650608062744,1.800537109375,-10.7879638671875,-6.9122314453125
2.8099999,7.740454196929932,-2.6431987285614014,2.9544448852539062,4.8675537109375,-7.9193115234375,-3.60107421875
2.8299999,7.812280178070068,-2.7509377002716064,2.7461493015289307,5.0811767578125,-5.7373046875,-1.708984375
2.8499999,8.001421928405762,-2.8993782997131348,2.612074136734009,3.997802734375,-3.7841796875,-1.953125
2.8699999,8.245630264282227,-3.045424461364746,2.5546131134033203,2.25830078125,-1.0833740234375,-2.899169921875
2.8899999,8.520963668823242,-3.1244332790374756,2.631227731704712,0.518798828125,2.105712890625,-2.7618408203125
2.9099999,8.7484130859375,-3.1675288677215576,2.7557260990142822,5.2947998046875,5.2642822265625,-3.5552978515625
2.9299999,8.908824920654297,-3.1747114658355713,2.9065608978271484,15.6707763671875,7.232666015625,-3.8909912109375
2.9499999,9.01895809173584,-3.1651346683502197,3.023876667022705,20.3857421875,6.1798095703125,-2.777099609375
2.9699999,9.069235801696777,-3.155557870864868,3.07415509223938,16.54052734375,2.6397705078125,-2.3193359375
2.9899999,9.078812599182129,-3.1675288677215576,3.023876667022705,8.4991455078125,-0.640869140625,-2.2735595703125
3.0099999,9.062053680419922,-3.2369606494903564,2.918531894683838,-0.030517578125,-3.47900390625,-1.52587890625
3.0299999,9.026140213012695,-3.375824451446533,2.806004285812378,-3.021240234375,-5.6610107421875,1.2359619140625
3.0499999,8.978256225585938,-3.5434184074401855,2.7054479122161865,0.8697509765625,-5.950927734375,4.8980712890625
3.0699999,8.920795440673828,-3.670311212539673,2.6431987285614014,5.9967041015625,-5.9661865234375,7.38525390625
3.0899999,8.87051773071289,-3.6942532062530518,2.6168625354766846,3.753662109375,-7.0648193359375,8.544921875
3.1099999,8.832210540771484,-3.6320040225982666,2.63362193107605,-4.2572021484375,-7.8277587890625,7.1868896484375
3.1299999,8.796297073364258,-3.529053211212158,2.6815059185028076,-7.0648193359375,-6.7291259765625,5.6304931640625
3.1499999,8.774748802185059,-3.4380736351013184,2.765302896499634,-1.8463134765625,-5.0506591796875,6.2103271484375
3.1699999,8.7484130859375,-3.3949780464172363,2.87064790725708,4.6234130859375,-4.0130615234375,6.011962890625
3.1899999,8.69334602355957,-3.3734302520751953,2.9448680877685547,4.791259765625,-3.35693359375,4.7454833984375
3.2099999,8.640673637390137,-3.3925838470458984,2.980781078338623,0.9307861328125,-3.753662109375,3.0670166015625
3.2299999,8.60236644744873,-3.4380736351013184,2.9664158821105957,-2.4566650390625,-4.57763671875,3.0059814453125
3.2499999,8.576030731201172,-3.529053211212158,2.892195701599121,-3.5247802734375,-4.3487548828125,3.90625
3.2699999,8.561665534973145,-3.6391866207122803,2.741360902786255,-2.44140625,-3.265380859375,5.3863525390625
3.2899999,8.542511940002441,-3.780444383621216,2.5282769203186035,-2.655029296875,-2.655029296875,6.9580078125
3.3099999,8.497021675109863,-3.952826976776123,2.255337953567505,-7.049560546875,-1.5106201171875,9.6282958984375
3.3299999000000002,8.432378768920898,-4.189853191375732,1.965639591217041,-16.6778564453125,2.471923828125,13.4124755859375
3.3499999,8.269572257995605,-4.5609540939331055,1.678335428237915,-30.94482421875,8.72802734375,17.303466796875
3.3699999,7.95832633972168,-5.080495834350586,1.4101848602294922,-46.2646484375,16.7999267578125,23.0255126953125
3.3899999,7.371747016906738,-5.748478412628174,1.1085153818130493,-61.3861083984375,26.763916015625,29.84619140625
3.4099999,6.406883716583252,-6.485892295837402,0.7374141216278076,-78.338623046875,40.313720703125,36.346435546875
3.4299999,4.953603267669678,-7.113173484802246,0.21308395266532898,-102.9510498046875,61.8133544921875,47.9583740234375
3.4499999,2.9879636764526367,-7.46033239364624,-0.4620809257030487,-136.0015869140625,93.7957763671875,68.450927734375
3.4699999,0.5602431893348694,-7.438784599304199,-1.139639973640442,-165.0848388671875,133.6517333984375,98.6328125
3.4899999,-2.1116859912872314,-6.97430944442749,-1.678335428237915,-179.5501708984375,182.12890625,141.5863037109375
3.5099999,-4.7405195236206055,-6.169857978820801,-1.8962076902389526,-186.03515625,235.9466552734375,190.3839111328125
3.5299999,-6.9695210456848145,-5.2480902671813965,-1.5969325304031372,-181.9000244140625,283.599853515625,234.7564697265625
3.5499999,-8.504204750061035,-4.304774761199951,-0.6512228846549988,-166.534423828125,321.075439453125,276.8402099609375
3.5699999,-9.229647636413574,-3.670311212539673,1.170764684677124,-150.87890625,350.494384765625,311.7828369140625
3.5899999,-9.05487060546875,-3.4141316413879395,4.127603530883789,-131.2713623046875,367.3553466796875,341.827392578125
3.6099999,-7.575253963470459,-3.7828385829925537,9.198522567749023,-90.911865234375,366.39404296875,363.8763427734375
3.6299999,-4.3622355461120605,-5.020640850067139,16.51520347595215,7.7667236328125,349.7161865234375,368.682861328125
3.6499999,0.5219359993934631,-7.173028469085693,25.536556243896484,177.42919921875,282.958984375,342.7276611328125
3.6699999,7.137115478515625,-10.232817649841309,34.591426849365234,358.5205078125,127.2735595703125,273.162841796875
3.6899999,14.09466552734375,-13.113042831420898,41.69981002807617,435.6536865234375,-94.635009765625,204.681396484375
3.7099999,19.754558563232422,-15.62216567993164,45.901634216308594,319.15283203125,-333.770751953125,146.4996337890625
3.7299999,22.524648666381836,-17.98524284362793,47.75714111328125,110.9161376953125,-500,51.605224609375
3.7499999,21.08094596862793,-21.617246627807617,48.8752326965332,56.976318359375,-500,-106.109619140625
3.7699999,14.937424659729004,-26.71929168701172,49.622222900390625,259.8419189453125,-500,-238.6627197265625
3.7899999,4.948814868927002,-32.300174713134766,49.68926239013672,435.028076171875,-500,-275.32958984375
3.8099999,-7.376535415649414,-35.97766876220703,47.338157653808594,339.84375,-500,-242.828369140625
3.8299999000000002,-20.870256423950195,-35.54910659790039,40.97676086425781,104.034423828125,-500,-187.835693359375
3.8499999,-32.32172393798828,-30.648176193237305,29.862876892089844,-6.2713623046875,-470.4437255859375,-119.1253662109375
3.8699999,-39.73177719116211,-21.918916702270508,16.350004196166992,24.383544921875,-302.4444580078125,25.7110595703125
3.8899999,-42.12358474731445,-11.72201156616211,2.8826189041137695,5.3253173828125,-121.429443359375,150.5126953125
3.9099999,-38.75254821777344,-2.7437551021575928,-7.338228225708008,-122.039794921875,58.89892578125,174.37744140625
3.9299999,-31.17250633239746,3.117250680923462,-11.887211799621582,-197.7386474609375,149.688720703125,192.535400390625
3.9499999,-20.906169891357422,4.311957359313965,-11.216835021972656,-149.4293212890625,179.7332763671875,191.3299560546875
3.9699999,-9.172186851501465,1.8555063009262085,-6.67982292175293,-43.0908203125,188.4613037109375,169.403076171875
3.9899999,2.3032219409942627,-2.4612393379211426,-0.19871874153614044,17.39501953125,174.31640625,118.5760498046875
4.0099999,12.018892288208008,-6.643909931182861,6.086060523986816,-0.6561279296875,144.22607421875,54.534912109375
4.029999900000001,18.77772331237793,-9.643844604492188,10.78348445892334,-48.88916015625,99.151611328125,-8.9263916015625
4.0499999,22.043415069580078,-11.042057991027832,13.350069046020508,-75.1495361328125,51.1474609375,-52.398681640625
4.069999900000001,22.555774688720703,-11.061211585998535,13.584700584411621,-70.0836181640625,4.7454833984375,-71.4874267578125
4.0899999000000005,21.047426223754883,-9.849745750427246,12.155362129211426,-74.70703125,-41.8701171875,-76.7669677734375
4.1099999,18.47844886779785,-7.9176249504089355,9.718064308166504,-112.5030517578125,-76.2786865234375,-90.9423828125
4.1299999000000005,15.435418128967285,-5.74129581451416,7.103596210479736,-154.632568359375,-89.996337890625,-106.9183349609375
4.1499999,12.234370231628418,-3.7828385829925537,4.884171485900879,-166.290283203125,-89.8895263671875,-110.65673828125
4.1699999000000005,9.172186851501465,-2.229001760482788,3.205836057662964,-145.3094482421875,-82.916259765625,-100.5096435546875
4.1899999,6.433219909667969,-1.139639973640442,2.054224967956543,-127.6092529296875,-68.267822265625,-86.1358642578125
4.209999900000001,4.20421838760376,-0.35434186458587646,1.3718775510787964,-127.3193359375,-46.142578125,-71.441650390625
4.2299999,2.6240451335906982,0.08140286058187485,1.0127472877502441,-116.668701171875,-21.6064453125,-56.793212890625
4.249999900000001,1.7860745191574097,0.12449848651885986,0.9193734526634216,-77.5146484375,3.021240234375,-37.17041015625
4.2699999,1.7070658206939697,-0.1364694982767105,0.9600749015808105,-33.14208984375,26.092529296875,-9.796142578125
4.289999900000001,2.3965959548950195,-0.6536170840263367,0.9816226959228516,-12.4969482421875,46.5545654296875,9.7198486328125
4.3099999,3.7205893993377686,-1.2665326595306396,0.912190854549408,-16.4337158203125,57.9833984375,15.9912109375
4.329999900000001,5.535394191741943,-1.9823989868164062,0.7661445140838623,-28.7017822265625,58.59375,15.6707763671875
4.3499999,7.582436561584473,-2.82515811920166,0.6440402865409851,-33.3251953125,51.910400390625,13.885498046875
4.369999900000001,9.610325813293457,-3.8163576126098633,0.629675030708313,-26.4129638671875,43.8385009765625,10.9405517578125
4.3899999,11.36048698425293,-4.7836151123046875,0.751779317855835,-15.411376953125,36.0260009765625,4.7760009765625
4.409999900000001,12.569559097290039,-5.590460777282715,0.9648633003234863,-10.284423828125,25.7568359375,-5.462646484375
4.4299999,13.08910083770752,-6.0405707359313965,1.2186486721038818,-13.36669921875,13.7939453125,-14.9383544921875
4.449999900000001,12.85207462310791,-6.071695327758789,1.4867992401123047,-17.08984375,2.99072265625,-21.881103515625
4.4699999,11.925518989562988,-5.698200225830078,1.7501614093780518,-11.0931396484375,-4.08935546875,-25.604248046875
4.489999900000001,10.527304649353027,-5.013458251953125,1.9800047874450684,-1.64794921875,-7.781982421875,-24.6429443359375
4.5099999,8.971074104309082,-4.144362926483154,2.1475989818573,1.0833740234375,-10.8184814453125,-20.4010009765625
4.529999900000001,7.553706169128418,-3.2609026432037354,2.229001760482788,-0.3509521484375,-12.603759765625,-15.2740478515625
4.5499999,6.555324077606201,-2.5474305152893066,2.2457611560821533,3.0975341796875,-10.986328125,-9.70458984375
4.569999900000001,6.114790916442871,-2.1116859912872314,2.2170307636260986,12.420654296875,-5.43212890625,-0.5645751953125
4.5899999000000005,6.179434776306152,-1.9728221893310547,2.1571757793426514,18.280029296875,2.6702880859375,10.5438232421875
4.609999900000001,6.66785192489624,-2.0446481704711914,2.1045033931732178,14.6484375,9.674072265625,16.8609619140625
4.6299999000000005,7.402871608734131,-2.27209734916687,2.1092917919158936,9.9334716796875,13.427734375,15.80810546875
4.6499999,8.276755332946777,-2.540247917175293,2.2433669567108154,11.6729736328125,14.5416259765625,14.3585205078125
4.6699999000000005,9.136273384094238,-2.827552318572998,2.5282769203186035,17.5933837890625,14.1143798828125,14.34326171875
4.6899999,9.859322547912598,-3.0885202884674072,2.9664158821105957,18.7835693359375,12.0391845703125,12.4664306640625
4.709999900000001,10.359710693359375,-3.2561142444610596,3.4548330307006836,13.9617919921875,7.01904296875,7.9803466796875
4.7299999,10.615890502929688,-3.3470940589904785,3.9169139862060547,6.8817138671875,-0.9002685546875,2.3040771484375
4.749999900000001,10.647014617919922,-3.3710360527038574,4.256890773773193,0.762939453125,-9.307861328125,-1.2359619140625
4.7699999,10.47942066192627,-3.375824451446533,4.393360137939453,-4.180908203125,-15.2740478515625,-2.6702880859375
4.789999900000001,10.15141487121582,-3.4165258407592773,4.2760443687438965,-5.5084228515625,-20.538330078125,-3.3416748046875
4.8099999,9.713275909423828,-3.450044631958008,3.955221176147461,-1.6021728515625,-25.421142578125,-2.4871826171875
4.829999900000001,9.241618156433105,-3.4380736351013184,3.5051112174987793,-2.5634765625,-26.397705078125,-2.3193359375
4.8499999,8.786720275878906,-3.3854012489318848,3.043030261993408,-9.429931640625,-23.1781005859375,-5.7830810546875
4.869999900000001,8.38688850402832,-3.2800562381744385,2.6575639247894287,-13.8702392578125,-19.1497802734375,-7.598876953125
4.8899999,8.054094314575195,-3.177105665206909,2.403778553009033,-13.8702392578125,-16.41845703125,-6.6986083984375
4.909999900000001,7.805097579956055,-3.157952070236206,2.300827741622925,-11.1236572265625,-12.664794921875,-4.9285888671875
4.9299999,7.666234016418457,-3.227383852005005,2.3127987384796143,-7.843017578125,-5.3253173828125,-1.7242431640625
4.949999900000001,7.6351094245910645,-3.3686418533325195,2.3702597618103027,-5.7373046875,3.8604736328125,4.4708251953125
4.9699999,7.738059997558594,-3.5410242080688477,2.3798365592956543,-2.2430419921875,9.246826171875,10.528564453125
4.989999900000001,7.970297336578369,-3.6846764087677,2.27209734916687,4.791259765625,8.6517333984375,12.5885009765625
5.0099999,8.346187591552734,-3.7397429943084717,2.056619167327881,10.6353759765625,5.6915283203125,12.481689453125
5.029999900000001,8.793902397155762,-3.706224203109741,1.7860745191574097,10.5133056640625,3.7689208984375,10.3912353515625
5.0499999,9.224859237670898,-3.6296098232269287,1.5610195398330688,3.5552978515625,3.9825439453125,6.561279296875
5.069999900000001,9.516951560974121,-3.584120035171509,1.45806884765625,-2.410888671875,4.7607421875,3.41796875
5.0899999000000005,9.57441234588623,-3.643975019454956,1.479616641998291,-2.3956298828125,5.828857421875,3.72314453125
5.109999900000001,9.390059471130371,-3.84269380569458,1.5969325304031372,-3.4027099609375,7.293701171875,6.8511962890625
5.1299999000000005,8.983044624328613,-4.19224739074707,1.7142484188079834,-11.7034912109375,9.063720703125,8.4381103515625
5.1499999,8.398859977722168,-4.675876140594482,1.7286136150360107,-23.5137939453125,13.3056640625,10.1318359375
5.1699999000000005,7.613561630249023,-5.228936672210693,1.5466543436050415,-33.5845947265625,22.9339599609375,14.6026611328125
5.1899999,6.574477672576904,-5.827486991882324,1.1204863786697388,-46.6766357421875,39.154052734375,23.86474609375
5.209999900000001,5.195417881011963,-6.378153324127197,0.45010992884635925,-66.5283203125,61.8133544921875,41.3818359375
5.2299999,3.2968156337738037,-6.821080684661865,-0.42856210470199585,-89.9810791015625,89.7369384765625,64.7430419921875
5.249999900000001,0.9696516990661621,-7.122750282287598,-1.359906554222107,-116.5008544921875,122.100830078125,92.071533203125
5.2699999,-1.6519991159439087,-7.249642848968506,-2.166752576828003,-141.78466796875,161.376953125,125.762939453125
5.289999900000001,-4.261679172515869,-7.182605266571045,-2.674323320388794,-160.003662109375,208.892822265625,164.97802734375
5.3099999,-6.452373504638672,-6.897695064544678,-2.695871114730835,-166.3818359375,257.7056884765625,207.45849609375
5.329999900000001,-8.044517517089844,-6.45476770401001,-2.1308395862579346,-161.31591796875,302.2613525390625,252.0751953125
5.3499999,-9.035717010498047,-5.91128396987915,-0.8786720037460327,-153.6407470703125,337.799072265625,300.689697265625
5.369999900000001,-9.579200744628906,-5.449203014373779,1.2689268589019775,-156.67724609375,358.33740234375,354.888916015625
5.3899999,-9.2033109664917,-5.228936672210693,5.461174011230469,-163.2537841796875,359.0240478515625,411.285400390625
5.409999900000001,-7.189787864685059,-5.69580602645874,12.768278121948242,-113.70849609375,349.1363525390625,461.97509765625
5.4299999,-3.711012601852417,-7.196970462799072,22.618022918701172,59.844970703125,309.5245361328125,466.6595458984375
5.449999900000001,1.8076223134994507,-10.113107681274414,33.399112701416016,310.150146484375,178.64990234375,390.5029296875
5.4699999,8.276755332946777,-13.15853214263916,42.37736892700195,480.621337890625,-37.811279296875,312.652587890625
5.489999900000001,14.341268539428711,-15.91425895690918,47.52490234375,398.5137939453125,-278.411865234375,268.6614990234375
5.5099999,18.59815788269043,-17.887081146240234,49.433082580566406,154.72412109375,-482.0404052734375,182.67822265625
5.529999900000001,19.156007766723633,-20.11847686767578,49.959808349609375,28.13720703125,-500,17.88330078125
5.5499999,14.683638572692871,-23.75048065185547,50.61342239379883,146.7437744140625,-500,-150.360107421875
5.569999900000001,5.506663799285889,-28.292282104492188,51.48491287231445,339.202880859375,-500,-222.0306396484375
5.5899999000000005,-6.806715488433838,-32.32172393798828,51.202396392822266,333.6639404296875,-500,-223.7701416015625
5.609999900000001,-20.10650634765625,-33.59783172607422,47.91276550292969,134.9945068359375,-500,-207.9315185546875
5.6299999000000005,-31.65373992919922,-31.024065017700195,40.117244720458984,-4.0283203125,-500,-179.0771484375
5.6499999,-39.30321502685547,-24.988283157348633,28.450298309326172,31.7840576171875,-449.066162109375,-82.5653076171875
5.6699999000000005,-42.28399658203125,-16.033967971801758,14.860810279846191,84.2437744140625,-322.8607177734375,72.784423828125
5.6899999,-40.34947967529297,-6.7923502922058105,2.011129379272461,-16.326904296875,-172.0123291015625,132.8277587890625
5.709999900000001,-34.39031219482422,1.1994950771331787,-7.264008045196533,-198.3795166015625,-44.0673828125,127.2125244140625
5.7299999,-25.869348526000977,5.6910176277160645,-11.69806957244873,-249.32861328125,39.61181640625,125.4425048828125
5.749999900000001,-15.993267059326172,6.078877925872803,-11.674127578735352,-136.0931396484375,106.2774658203125,128.082275390625
5.7699999,-5.729324817657471,3.5482068061828613,-8.497021675109863,11.1236572265625,158.9508056640625,133.4075927734375
5.789999900000001,3.914519786834717,-0.17238251864910126,-3.780444383621216,55.023193359375,182.342529296875,105.926513671875
5.8099999,11.671732902526855,-3.646369218826294,1.01753568649292,1.3427734375,165.9698486328125,47.7294921875
5.829999900000001,16.94855308532715,-6.268020153045654,5.0876784324646,-74.5086669921875,126.4801025390625,-0.2288818359375
5.8499999,19.462465286254883,-7.967903137207031,8.125920295715332,-121.795654296875,85.2508544921875,-27.587890625
5.869999900000001,19.591753005981445,-8.851364135742188,9.840168952941895,-115.90576171875,46.875,-47.9888916015625
5.8899999,18.253393173217773,-8.760383605957031,10.177751541137695,-105.6976318359375,8.0413818359375,-61.2945556640625
5.909999900000001,16.057910919189453,-7.805097579956055,9.296685218811035,-148.8037109375,-26.763916015625,-70.4193115234375
5.9299999,13.522451400756836,-6.313509941101074,7.522581577301025,-209.8541259765625,-47.637939453125,-82.5958251953125
5.949999900000001,10.967838287353516,-4.824316501617432,5.475539207458496,-229.1717529296875,-46.5545654296875,-89.935302734375
5.9699999,8.635885238647461,-3.60566782951355,3.5218706130981445,-186.126708984375,-31.06689453125,-82.5042724609375
5.989999900000001,6.722918510437012,-2.6647465229034424,1.9632453918457031,-131.40869140625,-10.92529296875,-60.821533203125
6.0099999,5.3797712326049805,-1.8770540952682495,0.8619126081466675,-108.612060546875,7.6141357421875,-37.628173828125
6.029999900000001,4.623203277587891,-1.2521674633026123,0.18914192914962769,-107.0098876953125,25.0396728515625,-19.195556640625
6.0499999,4.398148536682129,-0.9481038451194763,0.028730420395731926,-94.8028564453125,37.689208984375,-0.2899169921875
6.069999900000001,4.711789131164551,-1.0773907899856567,0.2968810200691223,-62.1185302734375,41.839599609375,16.29638671875
6.0899999000000005,5.473145008087158,-1.6496049165725708,0.9097966551780701,-25.6195068359375,38.14697265625,21.728515625
6.109999900000001,6.615179061889648,-2.4205379486083984,1.5682021379470825,1.1138916015625,29.937744140625,16.815185546875
6.1299999000000005,8.010998725891113,-3.157952070236206,2.078166961669922,-2.410888671875,21.728515625,5.1116943359375
6.149999900000001,9.457097053527832,-3.7636849880218506,2.346317768096924,-31.585693359375,15.9912109375,-12.4969482421875
6.1699999000000005,10.642226219177246,-4.199429988861084,2.2912509441375732,-41.1529541015625,10.955810546875,-29.052734375
6.1899999,11.353304862976074,-4.49870491027832,2.0422539710998535,-26.5960693359375,6.4697265625,-31.1431884765625
6.209999900000001,11.5065336227417,-4.632780075073242,1.7357962131500244,-13.214111328125,2.38037109375,-20.233154296875
6.2299999,11.197681427001953,-4.577713489532471,1.5442601442337036,-8.5601806640625,-1.373291015625,-11.5509033203125
6.249999900000001,10.565611839294434,-4.335899353027344,1.5179238319396973,-7.476806640625,-5.3558349609375,-10.55908203125
6.2699999,9.821015357971191,-3.909731388092041,1.721431016921997,-6.3323974609375,-11.0321044921875,-9.9639892578125
6.289999900000001,9.097966194152832,-3.4332852363586426,2.0638017654418945,-7.904052734375,-14.34326171875,-10.040283203125
6.3099999,8.494627952575684,-2.9951462745666504,2.4133553504943848,-8.8043212890625,-13.153076171875,-10.8489990234375
6.329999900000001,8.044517517089844,-2.6647465229034424,2.6671407222747803,0.5340576171875,-9.9945068359375,-8.7127685546875
6.3499999,7.82185697555542,-2.4588451385498047,2.7700912952423096,13.73291015625,-7.4920654296875,-3.5247802734375
6.369999900000001,7.790732383728027,-2.382230758666992,2.738966703414917,15.1214599609375,-4.3182373046875,-0.5950927734375
6.3899999,7.929595947265625,-2.4205379486083984,2.6360161304473877,4.2266845703125,-0.946044921875,-0.732421875
6.409999900000001,8.157045364379883,-2.5761611461639404,2.492363929748535,-3.41796875,1.0223388671875,-0.030517578125
6.4299999,8.406042098999023,-2.8443117141723633,2.360682964324951,-0.5340576171875,0.9613037109375,3.875732421875
6.449999900000001,8.645462036132812,-3.1316158771514893,2.2673089504241943,4.5166015625,1.2664794921875,8.4991455078125
6.4699999,8.841787338256836,-3.3710360527038574,2.1595699787139893,-0.48828125,1.9683837890625,7.4310302734375
6.489999900000001,9.002198219299316,-3.512293815612793,2.140416383743286,-16.693115234375,1.5716552734375,2.3956298828125
6.5099999,9.107542991638184,-3.6128504276275635,2.2433669567108154,-28.01513671875,0.9613037109375,-1.0223388671875
6.529999900000001,9.153033256530762,-3.7229835987091064,2.4827871322631836,-17.974853515625,0.6103515625,-0.335693359375
6.5499999,9.155426979064941,-3.801992416381836,2.7700912952423096,-1.2359619140625,1.800537109375,3.570556640625
6.569999900000001,9.14585018157959,-3.8331170082092285,2.9688100814819336,8.392333984375,2.1820068359375,5.31005859375
6.5899999000000005,9.119514465332031,-3.7421371936798096,2.9017724990844727,14.46533203125,1.0223388671875,6.2103271484375
6.609999900000001,9.11233139038086,-3.581725835800171,2.5905263423919678,13.824462890625,0.9613037109375,7.7972412109375
6.6299999000000005,9.08838939666748,-3.469198226928711,2.1787235736846924,8.6517333984375,1.4801025390625,6.2103271484375
6.649999900000001,9.045293807983398,-3.445256233215332,1.802833914756775,4.302978515625,1.312255859375,4.2877197265625
6.6699999000000005,8.951920509338379,-3.557783842086792,1.6160861253738403,0.2593994140625,0.7476806640625,3.448486328125
6.6899999,8.844181060791016,-3.7612907886505127,1.6041151285171509,0.823974609375,0.701904296875,2.838134765625
6.709999900000001,8.678980827331543,-3.993528366088867,1.699883222579956,7.1563720703125,1.7242431640625,2.349853515625
6.7299999,8.518569946289062,-4.158728122711182,1.8076223134994507,8.8653564453125,3.7384033203125,2.777099609375
6.749999900000001,8.360552787780762,-4.218583583831787,1.8770540952682495,1.5411376953125,5.2947998046875,3.7994384765625
6.7699999,8.236053466796875,-4.189853191375732,1.8626888990402222,-8.60595703125,5.4473876953125,4.974365234375
6.789999900000001,8.169015884399414,-4.132391929626465,1.7764976024627686,-13.61083984375,4.2724609375,7.6904296875
6.8099999,8.13789176940918,-4.14915132522583,1.6352397203445435,-12.7410888671875,3.4637451171875,12.3443603515625
6.829999900000001,8.121131896972656,-4.280832767486572,1.4891934394836426,-11.3525390625,3.7994384765625,15.899658203125
6.8499999,8.075642585754395,-4.596867084503174,1.3479355573654175,-11.53564453125,4.8675537109375,13.6260986328125
6.869999900000001,7.9631147384643555,-5.03021764755249,1.2258312702178955,-14.007568359375,8.9569091796875,10.1776123046875
6.8899999,7.702147006988525,-5.540182590484619,1.0893617868423462,-25.634765625,17.88330078125,11.8865966796875
6.909999900000001,7.297526836395264,-6.069301128387451,0.849941611289978,-44.49462890625,29.205322265625,16.9525146484375
6.9299999,6.603208065032959,-6.5265936851501465,0.4357447028160095,-64.422607421875,43.1060791015625,25.32958984375
6.949999900000001,5.52821159362793,-6.861782073974609,-0.17238251864910126,-87.7838134765625,63.5528564453125,37.0330810546875
6.9699999,3.9839515686035156,-7.058106422424316,-0.9265560507774353,-114.7003173828125,90.179443359375,54.3365478515625
6.989999900000001,1.9728221893310547,-7.074865818023682,-1.6855180263519287,-136.1541748046875,118.6370849609375,80.047607421875
7.0099999,-0.23942017555236816,-6.830657482147217,-2.2601263523101807,-144.10400390625,148.7884521484375,117.2027587890625
7.029999900000001,-2.319981336593628,-6.313509941101074,-2.4396915435791016,-145.1416015625,186.187744140625,160.3240966796875
7.0499999,-3.9384617805480957,-5.5976433753967285,-2.1140801906585693,-139.6942138671875,226.5167236328125,201.629638671875
7.069999900000001,-4.963180065155029,-4.795586109161377,-1.1659762859344482,-125.701904296875,263.885498046875,244.9951171875
7.0899999000000005,-5.446808815002441,-4.05817174911499,0.3734954595565796,-109.9853515625,294.6014404296875,289.8406982421875
7.109999900000001,-5.566518783569336,-3.4979286193847656,2.537853717803955,-107.84912109375,315.9332275390625,329.7882080078125
7.1299999000000005,-5.370194435119629,-3.287238836288452,5.475539207458496,-121.64306640625,326.7364501953125,360.015869140625
7.149999900000001,-4.754884719848633,-3.8307228088378906,9.569623947143555,-121.9940185546875,325.592041015625,385.8184814453125
7.1699999000000005,-3.5003228187561035,-5.523423194885254,15.301342964172363,-51.7120361328125,309.356689453125,406.67724609375
7.1899999,-1.1779472827911377,-8.506598472595215,22.30198860168457,107.879638671875,259.6435546875,405.2581787109375
7.209999900000001,2.4636335372924805,-12.157755851745605,29.805416107177734,312.896728515625,137.3138427734375,366.27197265625
7.2299999,6.624756336212158,-15.562311172485352,36.39426040649414,425.7659912109375,-53.8787841796875,313.0950927734375
7.249999900000001,10.649409294128418,-17.355567932128906,40.94324493408203,368.65234375,-267.5933837890625,274.3072509765625
7.2699999,12.85207462310791,-17.86074447631836,43.59122848510742,117.5689697265625,-457.7178955078125,192.474365234375
7.289999900000001,12.066776275634766,-18.569427490234375,45.214500427246094,-139.9688720703125,-500,8.8348388671875
7.3099999,7.457938194274902,-21.44486427307129,46.763545989990234,-86.517333984375,-500,-196.9451904296875
7.329999900000001,-0.9720458984375,-26.652254104614258,47.78587341308594,257.415771484375,-500,-286.2548828125
7.3499999,-11.97100830078125,-32.18764877319336,47.19450378417969,483.062744140625,-500,-238.494873046875
7.369999900000001,-23.965959548950195,-34.665645599365234,43.48109817504883,360.3363037109375,-500,-148.9105224609375
7.3899999,-34.69916534423828,-32.02484130859375,35.156455993652344,73.0743408203125,-500,-114.7918701171875
7.409999900000001,-41.67586898803711,-25.09602165222168,23.31952476501465,-67.0623779296875,-471.1456298828125,-96.7559814453125
7.4299999,-44.213722229003906,-15.24867057800293,9.93354320526123,-18.890380859375,-294.00634765625,6.6680908203125
7.449999900000001,-42.0326042175293,-6.3302693367004395,-2.3032219409942627,29.1748046875,-116.851806640625,85.26611328125
7.4699999,-35.90105438232422,0.5051765441894531,-10.915165901184082,-25.8331298828125,36.9720458984375,92.4072265625
7.489999900000001,-27.09039306640625,3.931279182434082,-14.403517723083496,-120.4833984375,135.3759765625,82.5347900390625
7.5099999,-16.6420955657959,3.818751811981201,-13.204022407531738,-145.0653076171875,195.37353515625,67.718505859375
7.529999900000001,-5.214571475982666,1.3982137441635132,-8.573636054992676,-69.091796875,220.672607421875,68.4356689453125
7.5499999,5.497087001800537,-1.965639591217041,-2.164358377456665,0.18310546875,197.4945068359375,64.88037109375
7.569999900000001,20.185514450073242,-7.161057472229004,9.038111686706543,-92.4224853515625,83.8775634765625,2.7313232421875
7.5899999000000005,22.744916915893555,-8.250418663024902,12.033257484436035,-155.2276611328125,24.8260498046875,-27.7862548828125
7.609999900000001,22.59168815612793,-8.56645393371582,12.99812126159668,-179.168701171875,-28.4881591796875,-52.3223876953125
7.6299999000000005,20.55182647705078,-8.128314971923828,12.327744483947754,-185.577392578125,-71.9451904296875,-71.868896484375
7.649999900000001,17.38669204711914,-7.103596210479736,10.429142951965332,-206.207275390625,-97.412109375,-87.799072265625
7.6699999000000005,13.73074722290039,-5.815515995025635,8.008605003356934,-229.583740234375,-102.8289794921875,-103.363037109375
7.6899999,10.129867553710938,-4.424484729766846,5.578489780426025,-215.3472900390625,-92.8802490234375,-102.0355224609375
7.709999900000001,6.9024834632873535,-3.1890766620635986,3.5194764137268066,-176.361083984375,-72.44873046875,-83.6029052734375
7.7299999,4.228160381317139,-2.1739351749420166,2.051830768585205,-137.9547119140625,-48.187255859375,-63.0950927734375
7.749999900000001,2.3104045391082764,-1.41257905960083,1.2330138683319092,-104.3243408203125,-23.1170654296875,-45.623779296875
7.7699999,1.2425906658172607,-0.8954314589500427,0.9361328482627869,-66.40625,5.0506591796875,-28.106689453125
7.789999900000001,1.0295066833496094,-0.6655880808830261,1.0031704902648926,-38.4979248046875,31.2347412109375,-10.2996826171875
7.8099999,1.6735470294952393,-0.7134721279144287,1.2282254695892334,-28.6865234375,47.8363037109375,2.8533935546875
7.829999900000001,3.1244332790374756,-0.9600749015808105,1.3934253454208374,-26.6571044921875,55.6793212890625,10.711669921875
7.8499999,5.183446884155273,-1.4700398445129395,1.3886369466781616,-27.52685546875,57.2052001953125,8.3465576171875
7.869999900000001,7.580042362213135,-2.2385785579681396,1.2952631711959839,-27.9388427734375,52.1240234375,-0.3662109375
7.8899999,9.923966407775879,-3.2609026432037354,1.137245774269104,-15.5181884765625,43.3349609375,-10.223388671875
7.909999900000001,11.78904914855957,-4.388571739196777,1.070208191871643,6.5155029296875,32.9132080078125,-16.2200927734375
7.9299999,12.880805015563965,-5.382165431976318,1.072602391242981,22.735595703125,21.636962890625,-18.61572265625
7.949999900000001,13.115436553955078,-5.990292549133301,1.161187767982483,21.0723876953125,7.8887939453125,-21.30126953125
7.9699999,12.662932395935059,-6.1315507888793945,1.2737152576446533,6.7901611328125,-7.080078125,-22.857666015625
7.989999900000001,11.781867027282715,-5.834669589996338,1.3718775510787964,2.25830078125,-21.0418701171875,-19.3939208984375
8.0099999,10.754754066467285,-5.264849662780762,1.4963760375976562,8.575439453125,-29.4342041015625,-12.5579833984375
8.0299999,9.801861763000488,-4.594472885131836,1.6759412288665771,14.9383544921875,-29.8614501953125,-6.89697265625
8.049999900000001,8.975862503051758,-3.9480385780334473,1.9129672050476074,19.134521484375,-23.4222412109375,-2.3193359375
8.069999900000001,8.300697326660156,-3.40216064453125,2.1475989818573,21.209716796875,-15.6402587890625,0.7781982421875
8.0899999,7.7428483963012695,-3.026270866394043,2.2816741466522217,18.646240234375,-11.7950439453125,0.67138671875
8.1099999,7.331045627593994,-2.8658595085144043,2.2864625453948975,13.2598876953125,-10.7574462890625,-0.6256103515625
8.129999900000001,7.096413612365723,-2.873042106628418,2.1954829692840576,13.580322265625,-10.2081298828125,0.06103515625
8.149999900000001,7.074865818023682,-3.0142998695373535,2.1092917919158936,18.12744140625,-7.9345703125,1.678466796875
8.1699999,7.295132637023926,-3.2154128551483154,2.0877439975738525,19.317626953125,-4.8980712890625,2.7618408203125
8.1899999,7.6782050132751465,-3.375824451446533,2.1332337856292725,16.0675048828125,-3.082275390625,4.2724609375
8.2099999,8.149862289428711,-3.4572272300720215,2.2194249629974365,12.9547119140625,-3.11279296875,4.94384765625
8.229999900000001,8.671798706054688,-3.4596214294433594,2.346317768096924,8.97216796875,-2.86865234375,2.8839111328125
8.2499999,9.167398452758789,-3.404554843902588,2.540247917175293,2.838134765625,0.091552734375,0.091552734375
8.2699999,9.550470352172852,-3.3518824577331543,2.75812029838562,-1.312255859375,3.84521484375,-1.5411376953125
8.2899999,9.773131370544434,-3.3231520652770996,2.9735984802246094,0.152587890625,2.5787353515625,-2.716064453125
8.309999900000001,9.797073364257812,-3.3255462646484375,3.1459810733795166,0.18310546875,-2.3956298828125,-3.9520263671875
8.3299999,9.694122314453125,-3.337517261505127,3.2178070545196533,-4.6234130859375,-4.8980712890625,-6.0272216796875
8.3499999,9.552865028381348,-3.3518824577331543,3.181894063949585,-9.2620849609375,-4.7760009765625,-7.2784423828125
8.3699999,9.421183586120605,-3.3662476539611816,3.0310592651367188,-7.659912109375,-4.669189453125,-5.401611328125
8.389999900000001,9.30386734008789,-3.375824451446533,2.734178304672241,-0.42724609375,-5.1116943359375,-1.4801025390625
8.4099999,9.191340446472168,-3.383007049560547,2.315192937850952,6.3934326171875,-5.9051513671875,1.0223388671875
8.4299999,9.083600997924805,-3.378218650817871,1.8291701078414917,9.5062255859375,-5.0201416015625,3.2501220703125
8.4499999,8.98543930053711,-3.3662476539611816,1.3886369466781616,7.843017578125,-1.2664794921875,6.1187744140625
8.469999900000001,8.882488250732422,-3.378218650817871,1.1013327836990356,-0.732421875,2.44140625,6.8206787109375
8.4899999,8.743624687194824,-3.4572272300720215,1.0319008827209473,-10.833740234375,4.5623779296875,5.43212890625
8.5099999,8.559270858764648,-3.6343982219696045,1.161187767982483,-14.129638671875,6.5460205078125,3.631591796875
8.5299999,8.317456245422363,-3.8953661918640137,1.3838485479354858,-11.3067626953125,9.8114013671875,4.5623779296875
8.549999900000001,8.037335395812988,-4.218583583831787,1.5466543436050415,-9.735107421875,14.6026611328125,7.659912109375
8.569999900000001,7.687781810760498,-4.572925090789795,1.5203180313110352,-12.176513671875,19.4854736328125,11.962890625
8.5899999,7.2113356590271,-4.934449672698975,1.2042834758758545,-23.4375,24.932861328125,19.073486328125
8.6099999,6.495469093322754,-5.327098846435547,0.5626373887062073,-47.760009765625,32.6080322265625,28.533935546875
8.629999900000001,5.39174222946167,-5.801150798797607,-0.35673606395721436,-84.197998046875,46.1883544921875,39.55078125
8.649999900000001,3.8379054069519043,-6.36378812789917,-1.3910311460494995,-130.218505859375,68.9697265625,55.1910400390625
8.6699999,1.8794482946395874,-6.943184852600098,-2.3942017555236816,-172.9736328125,103.1341552734375,79.3609619140625
8.6899999,-0.3016694188117981,-7.42681360244751,-3.1531636714935303,-197.7996826171875,144.561767578125,117.584228515625
8.709999900000001,-2.454056739807129,-7.5968017578125,-3.5697548389434814,-197.9522705078125,185.97412109375,167.90771484375
8.729999900000001,-4.345476150512695,-7.273584842681885,-3.5266590118408203,-192.8863525390625,225.830078125,222.8240966796875
8.7499999,-5.880159378051758,-6.517016887664795,-2.9328970909118652,-203.91845703125,260.2691650390625,276.30615234375
8.7699999,-7.058106422424316,-5.600037574768066,-1.6424223184585571,-236.602783203125,288.909912109375,336.0137939453125
8.7899999,-7.903259754180908,-4.917690277099609,0.5578489899635315,-258.3465576171875,301.1016845703125,404.0679931640625
8.809999900000001,-8.362946510314941,-5.07570743560791,4.089296340942383,-240.4937744140625,291.9921875,466.8731689453125
8.8299999,-7.94635534286499,-6.6127848625183105,9.761159896850586,-164.7796630859375,262.20703125,499.9847412109375
8.8499999,-5.784391403198242,-9.861717224121094,17.956512451171875,-25.970458984375,222.7630615234375,499.9847412109375
8.8699999,-1.2665326595306396,-14.757859230041504,27.710491180419922,195.9991455078125,143.9971923828125,440.24658203125
8.889999900000001,5.748478412628174,-20.032285690307617,37.12209701538086,425.6591796875,-30.09033203125,315.704345703125
8.9099999,13.136984825134277,-24.54056739807129,43.85219955444336,499.9847412109375,-276.0772705078125,201.0955810546875
8.9299999,19.057846069335938,-27.322629928588867,47.21126174926758,359.832763671875,-490.0970458984375,105.3314208984375
8.9499999,20.77448844909668,-29.621063232421875,48.408363342285156,136.5509033203125,-500,-52.642822265625
8.969999900000001,16.929399490356445,-32.89393615722656,49.40435028076172,144.378662109375,-500,-243.22509765625
8.9899999,7.740454196929932,-37.72304153442383,50.769046783447266,390.167236328125,-500,-360.870361328125
9.0099999,-4.9152960777282715,-42.41328430175781,51.04198455810547,499.9847412109375,-500,-354.06494140625
9.0299999,-19.01474952697754,-44.05331039428711,48.23598098754883,371.9482421875,-500,-273.92578125
9.049999900000001,-32.07033157348633,-40.27765655517578,39.99274444580078,122.1771240234375,-500,-204.28466796875
9.069999900000001,-41.68305206298828,-32.055965423583984,27.059267044067383,36.956787109375,-477.783203125,-112.3809814453125
9.0899999,-46.696510314941406,-20.008342742919922,11.994950294494629,43.15185546875,-320.770263671875,66.6656494140625
9.1099999,-46.29428482055664,-9.282320022583008,-1.7621324062347412,-76.507568359375,-128.96728515625,146.5606689453125
9.129999900000001,-40.636783599853516,-0.8140285611152649,-11.245565414428711,-169.464111328125,27.89306640625,163.604736328125
9.149999900000001,-30.75591468811035,3.203441858291626,-14.836868286132812,-136.199951171875,101.470947265625,177.978515625
9.1699999,-18.667591094970703,3.24414324760437,-13.488932609558105,-88.958740234375,134.8114013671875,168.731689453125
9.1899999,-6.155492782592773,0.5961562395095825,-8.827422142028809,-80.4290771484375,142.8985595703125,140.777587890625
9.209999900000001,4.692635536193848,-2.942473888397217,-2.7126305103302,-100.0823974609375,136.7950439453125,107.91015625
9.229999900000001,12.557587623596191,-6.27280855178833,3.1483752727508545,-121.9635009765625,135.345458984375,70.9228515625
9.2499999,17.034744262695312,-8.829815864562988,7.65186882019043,-130.2947998046875,132.2174072265625,35.9954833984375
9.2699999,18.789695739746094,-10.402806282043457,10.055646896362305,-103.0426025390625,113.8763427734375,19.04296875
9.2899999,18.746599197387695,-10.912771224975586,10.57040023803711,-60.638427734375,75.836181640625,10.7269287109375
9.309999900000001,17.937358856201172,-10.496180534362793,9.464279174804688,-58.04443359375,35.919189453125,-12.786865234375
9.3299999,16.845603942871094,-9.306262016296387,7.687781810760498,-106.3079833984375,5.340576171875,-46.4019775390625
9.3499999,15.49766731262207,-7.706935405731201,5.899312973022461,-166.9769287109375,-16.3726806640625,-76.6143798828125
9.3699999,13.886369705200195,-6.076483726501465,4.4508209228515625,-189.7735595703125,-30.09033203125,-94.7265625
9.389999900000001,11.97100830078125,-4.7189717292785645,3.44765043258667,-173.3551025390625,-37.384033203125,-102.4017333984375
9.4099999,9.861717224121094,-3.6846764087677,2.8802247047424316,-151.91650390625,-34.5306396484375,-99.884033203125
9.4299999,7.7428483963012695,-2.9688100814819336,2.564189910888672,-136.383056640625,-20.751953125,-89.0350341796875
9.4499999,5.892130374908447,-2.492363929748535,2.4468741416931152,-108.673095703125,-1.6937255859375,-69.7784423828125
9.469999900000001,4.525041103363037,-2.229001760482788,2.4444799423217773,-63.140869140625,17.181396484375,-45.379638671875
9.4899999,3.6966474056243896,-2.1380221843719482,2.3918075561523438,-16.4947509765625,32.8826904296875,-20.2484130859375
9.5099999,3.423708438873291,-2.140416383743286,2.2649147510528564,9.4757080078125,38.9556884765625,2.38037109375
9.5299999,3.6583402156829834,-2.2002713680267334,1.9608511924743652,8.5601806640625,37.7197265625,17.791748046875
9.549999900000001,4.4077253341674805,-2.315192937850952,1.5107412338256836,-7.38525390625,36.0260009765625,23.4222412109375
9.569999900000001,5.56173038482666,-2.5713725090026855,1.0127472877502441,-17.852783203125,34.5916748046875,20.477294921875
9.5899999,7.043741226196289,-2.940079689025879,0.6057330369949341,-12.4969482421875,29.9072265625,18.0511474609375
9.6099999,8.597578048706055,-3.4620156288146973,0.42377370595932007,2.0294189453125,22.5830078125,16.5252685546875
9.629999900000001,10.029311180114746,-4.041412353515625,0.4572925269603729,14.801025390625,12.664794921875,12.39013671875
9.649999900000001,11.133037567138672,-4.58968448638916,0.7709329724311829,15.533447265625,2.25830078125,5.462646484375
9.6699999,11.829751014709473,-5.008669853210449,1.2665326595306396,5.859375,-6.04248046875,-3.0059814453125
9.6899999,12.076353073120117,-5.260061264038086,1.8842366933822632,-5.828857421875,-11.749267578125,-10.19287109375
9.709999900000001,11.906365394592285,-5.272032260894775,2.5450363159179688,-8.7738037109375,-18.2952880859375,-12.3138427734375
9.729999900000001,11.384428977966309,-5.0685248374938965,3.1268274784088135,-1.77001953125,-25.7568359375,-13.031005859375
9.7499999,10.606313705444336,-4.69024133682251,3.536235809326172,4.4708251953125,-30.76171875,-15.350341796875
9.7699999,9.706093788146973,-4.182670593261719,3.751713991165161,-0.9765625,-31.18896484375,-15.9149169921875
9.7899999,8.813055992126465,-3.667917013168335,3.7828385829925537,-8.9263916015625,-27.8778076171875,-15.93017578125
9.809999900000001,8.058882713317871,-3.181894063949585,3.7445313930511475,-5.92041015625,-21.881103515625,-14.3280029296875
9.8299999,7.4986395835876465,-2.8107926845550537,3.646369218826294,7.4615478515625,-14.2974853515625,-12.6190185546875
9.8499999,7.134721279144287,-2.561795711517334,3.5170822143554688,21.2554931640625,-8.4228515625,-10.0250244140625
9.8699999,7.005434036254883,-2.434903144836426,3.3303346633911133,26.1688232421875,-5.43212890625,-7.75146484375
9.889999900000001,7.122750282287598,-2.434903144836426,3.1268274784088135,22.1099853515625,-3.1585693359375,-7.9803466796875
9.9099999,7.496245384216309,-2.5689783096313477,2.9927520751953125,14.7552490234375,0.3509521484375,-10.7421875
9.9299999,8.015787124633789,-2.846705913543701,2.935291290283203,15.0146484375,4.486083984375,-12.603759765625
9.9499999,8.56884765625,-3.205836057662964,2.9328970909118652,20.843505859375,5.4779052734375,-11.2457275390625
9.969999900000001,9.004592895507812,-3.5936968326568604,2.8826189041137695,24.59716796875,1.89208984375,-9.490966796875
9.9899999,9.272743225097656,-3.8953661918640137,2.6862943172454834,25.8026123046875,-4.0740966796875,-6.53076171875
10.0099999,9.41400146484375,-4.055777549743652,2.367865562438965,22.674560546875,-9.918212890625,-1.40380859375
10.0299999,9.495404243469238,-4.065354347229004,1.9608511924743652,15.167236328125,-14.2822265625,3.082275390625
10.049999900000001,9.519346237182617,-3.9815573692321777,1.5849615335464478,6.34765625,-16.876220703125,6.16455078125
10.069999900000001,9.50737476348877,-3.883395195007324,1.2976573705673218,-2.1209716796875,-16.5557861328125,9.0179443359375
10.0899999,9.394847869873047,-3.840299606323242,1.1899182796478271,-5.706787109375,-14.190673828125,11.29150390625
10.1099999,9.191340446472168,-3.883395195007324,1.2689268589019775,-3.5400390625,-11.1083984375,10.7269287109375
10.129999900000001,8.901641845703125,-3.974374771118164,1.50355863571167,1.6326904296875,-8.514404296875,7.9345703125
10.149999900000001,8.56884765625,-4.072536945343018,1.7836803197860718,2.62451171875,-5.645751953125,5.0048828125
10.1699999,8.26478385925293,-4.125209331512451,2.0207061767578125,-1.3885498046875,-2.3040771484375,3.5400390625
10.1899999,8.078036308288574,-4.158728122711182,2.1475989818573,-6.6375732421875,2.960205078125,3.4942626953125
10.209999900000001,7.989450931549072,-4.271255970001221,2.123656988143921,-11.932373046875,11.016845703125,3.7689208984375
10.229999900000001,7.943961143493652,-4.570530891418457,1.9728221893310547,-20.0347900390625,18.0511474609375,4.1351318359375
10.2499999,7.781155586242676,-5.1116204261779785,1.6735470294952393,-33.9508056640625,21.8353271484375,3.41796875
10.2699999,7.374141216278076,-5.87776517868042,1.170764684677124,-52.459716796875,24.90234375,2.166748046875
10.2899999,6.562506675720215,-6.7277069091796875,0.4620809257030487,-77.4078369140625,30.4107666015625,8.2855224609375
10.309999900000001,5.348646640777588,-7.433996200561523,-0.48602294921875,-113.3575439453125,44.7540283203125,24.5513916015625
10.3299999,3.7277719974517822,-7.85537576675415,-1.6184803247451782,-161.07177734375,73.3489990234375,49.2095947265625
10.3499999,1.6663644313812256,-7.915230751037598,-2.782062292098999,-194.3817138671875,107.574462890625,80.0628662109375
10.3699999,-0.7374141216278076,-7.539340972900391,-3.734954595565796,-200.958251953125,142.51708984375,125.2288818359375
10.389999900000001,-3.335123062133789,-6.746860504150391,-4.168305397033691,-185.1654052734375,180.877685546875,183.65478515625
10.4099999,-5.7987565994262695,-5.559336185455322,-3.823540210723877,-162.6739501953125,223.602294921875,250.6256103515625
10.4299999,-7.85537576675415,-4.165910720825195,-2.5665841102600098,-149.8260498046875,266.204833984375,319.2291259765625
10.4499999,-9.239224433898926,-2.9496564865112305,-0.37828385829925537,-145.7061767578125,300.018310546875,383.5906982421875
10.469999900000001,-9.979032516479492,-2.4157495498657227,2.7940332889556885,-132.3699951171875,315.582275390625,438.5223388671875
10.4899999,-9.90241813659668,-2.9161376953125,7.022193431854248,-92.4072265625,312.07275390625,476.5167236328125
10.5099999,-8.700529098510742,-4.757278919219971,12.567164421081543,-36.407470703125,296.5545654296875,493.5150146484375
10.5299999,-5.535394191741943,-8.123526573181152,19.740192413330078,38.8336181640625,278.74755859375,480.9722900390625
10.549999900000001,-0.363918662071228,-13.019668579101562,27.727249145507812,208.8470458984375,236.8927001953125,417.9229736328125
10.569999900000001,6.6846113204956055,-18.330007553100586,35.412635803222656,443.084716796875,106.7047119140625,292.1295166015625
10.5899999,13.419500350952148,-22.8335018157959,41.87937545776367,476.8524169921875,-108.428955078125,149.7039794921875
10.6099999,18.212692260742188,-25.732879638671875,46.49539566040039,266.6015625,-354.2633056640625,38.6505126953125
10.629999900000001,18.789695739746094,-26.92758560180664,49.74672317504883,122.100830078125,-500,-71.2890625
10.649999900000001,14.2431058883667,-27.669788360595703,52.06909942626953,188.90380859375,-500,-165.22216796875
10.6699999,4.944026470184326,-28.86928367614746,53.29014205932617,346.74072265625,-500,-193.6492919921875
10.6899999,-7.137115478515625,-30.210037231445312,52.50005340576172,386.7950439453125,-500,-159.2254638671875
10.709999900000001,-19.80483627319336,-31.069555282592773,48.841712951660156,242.3095703125,-500,-127.8076171875
10.729999900000001,-30.779857635498047,-30.001741409301758,41.13717269897461,79.559326171875,-500,-111.8011474609375
10.7499999,-38.046260833740234,-26.556486129760742,29.666553497314453,70.37353515625,-485.565185546875,-74.9664306640625
10.7699999,-41.41011428833008,-20.341136932373047,16.187198638916016,122.161865234375,-363.1134033203125,15.960693359375
10.7899999,-40.746917724609375,-12.717999458312988,3.2130186557769775,36.5753173828125,-218.6737060546875,79.16259765625
10.809999900000001,-36.45650863647461,-5.348646640777588,-6.605602264404297,-123.7945556640625,-62.0269775390625,72.0977783203125
10.8299999,-29.28348159790039,0.0694318488240242,-11.654973983764648,-178.680419921875,34.2559814453125,77.3773193359375
10.8499999,-19.99876594543457,2.4588451385498047,-12.282255172729492,-132.8582763671875,85.052490234375,93.93310546875
10.8699999,-9.397241592407227,2.0638017654418945,-9.730035781860352,-81.298828125,120.086669921875,97.7020263671875
10.889999900000001,1.3455413579940796,0.16519992053508759,-5.374982833862305,-57.31201171875,130.18798828125,86.3494873046875
10.9099999,10.524910926818848,-2.2864625453948975,-0.5746083855628967,-73.42529296875,111.8011474609375,57.647705078125
10.9299999,17.037139892578125,-4.745307922363281,3.756502389907837,-112.8692626953125,75.3173828125,16.3116455078125
10.9499999,20.207061767578125,-6.66785192489624,7.022193431854248,-132.26318359375,37.1551513671875,-4.974365234375
10.969999900000001,20.269311904907227,-7.936778545379639,8.875306129455566,-114.959716796875,9.9334716796875,-16.66259765625
10.9899999,18.29170036315918,-8.259995460510254,9.184157371520996,-92.6361083984375,-7.0648193359375,-31.1126708984375
11.0099999,15.3731689453125,-7.642292022705078,8.13789176940918,-105.6671142578125,-21.3775634765625,-46.6461181640625
11.0299999,12.334927558898926,-6.361393928527832,6.2392897605896,-147.247314453125,-30.8074951171875,-60.821533203125
11.049999900000001,9.6989107131958,-4.857835292816162,4.055777549743652,-158.905029296875,-28.9764404296875,-65.093994140625
11.069999900000001,7.592013359069824,-3.5051112174987793,2.1930887699127197,-141.693115234375,-16.8304443359375,-55.2215576171875
11.0899999,5.9735331535339355,-2.4205379486083984,0.9385270476341248,-127.044677734375,1.46484375,-34.0728759765625
11.1099999,4.778826713562012,-1.6735470294952393,0.2992752194404602,-115.692138671875,21.636962890625,-14.09912109375
11.129999900000001,4.01268196105957,-1.2090718746185303,0.14365209639072418,-86.8988037109375,40.191650390625,2.1820068359375
11.149999900000001,3.737348794937134,-1.039083480834961,0.31124621629714966,-54.5654296875,58.013916015625,14.6484375
11.1699999,3.993528366088867,-1.1899182796478271,0.6440402865409851,-32.16552734375,72.967529296875,18.9971923828125
11.1899999,4.8051629066467285,-1.6136919260025024,0.9911994934082031,-10.1776123046875,78.5369873046875,18.7225341796875
11.209999900000001,6.13633918762207,-2.2649147510528564,1.3527239561080933,2.1209716796875,72.9522705078125,16.876220703125
11.229999900000001,7.893682956695557,-3.1196448802948,1.6304513216018677,-0.3509521484375,59.6160888671875,6.927490234375
11.2499999,9.864110946655273,-4.079719543457031,1.8794482946395874,-8.9111328125,39.73388671875,-11.749267578125
11.2699999,11.750741958618164,-5.035006046295166,2.1380221843719482,-20.01953125,17.4560546875,-27.0843505859375
11.2899999,13.172897338867188,-5.827486991882324,2.343923568725586,-22.9034423828125,-4.119873046875,-32.135009765625
11.309999900000001,13.864822387695312,-6.277596950531006,2.561795711517334,-15.7318115234375,-22.5067138671875,-32.440185546875
11.3299999,13.697227478027344,-6.3063273429870605,2.7437551021575928,-9.6893310546875,-33.14208984375,-31.3568115234375
11.3499999,12.749124526977539,-5.882553577423096,2.851494312286377,-2.9296875,-36.7279052734375,-25.909423828125
11.3699999,11.298237800598145,-5.109226226806641,2.896984100341797,4.974365234375,-38.63525390625,-16.2506103515625
11.389999900000001,9.66539192199707,-4.1156325340271,2.873042106628418,7.5225830078125,-39.1845703125,-8.4228515625
11.4099999,8.190564155578613,-3.138798475265503,2.741360902786255,5.8746337890625,-37.4603271484375,-7.6446533203125
11.4299999,7.108384609222412,-2.293645143508911,2.5761611461639404,4.180908203125,-34.393310546875,-6.3629150390625
11.4499999,6.509834289550781,-1.745373010635376,2.4205379486083984,2.960205078125,-27.40478515625,-3.23486328125
11.469999900000001,6.344634532928467,-1.6089035272598267,2.2361843585968018,11.016845703125,-16.1285400390625,-2.5634765625
11.4899999,6.517016887664795,-1.778891921043396,2.0398597717285156,34.60693359375,-0.5035400390625,0.457763671875
11.5099999,6.852205276489258,-2.1092917919158936,1.946485996246338,50.262451171875,11.871337890625,6.3629150390625
11.5299999,7.311892032623291,-2.4827871322631836,1.9560627937316895,39.8406982421875,14.9078369140625,6.6375732421875
11.549999900000001,7.829039573669434,-2.7676970958709717,2.2026655673980713,20.93505859375,12.3748779296875,4.94384765625
11.569999900000001,8.389283180236816,-3.004723072052002,2.6455929279327393,12.6800537109375,7.50732421875,5.9051513671875
11.5899999,8.978256225585938,-3.2393548488616943,3.157952070236206,15.93017578125,3.1890869140625,7.2479248046875
11.6099999,9.485827445983887,-3.514688014984131,3.5889084339141846,18.0511474609375,0.48828125,6.6680908203125
11.629999900000001,9.84256362915039,-3.797203779220581,3.845088005065918,18.4326171875,-3.2958984375,5.2642822265625
11.649999900000001,10.000580787658691,-4.039018154144287,3.8498764038085938,16.2506103515625,-8.7890625,4.7607421875
11.6699999,9.979032516479492,-4.216189384460449,3.6367924213409424,7.8277587890625,-12.5274658203125,2.410888671875
11.6899999,9.84256362915039,-4.285621166229248,3.332728862762451,-5.157470703125,-11.199951171875,0.0457763671875
11.709999900000001,9.651026725769043,-4.244919776916504,3.004723072052002,-11.0931396484375,-6.7596435546875,-0.3509521484375
11.729999900000001,9.425971984863281,-4.127603530883789,2.7102363109588623,-7.0037841796875,-3.8909912109375,1.6937255859375
11.7499999,9.186552047729492,-3.936067581176758,2.4468741416931152,1.4495849609375,-4.2572021484375,5.126953125
11.7699999,8.96149730682373,-3.7158010005950928,2.205059766769409,12.26806640625,-5.279541015625,6.195068359375
11.7899999,8.724471092224121,-3.49314022064209,1.9847931861877441,20.6756591796875,-4.6234130859375,5.1727294921875
11.809999900000001,8.506598472595215,-3.272873640060425,1.8148049116134644,22.03369140625,-1.2054443359375,5.2642822265625
11.8299999,8.274360656738281,-3.1100680828094482,1.699883222579956,16.9525146484375,3.2958984375,4.425048828125
11.8499999,8.018181800842285,-3.0382418632507324,1.577778935432434,12.7716064453125,5.31005859375,2.288818359375
11.8699999,7.783549785614014,-3.117250680923462,1.4413094520568848,10.6964111328125,5.6610107421875,2.99072265625
11.889999900000001,7.589619159698486,-3.4308910369873047,1.3503297567367554,7.5531005859375,7.7972412109375,7.0343017578125
11.9099999,7.457938194274902,-4.010287761688232,1.3431471586227417,2.5177001953125,11.505126953125,12.4359130859375
11.9299999,7.38132381439209,-4.8267107009887695,1.4221558570861816,-7.0343017578125,15.411376953125,18.5394287109375
11.9499999,7.304709434509277,-5.822698593139648,1.5298948287963867,-25.81787109375,19.8974609375,25.2838134765625
11.969999900000001,7.194576263427734,-6.818686485290527,1.53707754611969,-54.7637939453125,26.458740234375,31.707763671875
11.9899999,6.94079065322876,-7.747636795043945,1.3000515699386597,-89.29443359375,36.9415283203125,33.14208984375
12.0099999,6.452373504638672,-8.47786808013916,0.8092401623725891,-116.6229248046875,52.6123046875,33.5540771484375
12.0299999,5.506663799285889,-8.93037223815918,0.06464344263076782,-139.984130859375,77.9266357421875,43.1976318359375
12.049999900000001,4.027047157287598,-9.0859956741333,-0.8020575642585754,-163.238525390625,111.175537109375,63.1866455078125
12.069999900000001,1.9369091987609863,-8.880094528198242,-1.5873557329177856,-180.5267333984375,144.3328857421875,93.3837890625
12.0899999,-0.5722141861915588,-8.259995460510254,-2.142810583114624,-193.54248046875,175.5828857421875,130.340576171875
12.1099999,-3.2345664501190186,-7.29034423828125,-2.3080103397369385,-209.28955078125,204.193115234375,167.388916015625
12.129999900000001,-5.705382823944092,-6.095637321472168,-2.0159177780151367,-225.799560546875,228.08837890625,207.2906494140625
12.149999900000001,-7.692570209503174,-4.836287498474121,-1.1635819673538208,-234.0087890625,249.3438720703125,264.3890380859375
12.1699999,-9.040505409240723,-3.7828385829925537,0.29209262132644653,-229.30908203125,269.0582275390625,341.6900634765625
12.1899999,-9.627084732055664,-3.095702886581421,2.5546131134033203,-201.6143798828125,279.0374755859375,424.041748046875
12.209999900000001,-9.260771751403809,-3.0310592651367188,6.14831018447876,-156.005859375,275.7415771484375,488.1439208984375
12.229999900000001,-7.673416614532471,-4.129997730255127,11.592724800109863,-94.23828125,266.90673828125,499.9847412109375
12.2499999,-4.532223701477051,-7.026981830596924,19.01953887939453,-1.03759765625,252.471923828125,499.9847412109375
12.2699999,-0.23702596127986908,-11.832144737243652,27.320236206054688,173.583984375,185.272216796875,442.626953125
12.289999900000002,5.25527286529541,-17.956512451171875,35.146881103515625,375.244140625,22.3388671875,305.511474609375
12.309999900000001,10.3549222946167,-23.51106071472168,40.83071517944336,420.623779296875,-195.6787109375,179.50439453125
12.3299999,13.982137680053711,-27.88287353515625,44.1011962890625,256.3323974609375,-405.0445556640625,66.34521484375
12.3499999,14.719552040100098,-31.150959014892578,45.765167236328125,114.8681640625,-500,-72.174072265625
12.3699999,11.480196952819824,-34.50044631958008,47.03409194946289,195.5718994140625,-500,-213.9129638671875
12.389999900000001,3.88818359375,-38.793251037597656,48.042049407958984,392.0745849609375,-500,-309.600830078125
12.4099999,-7.173028469085693,-42.89930725097656,47.91994857788086,469.78759765625,-500,-320.86181640625
12.4299999,-19.467254638671875,-44.65425491333008,45.121124267578125,347.015380859375,-500,-276.8402099609375
12.4499999,-30.86604881286621,-41.7117805480957,38.31441116333008,149.84130859375,-500,-235.4736328125
12.469999900000001,-38.728607177734375,-34.01921081542969,27.212495803833008,45.34912109375,-490.0360107421875,-198.6846923828125
12.4899999,-41.5130615234375,-22.524648666381836,13.850457191467285,51.5289306640625,-329.4525146484375,-67.5811767578125
12.5099999,-39.81317901611328,-9.947908401489258,1.3527239561080933,-1.1138916015625,-186.370849609375,89.7216796875
12.5299999,-34.50762939453125,0.13168109953403473,-7.745242595672607,-145.0347900390625,-35.9039306640625,126.7547607421875
12.549999900000001,-26.889278411865234,6.184223175048828,-11.494562149047852,-189.1326904296875,38.848876953125,137.451171875
12.569999900000001,-18.437747955322266,7.163451671600342,-10.668562889099121,-115.66162109375,50.4913330078125,137.176513671875
12.5899999,-9.57441234588623,4.563348293304443,-7.15387487411499,-49.25537109375,64.8345947265625,134.857177734375
12.6099999,-0.811634361743927,0.23702596127986908,-2.647987127304077,-51.788330078125,83.587646484375,108.6273193359375
12.629999900000001,6.88332986831665,-3.971980571746826,1.5107412338256836,-67.0928955078125,86.7919921875,71.044921875
12.649999900000001,12.892776489257812,-7.196970462799072,4.786009311676025,-69.366455078125,65.4449462890625,35.64453125
12.6699999,16.70913314819336,-9.23443603515625,7.007828235626221,-84.9151611328125,33.3251953125,0.6561279296875
12.6899999,18.30127716064453,-10.050858497619629,8.073247909545898,-108.5662841796875,1.28173828125,-35.2020263671875
12.709999900000001,18.085800170898438,-9.746794700622559,8.161833763122559,-134.0789794921875,-22.7508544921875,-63.0035400390625
12.729999900000001,16.563087463378906,-8.60236644744873,7.295132637023926,-153.8238525390625,-38.421630859375,-84.8388671875
12.7499999,14.25268268585205,-6.947973251342773,5.947196960449219,-164.7491455078125,-47.943115234375,-97.412109375
12.7699999,11.621455192565918,-5.1810526847839355,4.350264549255371,-167.938232421875,-48.8128662109375,-94.66552734375
12.789999900000002,9.169792175292969,-3.5697548389434814,2.889801502227783,-155.1971435546875,-41.4276123046875,-77.7740478515625
12.809999900000001,7.187393665313721,-2.2912509441375732,1.7932571172714233,-138.12255859375,-28.2745361328125,-52.2613525390625
12.8299999,5.815515995025635,-1.50355863571167,1.1324573755264282,-122.2991943359375,-12.054443359375,-29.937744140625
12.8499999,5.099649429321289,-1.1228805780410767,0.871489405632019,-95.9930419921875,4.5623779296875,-9.4757080078125
12.8699999,4.944026470184326,-1.1228805780410767,0.8738836050033569,-64.178466796875,20.7061767578125,8.5296630859375
12.889999900000001,5.257667064666748,-1.3742717504501343,0.933738648891449,-42.2821044921875,33.3709716796875,17.8680419921875
12.9099999,5.916072368621826,-1.766920804977417,0.9289502501487732,-34.881591796875,40.52734375,19.9737548828125
12.9299999,6.789956092834473,-2.188300371170044,0.7709329724311829,-28.350830078125,43.6248779296875,18.9971923828125
12.9499999,7.682993412017822,-2.652775526046753,0.5147533416748047,-15.5181884765625,41.534423828125,17.4102783203125
12.969999900000001,8.465897560119629,-3.028665065765381,0.2513911724090576,-4.1961669921875,33.1573486328125,19.6990966796875
12.9899999,9.066842079162598,-3.3423056602478027,0.06224924325942993,-2.62451171875,20.4925537109375,18.0816650390625
13.0099999,9.536105155944824,-3.581725835800171,0.023942016065120697,-3.8299560546875,6.561279296875,10.9710693359375
13.0299999,9.93354320526123,-3.7708675861358643,0.10773907601833344,-2.593994140625,-5.2032470703125,6.8206787109375
13.049999900000001,10.285490036010742,-3.9815573692321777,0.2561795711517334,0.823974609375,-10.8489990234375,4.5166015625
13.069999900000001,10.556035041809082,-4.189853191375732,0.4572925269603729,16.204833984375,-3.7078857421875,0.3509521484375
13.0899999,10.60391902923584,-4.299986362457275,0.8427590131759644,29.11376953125,2.349853515625,-2.1209716796875
13.1099999,10.424354553222656,-4.345476150512695,1.2952631711959839,20.0347900390625,-0.67138671875,-4.3487548828125
13.129999900000001,10.031704902648926,-4.292803764343262,1.9321208000183105,-1.434326171875,-7.6904296875,-3.7384033203125
13.149999900000001,9.607931137084961,-4.2090067863464355,2.5330653190612793,-8.5296630859375,-13.0615234375,-2.4871826171875
13.1699999,9.244012832641602,-4.050989151000977,2.9472622871398926,12.3291015625,-11.9781494140625,-4.94384765625
13.1899999,9.045293807983398,-3.754108190536499,3.157952070236206,32.196044921875,-10.040283203125,-7.5836181640625
13.209999900000001,8.956708908081055,-3.332728862762451,3.157952070236206,34.271240234375,-10.3912353515625,-10.07080078125
13.229999900000001,8.844181060791016,-2.8395233154296875,2.9903578758239746,26.9775390625,-10.345458984375,-12.4053955078125
13.2499999,8.635885238647461,-2.4660277366638184,2.7461493015289307,19.8974609375,-7.3699951171875,-14.5416259765625
13.2699999,8.365341186523438,-2.274491548538208,2.561795711517334,20.0653076171875,-3.41796875,-13.8092041015625
13.289999900000002,8.097189903259277,-2.3104045391082764,2.494758129119873,24.932861328125,-0.54931640625,-10.9100341796875
13.309999900000001,7.8960771560668945,-2.449268341064453,2.537853717803955,26.092529296875,0.4425048828125,-5.6610107421875
13.3299999,7.824251174926758,-2.631227731704712,2.631227731704712,16.3421630859375,0.091552734375,-1.068115234375
13.3499999,7.893682956695557,-2.8107926845550537,2.7461493015289307,3.1890869140625,0.48828125,0.213623046875
13.3699999,8.08282470703125,-3.0166940689086914,2.8395233154296875,-0.18310546875,3.6163330078125,1.953125
13.389999900000001,8.377311706542969,-3.2369606494903564,2.935291290283203,8.5601806640625,6.6680908203125,6.317138671875
13.4099999,8.710105895996094,-3.471592426300049,2.935291290283203,18.8446044921875,7.568359375,9.8724365234375
13.4299999,8.987833023071289,-3.6798880100250244,2.782062292098999,25.1007080078125,6.16455078125,11.962890625
13.4499999,9.126696586608887,-3.8283286094665527,2.434903144836426,25.8026123046875,4.547119140625,16.5252685546875
13.469999900000001,9.136273384094238,-3.885789394378662,2.0159177780151367,18.8446044921875,5.0201416015625,22.9339599609375
13.4899999,8.995016098022461,-3.9025487899780273,1.644816517829895,2.86865234375,8.8043212890625,24.2919921875
13.5099999,8.765172004699707,-3.9624037742614746,1.3766659498214722,-9.5062255859375,15.8538818359375,21.697998046875
13.5299999,8.432378768920898,-4.125209331512451,1.2737152576446533,-9.979248046875,23.223876953125,21.392822265625
13.549999900000001,7.9415669441223145,-4.503493309020996,1.216254472732544,-4.364013671875,30.609130859375,22.4761962890625
13.569999900000001,7.208941459655762,-5.073313236236572,1.139639973640442,-1.800537109375,39.1082763671875,27.7099609375
13.5899999,6.210559368133545,-5.75326681137085,0.9457096457481384,-12.1002197265625,51.2847900390625,40.802001953125
13.6099999,5.011064052581787,-6.464344501495361,0.6392518281936646,-42.633056640625,67.169189453125,58.2122802734375
13.629999900000001,3.6822822093963623,-7.196970462799072,0.2082955539226532,-85.723876953125,85.0830078125,72.8607177734375
13.649999900000001,2.3726539611816406,-7.90086555480957,-0.28730419278144836,-135.223388671875,104.156494140625,89.0655517578125
13.6699999,1.113303780555725,-8.571242332458496,-0.7876923680305481,-188.5223388671875,123.9013671875,107.11669921875
13.6899999,0.05027823522686958,-9.083600997924805,-1.1228805780410767,-240.8447265625,145.4620361328125,126.9989013671875
13.709999900000001,-0.8259995579719543,-9.404424667358398,-1.161187767982483,-268.798828125,169.2047119140625,150.9857177734375
13.729999900000001,-1.501164436340332,-9.428366661071777,-0.7972691655158997,-256.3323974609375,191.0552978515625,188.3392333984375
13.7499999,-2.0829553604125977,-9.057265281677246,-0.021547814831137657,-217.8955078125,209.2132568359375,241.3330078125
13.7699999,-2.7269957065582275,-8.29590892791748,1.0271124839782715,-188.4613037109375,225.1739501953125,295.0897216796875
13.789999900000002,-3.512293815612793,-7.206547260284424,2.31758713722229,-178.131103515625,239.7308349609375,339.84375
13.809999900000001,-4.333505153656006,-6.1770405769348145,3.9025487899780273,-165.0543212890625,253.143310546875,378.35693359375
13.8299999,-4.8937482833862305,-5.497087001800537,5.896918773651123,-137.908935546875,264.3280029296875,419.6014404296875
13.8499999,-4.977545261383057,-5.65031623840332,8.47547435760498,-91.00341796875,267.852783203125,456.9854736328125
13.8699999,-4.211400985717773,-7.0988078117370605,12.09550666809082,-18.798828125,257.904052734375,475.9063720703125
13.889999900000001,-2.229001760482788,-9.703699111938477,16.81926727294922,86.8682861328125,230.712890625,454.5745849609375
13.9099999,1.0845733880996704,-13.709198951721191,22.29720115661621,208.2977294921875,162.109375,360.0921630859375
13.9299999,5.4659624099731445,-18.40901756286621,27.837383270263672,296.2646484375,13.3514404296875,234.710693359375
13.9499999,10.036493301391602,-22.522254943847656,32.39115524291992,298.0194091796875,-185.72998046875,143.7530517578125
13.969999900000001,13.57751750946045,-25.840618133544922,35.877113342285156,140.0146484375,-369.659423828125,45.95947265625
13.9899999,14.499285697937012,-29.111099243164062,38.98478698730469,-58.258056640625,-487.579345703125,-113.922119140625
14.0099999,11.341333389282227,-33.64571762084961,42.30075454711914,11.1541748046875,-500,-302.0172119140625
14.0299999,3.4308910369873047,-39.42292404174805,45.856143951416016,353.271484375,-500,-416.3055419921875
14.049999900000001,-9.57441234588623,-45.60954284667969,48.36048126220703,499.9847412109375,-500,-414.6270751953125
14.069999900000001,-25.16305923461914,-47.89121627807617,47.14422607421875,499.9847412109375,-500,-328.1707763671875
14.0899999,-39.37025451660156,-45.2719612121582,40.988731384277344,245.6817626953125,-500,-272.76611328125
14.1099999,-50.11542892456055,-37.617698669433594,29.003358840942383,87.9364013671875,-500,-222.808837890625
14.129999900000001,-53.26620101928711,-26.283546447753906,13.974955558776855,74.0814208984375,-406.768798828125,-61.2640380859375
14.149999900000001,-50.45301055908203,-14.669273376464844,-1.1444283723831177,6.4239501953125,-216.24755859375,59.6923828125
14.1699999,-42.89930725097656,-4.568136692047119,-12.354081153869629,-133.8043212890625,-68.29833984375,93.5211181640625
14.1899999,-32.5108642578125,2.0374655723571777,-17.796100616455078,-209.747314453125,-7.7667236328125,120.8343505859375
14.209999900000001,-21.286848068237305,4.355052947998047,-17.310077667236328,-189.6820068359375,10.5743408203125,126.4495849609375
14.229999900000001,-10.182539939880371,2.80361008644104,-12.703634262084961,-121.9635009765625,26.153564453125,118.7591552734375
14.2499999,0.004788403399288654,-0.8643068075180054,-6.217741966247559,-64.51416015625,39.306640625,100.76904296875
14.2699999,8.362946510314941,-4.841075897216797,0.24181437492370605,-50.0640869140625,35.2325439453125,73.760986328125
14.289999900000002,14.144943237304688,-7.95832633972168,5.252878665924072,-72.296142578125,19.2108154296875,45.22705078125
14.309999900000001,17.173608779907227,-9.792284965515137,8.432378768920898,-107.2540283203125,-3.875732421875,22.9644775390625
14.3299999,17.944541931152344,-10.472238540649414,9.765948295593262,-131.195068359375,-28.350830078125,2.685546875
14.3499999,17.197551727294922,-10.1753568649292,9.461885452270508,-145.3857421875,-41.534423828125,-21.453857421875
14.3699999,15.662867546081543,-9.370905876159668,7.953537940979004,-164.8712158203125,-42.327880859375,-50.8880615234375
14.389999900000001,13.759477615356445,-8.358158111572266,5.853823184967041,-166.259765625,-42.3583984375,-77.606201171875
14.4099999,11.81059741973877,-7.249642848968506,3.7708675861358643,-126.6937255859375,-42.7703857421875,-89.78271484375
14.4299999,9.988609313964844,-6.09324312210083,1.987187385559082,-78.4759521484375,-36.0870361328125,-93.6737060546875
14.4499999,8.434772491455078,-4.786009311676025,0.768538773059845,-68.4814453125,-26.824951171875,-89.5538330078125
14.469999900000001,7.089231014251709,-3.3231520652770996,0.002394201699644327,-79.28466796875,-18.4783935546875,-75.7904052734375
14.4899999,5.963956356048584,-2.0374655723571777,-0.42616790533065796,-62.744140625,-12.2528076171875,-59.2803955078125
14.5099999,4.630385875701904,-0.8212111592292786,-0.6655880808830261,6.8359375,1.3427734375,-12.969970703125
14.5299999,4.850652694702148,-1.0103530883789062,-0.6512228846549988,12.26806640625,9.5062255859375,-1.739501953125
14.549999900000001,5.664681434631348,-1.5849615335464478,-0.6344634294509888,17.2576904296875,14.068603515625,-4.2877197265625
14.569999900000001,6.979097843170166,-2.3750481605529785,-0.5913678407669067,20.8892822265625,16.754150390625,-12.5274658203125
14.5899999,8.327033042907715,-3.2585084438323975,-0.47884035110473633,19.8822021484375,19.4549560546875,-22.9949951171875
14.6099999,9.44991397857666,-3.9863457679748535,-0.26096799969673157,21.8963623046875,22.003173828125,-25.146484375
14.629999900000001,10.132261276245117,-4.443638324737549,0.011971008032560349,28.5186767578125,20.6451416015625,-20.111083984375
14.649999900000001,10.369287490844727,-4.565742492675781,0.2585737705230713,22.03369140625,16.6473388671875,-12.5885009765625
14.6699999,10.326191902160645,-4.359841346740723,0.5099649429321289,1.7242431640625,15.1214599609375,-4.7454833984375
14.6899999,10.0580415725708,-3.952826976776123,0.706289529800415,-5.0506591796875,15.6097412109375,-2.685546875
14.709999900000001,9.667786598205566,-3.488351821899414,0.9528923034667969,9.368896484375,12.26806640625,-3.5552978515625
14.729999900000001,9.26795482635498,-3.0526070594787598,1.2617442607879639,22.1405029296875,8.0718994140625,-0.9918212890625
14.7499999,8.916007041931152,-2.7054479122161865,1.6519991159439087,23.6968994140625,7.7972412109375,1.5716552734375
14.7699999,8.652645111083984,-2.5043349266052246,2.0254945755004883,21.240234375,12.176513671875,-1.1138916015625
14.789999900000002,8.53293514251709,-2.4660277366638184,2.382230758666992,19.683837890625,15.6097412109375,-3.9215087890625
14.809999900000001,8.508993148803711,-2.612074136734009,2.6240451335906982,23.2696533203125,15.0909423828125,-4.5318603515625
14.8299999,8.564059257507324,-2.8826189041137695,2.7269957065582275,30.0750732421875,11.505126953125,-5.218505859375
14.8499999,8.695740699768066,-3.1483752727508545,2.6599581241607666,31.3720703125,6.744384765625,-6.1187744140625
14.8699999,8.939949035644531,-3.28963303565979,2.513911724090576,22.8271484375,3.8299560546875,-5.7373046875
14.889999900000001,9.229647636413574,-3.292027235031128,2.3295583724975586,13.427734375,4.913330078125,-4.08935546875
14.9099999,9.524134635925293,-3.155557870864868,2.1811177730560303,7.904052734375,5.4473876953125,-2.349853515625
14.9299999,9.684545516967773,-3.026270866394043,2.1116859912872314,4.4403076171875,1.953125,-1.251220703125
14.9499999,9.684545516967773,-2.935291290283203,2.0877439975738525,2.1820068359375,-2.716064453125,1.77001953125
14.969999900000001,9.543288230895996,-2.9448680877685547,2.1547815799713135,-2.9144287109375,-4.913330078125,3.662109375
14.9899999,9.346963882446289,-3.064578056335449,2.322375535964966,-9.6435546875,-4.8675537109375,1.3427734375
15.0099999,9.174580574035645,-3.2800562381744385,2.540247917175293,-11.077880859375,-5.126953125,-2.777099609375
15.0299999,9.074024200439453,-3.529053211212158,2.7748796939849854,-10.406494140625,-5.7830810546875,-3.96728515625
15.049999900000001,8.973467826843262,-3.8331170082092285,2.8610711097717285,-10.498046875,-4.2877197265625,-2.777099609375
15.069999900000001,8.87051773071289,-4.0964789390563965,2.655169725418091,-3.5400390625,-1.5869140625,2.25830078125
15.0899999,8.78432559967041,-4.23773717880249,2.2026655673980713,4.94384765625,-0.030517578125,8.1939697265625
15.1099999,8.78432559967041,-4.264073371887207,1.656787633895874,-1.89208984375,1.8463134765625,8.11767578125
15.129999900000001,8.87291145324707,-4.216189384460449,1.2234370708465576,-17.27294921875,5.7373046875,4.7607421875
15.149999900000001,8.971074104309082,-4.2090067863464355,1.048660397529602,-21.8353271484375,8.819580078125,2.166748046875
15.1699999,8.990227699279785,-4.350264549255371,1.115697979927063,-14.46533203125,10.4522705078125,1.3427734375
15.1899999,8.865729331970215,-4.565742492675781,1.2761094570159912,-3.60107421875,13.2598876953125,2.3040771484375
15.209999900000001,8.616731643676758,-4.738125324249268,1.37906014919281,-1.190185546875,16.5863037109375,2.410888671875
15.229999900000001,8.336610794067383,-4.795586109161377,1.400607943534851,-12.39013671875,19.8822021484375,1.3885498046875
15.2499999,8.032546997070312,-4.790797710418701,1.3311761617660522,-31.4788818359375,23.5137939453125,2.50244140625
15.2699999,7.694964408874512,-4.862623691558838,1.1827356815338135,-46.356201171875,27.40478515625,8.23974609375
15.289999900000002,7.184999465942383,-5.106832027435303,0.9097966551780701,-58.1207275390625,33.599853515625,20.20263671875
15.309999900000001,6.385335922241211,-5.523423194885254,0.4692635238170624,-71.380615234375,46.32568359375,39.12353515625
15.3299999,5.17626428604126,-5.9735331535339355,-0.22266076505184174,-84.7015380859375,67.56591796875,65.5059814453125
15.3499999,3.507505416870117,-6.339846134185791,-1.091755986213684,-103.179931640625,97.6104736328125,97.2900390625
15.3699999,1.5155296325683594,-6.497863292694092,-1.98958158493042,-129.8675537109375,138.0157470703125,134.979248046875
15.389999900000001,-0.689530074596405,-6.473921298980713,-2.6623523235321045,-158.14208984375,184.75341796875,177.764892578125
15.4099999,-2.942473888397217,-6.313509941101074,-2.9161376953125,-173.8433837890625,227.2491455078125,217.7581787109375
15.4299999,-4.999093055725098,-6.160281181335449,-2.5953147411346436,-170.989990234375,263.85498046875,251.2359619140625
15.4499999,-6.675034523010254,-6.023811340332031,-1.6903064250946045,-155.09033203125,298.40087890625,284.85107421875
15.469999900000001,-7.872135162353516,-5.9304375648498535,-0.19871874153614044,-138.5040283203125,332.305908203125,324.676513671875
15.4899999,-8.595184326171875,-5.793968200683594,1.821987509727478,-127.0751953125,363.6016845703125,365.5242919921875
15.5099999,-8.844181060791016,-5.78678560256958,4.422090530395508,-108.673095703125,378.11279296875,392.6544189453125
15.5299999,-8.343792915344238,-6.162675380706787,8.329427719116211,-86.8072509765625,372.802734375,414.276123046875
15.549999900000001,-6.572083473205566,-7.328651428222656,14.058752059936523,-30.426025390625,360.6109619140625,432.6934814453125
15.569999900000001,-3.287238836288452,-9.651026725769043,21.62682342529297,105.1025390625,324.3408203125,420.7305908203125
15.5899999,1.7597382068634033,-12.737153053283691,29.671340942382812,281.8450927734375,215.087890625,347.6715087890625
15.6099999,7.817068576812744,-15.868768692016602,37.296875,331.4361572265625,21.3470458984375,242.73681640625
15.629999900000001,13.491326332092285,-18.5861873626709,43.03098678588867,194.3817138671875,-217.7581787109375,145.3094482421875
15.649999900000001,17.219099044799805,-20.587739944458008,47.49138641357422,53.8787841796875,-443.023681640625,36.4227294921875
15.6699999,16.974889755249023,-22.72576332092285,51.312530517578125,60.150146484375,-500,-114.471435546875
15.6899999,11.57596492767334,-25.471912384033203,54.17360305786133,245.4833984375,-500,-227.23388671875
15.709999900000001,1.0342950820922852,-28.598739624023438,54.776939392089844,447.75390625,-500,-205.718994140625
15.729999900000001,-14.092270851135254,-30.092721939086914,51.5734977722168,456.9854736328125,-500,-92.4072265625
15.7499999,-31.17490005493164,-29.95146369934082,42.738895416259766,356.842041015625,-478.790283203125,-16.937255859375
15.7699999,-44.920013427734375,-25.067291259765625,28.761545181274414,201.0650634765625,-334.320068359375,97.7630615234375
15.789999900000002,-52.844818115234375,-18.626888275146484,13.306973457336426,-139.3585205078125,-262.75634765625,115.78369140625
15.809999900000001,-52.26063537597656,-11.544840812683105,-0.8882488012313843,-360.3668212890625,-161.1785888671875,73.822021484375
15.8299999,-43.8162841796875,-6.090848922729492,-9.864110946655273,-258.575439453125,-85.7086181640625,91.064453125
15.8499999,-31.387985229492188,-3.646369218826294,-12.557587623596191,-107.91015625,-82.611083984375,102.4627685546875
15.869999900000002,-17.226282119750977,-3.756502389907837,-10.122684478759766,-87.1734619140625,-79.4830322265625,64.2242431640625
15.889999900000001,-3.825934410095215,-5.231330871582031,-4.587290287017822,-106.8115234375,-67.8558349609375,7.01904296875
15.9099999,7.036558628082275,-7.180211067199707,1.900996208190918,-80.6884765625,-70.098876953125,-37.7197265625
15.9299999,14.7387056350708,-8.662221908569336,7.450755596160889,-33.5540771484375,-97.076416015625,-59.7381591796875
15.9499999,18.81842613220215,-9.208099365234375,10.90798282623291,-44.921875,-131.134033203125,-73.0438232421875
15.969999900000001,19.663578033447266,-8.801085472106934,12.030863761901855,-118.255615234375,-155.914306640625,-99.7314453125
15.9899999,18.10734748840332,-7.706935405731201,11.094730377197266,-190.0177001953125,-171.0052490234375,-131.2255859375
16.0099999,15.064316749572754,-6.3973069190979,8.923190116882324,-225.2960205078125,-173.5382080078125,-153.2440185546875
16.0299999,11.343728065490723,-5.240907669067383,6.382941722869873,-220.245361328125,-164.642333984375,-163.177490234375
16.0499999,7.589619159698486,-4.3191399574279785,4.027047157287598,-167.8009033203125,-148.040771484375,-153.38134765625
16.0699999,4.3622355461120605,-3.445256233215332,2.10210919380188,-102.5848388671875,-122.13134765625,-121.4752197265625
16.089999900000002,2.030282974243164,-2.52109432220459,0.6416460275650024,-84.747314453125,-87.982177734375,-86.7462158203125
16.109999900000002,0.8212111592292786,-1.6543933153152466,-0.4141969084739685,-96.0845947265625,-56.0150146484375,-68.0999755859375
16.1299999,0.7924807667732239,-0.8427590131759644,-1.1994950771331787,-75.0274658203125,-34.4696044921875,-46.1578369140625
16.1499999,1.8267759084701538,-0.30885201692581177,-1.7477672100067139,-45.440673828125,-19.0277099609375,-24.1241455078125
16.1699999,3.533841609954834,-0.0454898327589035,-2.1499931812286377,-46.6766357421875,-2.899169921875,-16.2200927734375
16.1899999,5.521028995513916,-0.12449848651885986,-2.8155810832977295,-58.563232421875,18.890380859375,-18.6920166015625
16.2099999,7.333439826965332,-0.5195417404174805,-3.3949780464172363,-47.8057861328125,47.607421875,-14.7247314453125
16.2299999,8.540117263793945,-1.0558429956436157,-3.6152446269989014,-28.778076171875,55.23681640625,-2.25830078125
16.249999900000002,9.191340446472168,-1.7501614093780518,-3.3854012489318848,-25.970458984375,47.8515625,2.62451171875
16.269999900000002,9.327810287475586,-2.319981336593628,-2.4205379486083984,-18.3868408203125,30.70068359375,-1.4801025390625
16.2899999,9.351752281188965,-2.6240451335906982,-1.280897855758667,-4.45556640625,11.627197265625,-1.2664794921875
16.3099999,9.521739959716797,-2.715024709701538,-0.42377370595932007,2.99072265625,11.04736328125,-5.5999755859375
16.3299999,9.81143856048584,-2.5234885215759277,0.1388636976480484,3.4027099609375,21.7132568359375,-16.3116455078125
16.3499999,10.098742485046387,-2.2361843585968018,0.36152446269989014,-3.1280517578125,25.5279541015625,-23.62060546875
16.3699999,10.232817649841309,-1.9393033981323242,0.49799394607543945,-2.777099609375,21.6827392578125,-21.4996337890625
16.3899999,10.160991668701172,-1.7717092037200928,0.6153098344802856,7.6751708984375,18.4173583984375,-14.801025390625
16.4099999,9.974244117736816,-1.7357962131500244,0.667982280254364,24.0936279296875,17.9290771484375,-10.040283203125
16.429999900000002,9.739612579345703,-1.699883222579956,0.6105214357376099,37.2161865234375,15.9759521484375,-7.843017578125
16.4499999,9.48343276977539,-1.6280571222305298,0.5267243981361389,31.79931640625,11.90185546875,-9.09423828125
16.4699999,9.222464561462402,-1.5825673341751099,0.5195417404174805,13.916015625,8.8043212890625,-11.1541748046875
16.4899999,8.990227699279785,-1.6136919260025024,0.5889736413955688,7.75146484375,7.50732421875,-9.765625
16.5099999,8.832210540771484,-1.7621324062347412,0.7398083209991455,17.486572265625,7.171630859375,-6.9122314453125
16.5299999,8.796297073364258,-1.9704279899597168,0.9074024558067322,26.6265869140625,7.9193115234375,-5.2490234375
16.5499999,8.882488250732422,-2.1523873805999756,1.036689281463623,25.0091552734375,8.148193359375,-4.6844482421875
16.5699999,9.093177795410156,-2.279279947280884,1.2186486721038818,14.1448974609375,8.23974609375,-4.0283203125
16.589999900000002,9.397241592407227,-2.3511061668395996,1.4293384552001953,4.7149658203125,8.6212158203125,-4.0283203125
16.609999900000002,9.703699111938477,-2.434903144836426,1.580173134803772,7.3089599609375,9.4146728515625,-3.60107421875
16.6299999,9.967061996459961,-2.4875755310058594,1.580173134803772,15.045166015625,8.97216796875,1.5106201171875
16.6499999,10.156203269958496,-2.497152328491211,1.4389152526855469,12.847900390625,6.0272216796875,6.3934326171875
16.6699999,10.266336441040039,-2.4612393379211426,1.235408067703247,5.06591796875,1.8768310546875,7.2479248046875
16.6899999,10.314221382141113,-2.4133553504943848,1.072602391242981,2.6092529296875,-0.457763671875,7.14111328125
16.7099999,10.29746150970459,-2.4157495498657227,1.0247182846069336,5.3558349609375,-0.4425048828125,7.8125
16.7299999,10.20648193359375,-2.4875755310058594,1.0845733880996704,5.5694580078125,0.9307861328125,6.988525390625
16.749999900000002,10.002974510192871,-2.628833532333374,1.1851298809051514,4.638671875,2.44140625,3.72314453125
16.769999900000002,9.703699111938477,-2.7748796939849854,1.290474772453308,6.4239501953125,2.960205078125,1.3885498046875
16.7899999,9.363722801208496,-2.875436305999756,1.3335703611373901,5.7373046875,3.082275390625,1.4495849609375
16.8099999,9.035717010498047,-2.894589900970459,1.3000515699386597,0.79345703125,4.0130615234375,1.983642578125
16.8299999,8.789113998413086,-2.7988216876983643,1.1803414821624756,-3.35693359375,5.889892578125,1.77001953125
16.8499999,8.633491516113281,-2.6168625354766846,1.0031704902648926,-6.3323974609375,8.4075927734375,1.861572265625
16.8699999,8.571242332458496,-2.4157495498657227,0.8164227604866028,-9.0789794921875,10.9100341796875,4.1046142578125
16.8899999,8.552088737487793,-2.2912509441375732,0.6129156351089478,-8.4381103515625,13.4429931640625,8.544921875
16.9099999,8.540117263793945,-2.3080103397369385,0.42616790533065796,-4.180908203125,16.6015625,14.5263671875
16.929999900000002,8.516175270080566,-2.5234885215759277,0.2968810200691223,-3.509521484375,19.1192626953125,20.751953125
16.9499999,8.429984092712402,-2.964021682739258,0.2059013396501541,-7.9803466796875,21.3165283203125,27.740478515625
16.9699999,8.257601737976074,-3.6104562282562256,0.14365209639072418,-15.655517578125,23.6663818359375,37.4908447265625
16.9899999,7.982268333435059,-4.4532151222229,-0.016759412363171577,-30.33447265625,28.62548828125,50.0640869140625
17.0099999,7.60637903213501,-5.430049419403076,-0.2825157940387726,-55.328369140625,37.0635986328125,64.5904541015625
17.0299999,7.108384609222412,-6.445190906524658,-0.6727706789970398,-89.599609375,50.2471923828125,81.0394287109375
17.0499999,6.5481414794921875,-7.378929615020752,-1.1013327836990356,-133.3465576171875,68.084716796875,96.2677001953125
17.0699999,5.861005783081055,-8.183381080627441,-1.4173674583435059,-176.9256591796875,87.0513916015625,106.597900390625
17.089999900000002,5.073313236236572,-8.734047889709473,-1.4508862495422363,-213.5009765625,105.52978515625,117.85888671875
17.109999900000002,4.113238334655762,-8.968679428100586,-1.213860273361206,-231.536865234375,121.52099609375,134.002685546875
17.1299999,2.9520506858825684,-8.779537200927734,-0.6943184733390808,-234.893798828125,133.9874267578125,157.71484375
17.1499999,1.5945383310317993,-8.054094314575195,-0.0694318488240242,-232.9559326171875,143.8446044921875,188.751220703125
17.1699999,0.028730420395731926,-6.878541469573975,0.6129156351089478,-235.687255859375,155.364990234375,230.28564453125
17.1899999,-1.647210717201233,-5.48272180557251,1.4077905416488647,-231.6741943359375,167.327880859375,286.712646484375
17.2099999,-3.2824504375457764,-4.156333923339844,2.4181437492370605,-203.7506103515625,180.17578125,352.630615234375
17.2299999,-4.733336925506592,-3.268085241317749,3.804386615753174,-155.609130859375,197.9522705078125,411.92626953125
17.249999900000002,-5.700594425201416,-3.023876667022705,5.631162166595459,-91.97998046875,216.339111328125,460.845947265625
17.269999900000002,-6.129156112670898,-3.5218706130981445,8.015787124633789,-15.5487060546875,225.2349853515625,490.203857421875
17.2899999,-5.793968200683594,-4.8722004890441895,11.05402946472168,61.9354248046875,222.747802734375,481.7657470703125
17.3099999,-4.201824188232422,-7.5417351722717285,15.109807014465332,126.0223388671875,209.930419921875,435.5316162109375
17.3299999,-1.0247182846069336,-11.54005241394043,19.771318435668945,210.8612060546875,177.1240234375,374.3743896484375
17.3499999,3.8067808151245117,-16.323667526245117,24.36339569091797,324.7528076171875,89.569091796875,290.9088134765625
17.3699999,9.603142738342285,-21.08094596862793,28.162994384765625,360.1226806640625,-72.662353515625,175.262451171875
17.3899999,14.647726058959961,-24.554933547973633,30.533254623413086,276.8707275390625,-257.5225830078125,66.436767578125
17.409999900000003,17.73385238647461,-26.1279239654541,31.818941116333008,183.2733154296875,-403.106689453125,-15.56396484375
17.429999900000002,17.724275588989258,-26.412832260131836,33.039981842041016,150.5584716796875,-487.579345703125,-100.5096435546875
17.4499999,14.609418869018555,-26.61394691467285,35.465309143066406,181.8389892578125,-500,-190.0482177734375
17.4699999,8.135497093200684,-28.6849308013916,39.84909439086914,272.003173828125,-500,-279.72412109375
17.4899999,-1.5514427423477173,-32.467769622802734,44.422019958496094,443.206787109375,-500,-329.132080078125
17.5099999,-13.03164005279541,-35.881900787353516,46.73481750488281,499.9847412109375,-500,-281.5704345703125
17.5299999,-24.906879425048828,-36.64086151123047,43.70854568481445,349.2431640625,-500,-199.432373046875
17.5499999,-34.16046905517578,-33.4278450012207,33.84922409057617,83.404541015625,-500,-145.3094482421875
17.5699999,-38.75973129272461,-25.70414924621582,19.594146728515625,-50.0335693359375,-381.34765625,-16.876220703125
17.589999900000002,-38.41496658325195,-16.496049880981445,5.240907669067383,-108.2763671875,-225.9063720703125,97.0916748046875
17.609999900000002,-33.78936767578125,-7.927201747894287,-5.8203043937683105,-123.504638671875,-82.275390625,126.373291015625
17.6299999,-26.00581932067871,-1.3958195447921753,-10.948684692382812,-89.7674560546875,-14.1143798828125,138.7786865234375
17.6499999,-16.728286743164062,2.0374655723571777,-10.807426452636719,-80.8258056640625,-2.655029296875,103.515625
17.6699999,-7.026981830596924,2.782062292098999,-7.254431247711182,-95.1385498046875,7.0953369140625,48.553466796875
17.6899999,1.9105730056762695,1.845929503440857,-2.2026655673980713,-90.789794921875,15.472412109375,2.3956298828125
17.7099999,8.868123054504395,0.2322375625371933,2.5522189140319824,-66.0247802734375,15.4876708984375,-22.94921875
17.7299999,13.273454666137695,-1.3311761617660522,5.959167957305908,-42.1142578125,10.223388671875,-27.4200439453125
17.749999900000002,15.222334861755371,-2.449268341064453,7.565677165985107,-35.4766845703125,1.953125,-24.505615234375
17.769999900000002,15.356410026550293,-3.090914487838745,7.529764175415039,-58.807373046875,-8.3465576171875,-25.6195068359375
17.7899999,14.45619010925293,-3.2632968425750732,6.466738700866699,-105.8502197265625,-16.876220703125,-31.0821533203125
17.8099999,13.168108940124512,-3.2824504375457764,5.003881454467773,-155.975341796875,-18.0206298828125,-44.8150634765625
17.8299999,11.8225679397583,-3.332728862762451,3.7493197917938232,-179.3365478515625,-10.92529296875,-57.1746826171875
17.8499999,10.577583312988281,-3.5003228187561035,2.8658595085144043,-148.98681640625,-7.781982421875,-51.69677734375
17.8699999,9.488221168518066,-3.622427225112915,2.3032219409942627,-86.090087890625,-15.44189453125,-32.0281982421875
17.8899999,8.578424453735352,-3.397372245788574,1.9105730056762695,-53.5736083984375,-27.64892578125,-18.1884765625
17.909999900000003,7.94635534286499,-2.853888511657715,1.3910311460494995,-68.2373046875,-31.4788818359375,-19.775390625
17.929999900000002,7.544129371643066,-2.0853497982025146,0.7757213711738586,-90.9881591796875,-30.3192138671875,-15.7012939453125
17.9499999,7.429207801818848,-1.4700398445129395,0.15322890877723694,-92.529296875,-27.557373046875,0.3662109375
17.9699999,7.630321025848389,-1.278503656387329,-0.35673606395721436,-82.2296142578125,-17.669677734375,9.46044921875
17.9899999,8.075642585754395,-1.5418659448623657,-0.6224924325942993,-67.93212890625,-4.0435791015625,7.8125
18.0099999,8.662221908569336,-2.1092917919158936,-0.5650315880775452,-43.0908203125,6.6375732421875,10.6048583984375
18.0299999,9.215282440185547,-2.7916390895843506,-0.31364041566848755,-14.3585205078125,13.0157470703125,15.7623291015625
18.0499999,9.531316757202148,-3.4572272300720215,0.15083470940589905,1.1444091796875,17.3797607421875,13.4735107421875
18.0699999,9.548076629638672,-3.890577793121338,0.586579442024231,5.43212890625,18.9666748046875,10.6353759765625
18.089999900000002,9.334992408752441,-4.010287761688232,0.8978256583213806,4.6844482421875,13.00048828125,11.16943359375
18.109999900000002,8.99740982055664,-3.8738183975219727,0.9864110946655273,-4.8980712890625,3.9825439453125,7.4615478515625
18.1299999,8.65982723236084,-3.6128504276275635,0.8427590131759644,-9.9029541015625,0.1373291015625,0.213623046875
18.1499999,8.406042098999023,-3.2632968425750732,0.6224924325942993,0.1068115234375,0.3662109375,-2.777099609375
18.1699999,8.300697326660156,-2.935291290283203,0.44771572947502136,7.537841796875,2.4261474609375,-3.72314453125
18.1899999,8.33182144165039,-2.650381326675415,0.45250412821769714,0.1678466796875,6.591796875,-5.8135986328125
18.2099999,8.47786808013916,-2.4444799423217773,0.6607996821403503,-4.1961669921875,9.9945068359375,-6.65283203125
18.2299999,8.698134422302246,-2.389413356781006,1.0462661981582642,6.16455078125,11.0015869140625,-3.0975341796875
18.249999900000002,8.949525833129883,-2.4803929328918457,1.5203180313110352,18.463134765625,8.7738037109375,3.936767578125
18.269999900000002,9.215282440185547,-2.6671407222747803,1.9297266006469727,20.6146240234375,5.2947998046875,9.796142578125
18.2899999,9.476250648498535,-2.873042106628418,2.1499931812286377,17.76123046875,3.3721923828125,13.5955810546875
18.3099999,9.710882186889648,-3.0190882682800293,2.1284453868865967,21.209716796875,2.8228759765625,14.34326171875
18.3299999,9.871294021606445,-3.0573954582214355,1.98958158493042,22.3388671875,1.373291015625,11.749267578125
18.3499999,9.921571731567383,-3.0095114707946777,1.845929503440857,12.115478515625,-1.007080078125,5.6915283203125
18.3699999,9.832986831665039,-2.935291290283203,1.8483237028121948,0.8087158203125,-2.9449462890625,1.0223388671875
18.3899999,9.674968719482422,-2.8658595085144043,2.0159177780151367,3.60107421875,-4.33349609375,2.105712890625
18.409999900000003,9.44991397857666,-2.8395233154296875,2.2361843585968018,19.012451171875,-5.0811767578125,5.92041015625
18.429999900000002,9.258378028869629,-2.786850690841675,2.389413356781006,24.84130859375,-4.82177734375,9.521484375
18.4499999,9.126696586608887,-2.695871114730835,2.454056739807129,11.0626220703125,-2.777099609375,9.8114013671875
18.4699999,9.064447402954102,-2.604891538619995,2.451662540435791,-3.7841796875,0.274658203125,7.4310302734375
18.4899999,9.042900085449219,-2.6168625354766846,2.454056739807129,-2.5482177734375,2.3651123046875,5.06591796875
18.5099999,9.028534889221191,-2.7533318996429443,2.470816135406494,7.1563720703125,2.7923583984375,5.035400390625
18.5299999,8.992621421813965,-2.9759926795959473,2.4372973442077637,6.8206787109375,2.105712890625,4.2572021484375
18.5499999,8.935160636901855,-3.2106244564056396,2.2697031497955322,-6.0577392578125,1.40380859375,0.91552734375
18.5699999,8.860940933227539,-3.3925838470458984,1.9704279899597168,-17.8985595703125,1.2969970703125,-2.227783203125
18.589999900000002,8.815450668334961,-3.507505416870117,1.5969325304031372,-24.627685546875,4.638671875,-5.157470703125
18.609999900000002,8.743624687194824,-3.598485231399536,1.2425906658172607,-29.6783447265625,11.7340087890625,-6.561279296875
18.6299999,8.592789649963379,-3.73016619682312,0.9241618514060974,-33.447265625,17.852783203125,-1.220703125
18.6499999,8.38688850402832,-3.9432501792907715,0.6799532771110535,-32.9132080078125,18.280029296875,14.1143798828125
18.6699999,8.085219383239746,-4.2975921630859375,0.4429273009300232,-32.257080078125,18.5089111328125,33.1268310546875
18.6899999,7.671022415161133,-4.843470096588135,0.2537853717803955,-37.750244140625,22.5372314453125,43.731689453125
18.7099999,7.022193431854248,-5.501875400543213,0.021547814831137657,-62.408447265625,31.4788818359375,48.5382080078125
18.7299999,5.9519853591918945,-6.323086738586426,-0.33039984107017517,-107.8033447265625,47.7447509765625,52.79541015625
18.749999900000002,4.3406877517700195,-7.206547260284424,-0.8044517636299133,-149.9786376953125,73.2421875,59.9365234375
18.769999900000002,2.145204782485962,-7.9631147384643555,-1.4628572463989258,-176.0711669921875,112.823486328125,80.01708984375
18.7899999,-0.4596867263317108,-8.374917984008789,-2.121262788772583,-189.5751953125,163.7115478515625,118.83544921875
18.8099999,-3.2130186557769775,-8.08282470703125,-2.537853717803955,-195.3277587890625,215.4083251953125,174.1180419921875
18.8299999,-5.870582580566406,-7.091625213623047,-2.5689783096313477,-207.275390625,261.16943359375,232.48291015625
18.8499999,-8.010998725891113,-5.585672378540039,-1.9129672050476074,-229.705810546875,301.1322021484375,294.3878173828125
18.8699999,-9.612719535827637,-4.065354347229004,-0.49320554733276367,-248.8250732421875,334.8236083984375,367.0501708984375
18.8899999,-10.515334129333496,-3.134010076522827,1.7908629179000854,-229.248046875,350.9521484375,441.5130615234375
18.909999900000003,-10.704475402832031,-3.201047658920288,5.1810526847839355,-179.1839599609375,345.123291015625,499.9847412109375
18.929999900000002,-9.832986831665039,-4.570530891418457,10.132261276245117,-136.6729736328125,322.998046875,499.9847412109375
18.9499999,-7.180211067199707,-7.807491779327393,17.24782943725586,-81.97021484375,294.7540283203125,499.9847412109375
18.9699999,-3.0837318897247314,-12.361263275146484,24.60999870300293,86.456298828125,224.7161865234375,499.9847412109375
18.9899999,2.252943754196167,-18.102558135986328,31.610645294189453,247.4365234375,45.440673828125,419.219970703125
19.0099999,7.113173484802246,-23.925256729125977,36.26018524169922,149.4140625,-186.6912841796875,318.5577392578125
19.0299999,10.565611839294434,-29.88921356201172,38.45806121826172,-50.4302978515625,-389.6484375,168.0145263671875
19.0499999,11.60948371887207,-35.34560012817383,39.346309661865234,-66.5283203125,-500,-46.81396484375
19.0699999,9.378087997436523,-40.418914794921875,40.00471496582031,107.269287109375,-500,-248.8250732421875
19.089999900000002,3.361459255218506,-44.32146072387695,40.99831008911133,291.3360595703125,-500,-381.7901611328125
19.109999900000002,-6.327875137329102,-46.136268615722656,41.92247009277344,350.7080078125,-500,-442.5048828125
19.1299999,-18.48084259033203,-44.86973571777344,41.32392120361328,291.44287109375,-500,-437.530517578125
19.1499999,-31.071949005126953,-40.174705505371094,37.79008102416992,169.891357421875,-500,-386.260986328125
19.1699999,-41.38616943359375,-32.51804733276367,29.57796859741211,107.879638671875,-500,-304.13818359375
19.1899999,-47.16816711425781,-22.3139591217041,17.705121994018555,118.7591552734375,-376.40380859375,-139.7857666015625
19.2099999,-47.898399353027344,-11.619060516357422,4.819528102874756,32.928466796875,-272.2930908203125,17.0135498046875
19.2299999,-43.548133850097656,-2.494758129119873,-5.928043365478516,-112.9913330078125,-135.223388671875,74.4476318359375
19.249999900000002,-35.470096588134766,3.3638534545898438,-11.78904914855957,-180.8013916015625,-38.116455078125,97.137451171875
19.269999900000002,-25.309106826782227,4.948814868927002,-12.435483932495117,-141.5557861328125,1.5411376953125,92.864990234375
19.2899999,-14.5806884765625,3.134010076522827,-9.495404243469238,-88.1195068359375,37.506103515625,83.9996337890625
19.3099999,-4.271255970001221,-0.6871358752250671,-4.771644115447998,-78.7506103515625,78.216552734375,57.7392578125
19.3299999,4.69024133682251,-4.829104900360107,0.08858546614646912,-77.7587890625,96.1456298828125,24.078369140625
19.3499999,11.645397186279297,-8.4108304977417,4.125209331512451,-58.441162109375,83.5113525390625,-3.5552978515625
19.3699999,16.251840591430664,-10.927136421203613,7.005434036254883,-33.966064453125,53.0242919921875,-27.130126953125
19.3899999,18.516756057739258,-12.234370231628418,8.707711219787598,-31.3720703125,18.524169921875,-52.8106689453125
19.409999900000003,18.677167892456055,-12.325350761413574,9.327810287475586,-43.060302734375,-14.7705078125,-78.6590576171875
19.429999900000002,17.24543571472168,-11.386823654174805,8.995016098022461,-60.089111328125,-41.6107177734375,-96.7864990234375
19.4499999,14.820108413696289,-9.77791976928711,7.9176249504089355,-83.3282470703125,-57.31201171875,-106.87255859375
19.4699999,11.908759117126465,-7.864952564239502,6.327875137329102,-105.743408203125,-61.09619140625,-106.7962646484375
19.4899999,8.973467826843262,-5.990292549133301,4.563348293304443,-113.6474609375,-57.2052001953125,-95.3521728515625
19.5099999,6.3518171310424805,-4.309563159942627,2.9161376953125,-109.130859375,-48.4161376953125,-73.05908203125
19.5299999,4.290409564971924,-2.9520506858825684,1.6735470294952393,-99.578857421875,-37.506103515625,-47.7294921875
19.5499999,2.956839084625244,-1.9033904075622559,0.8020575642585754,-87.5396728515625,-25.421142578125,-23.834228515625
19.5699999,2.3989901542663574,-1.1444283723831177,0.31603461503982544,-77.3162841796875,-15.228271484375,-3.4942626953125
19.589999900000002,2.5929205417633057,-0.6200982332229614,0.06703764945268631,-76.3702392578125,-4.119873046875,8.880615234375
19.609999900000002,3.423708438873291,-0.3423708379268646,0,-78.5064697265625,12.359619140625,9.918212890625
19.6299999,4.568136692047119,-0.304063618183136,0.004788403399288654,-63.446044921875,29.1748046875,8.60595703125
19.6499999,5.829881191253662,-0.5099649429321289,0.05985504388809204,-30.6396484375,40.7257080078125,12.786865234375
19.6699999,7.003039836883545,-0.8978256583213806,0.16998831927776337,-4.425048828125,47.1649169921875,15.0146484375
19.6899999,8.015787124633789,-1.4269442558288574,0.28730419278144836,6.927490234375,52.2613525390625,6.2713623046875
19.7099999,8.884882926940918,-1.9823989868164062,0.4189853072166443,14.1754150390625,52.6885986328125,-4.2877197265625
19.7299999,9.660603523254395,-2.494758129119873,0.5793967843055725,13.092041015625,48.2940673828125,-8.575439453125
19.749999900000002,10.38844108581543,-2.9688100814819336,0.7829039692878723,3.72314453125,42.6788330078125,-13.916015625
19.769999900000002,11.097125053405762,-3.337517261505127,1.1276689767837524,5.2032470703125,35.186767578125,-20.8740234375
19.7899999,11.745953559875488,-3.584120035171509,1.599326729774475,22.5372314453125,25.604248046875,-21.2860107421875
19.8099999,12.263101577758789,-3.6607344150543213,2.209848165512085,39.276123046875,12.1612548828125,-15.0604248046875
19.8299999,12.516886711120605,-3.550601005554199,2.873042106628418,37.90283203125,-3.662109375,-12.8326416015625
19.8499999,12.48815631866455,-3.287238836288452,3.5027170181274414,19.1497802734375,-16.9525146484375,-18.1427001953125
19.8699999,12.138602256774902,-2.9712042808532715,4.062960147857666,-0.42724609375,-25.7110595703125,-23.101806640625
19.8899999,11.578359603881836,-2.7102363109588623,4.496310710906982,-7.6446533203125,-29.11376953125,-21.5911865234375
19.909999900000003,10.831368446350098,-2.5953147411346436,4.73573112487793,-4.0130615234375,-28.564453125,-14.9993896484375
19.929999900000002,9.998186111450195,-2.6024973392486572,4.788403511047363,3.1585693359375,-25.390625,-5.5694580078125
19.9499999,9.14345645904541,-2.6575639247894287,4.659116744995117,12.2528076171875,-20.751953125,2.9449462890625
19.9699999,8.35097599029541,-2.6886885166168213,4.393360137939453,16.876220703125,-16.17431640625,7.7362060546875
19.9899999,7.694964408874512,-2.674323320388794,4.000710964202881,10.894775390625,-12.3443603515625,8.36181640625
20.0099999,7.2137298583984375,-2.609679937362671,3.5482068061828613,-0.0457763671875,-10.345458984375,7.8582763671875
20.0299999,6.9695210456848145,-2.557007312774658,3.1100680828094482,-6.6986083984375,-8.8653564453125,7.5531005859375
20.0499999,6.92881965637207,-2.542642116546631,2.808398485183716,-6.927490234375,-6.866455078125,7.0037841796875
20.0699999,7.084442615509033,-2.628833532333374,2.7054479122161865,-2.13623046875,-6.439208984375,4.302978515625
20.089999900000002,7.390900611877441,-2.8131868839263916,2.8203697204589844,3.9825439453125,-7.598876953125,2.4566650390625
20.109999900000002,7.829039573669434,-3.0837318897247314,3.0765492916107178,4.39453125,-7.01904296875,1.03759765625
20.1299999,8.312667846679688,-3.4189200401306152,3.3063924312591553,-0.457763671875,-3.47900390625,-1.3885498046875
20.1499999,8.83699893951416,-3.77565598487854,3.3638534545898438,-3.4332275390625,0.1068115234375,-1.922607421875
20.1699999,9.35654067993164,-4.082113742828369,3.1723172664642334,5.2337646484375,-1.3580322265625,0.732421875
20.1899999,9.828198432922363,-4.299986362457275,2.7078421115875244,19.287109375,-3.3721923828125,6.4239501953125
20.2099999,10.180145263671875,-4.37420654296875,2.1380221843719482,27.2369384765625,-4.0283203125,12.51220703125
20.2299999,10.283096313476562,-4.307168960571289,1.5873557329177856,24.0325927734375,-7.1563720703125,15.0146484375
20.249999900000002,10.041281700134277,-4.180276393890381,1.2042834758758545,11.77978515625,-12.3138427734375,13.8092041015625
20.269999900000002,9.478644371032715,-4.055777549743652,0.9983820915222168,0.6866455078125,-16.5252685546875,13.519287109375
