# Time (seconds),Accel_X,Accel_Y,Accel_Z,Gyro_X,Gyro_Y,Gyro_Z
0.0012499,6.981492042541504,-6.811503887176514,1.4748282432556152,2.716064453125,-5.5694580078125,4.9285888671875
0.0037499,6.979097843170166,-6.811503887176514,1.460463047027588,2.593994140625,-5.3253173828125,5.0811767578125
0.0062499,6.976703643798828,-6.809109687805176,1.4508862495422363,2.7313232421875,-5.2032470703125,4.8675537109375
0.0087499,6.967126846313477,-6.813898086547852,1.434126853942871,2.6702880859375,-4.9591064453125,5.0048828125
0.0112499,6.957550048828125,-6.813898086547852,1.4269442558288574,2.685546875,-4.8065185546875,5.0048828125
0.0137499,6.947973251342773,-6.821080684661865,1.4173674583435059,2.99072265625,-4.6234130859375,4.7607421875
0.016249899999999998,6.94079065322876,-6.828263282775879,1.414973258972168,3.0975341796875,-4.364013671875,4.7149658203125
0.0187499,6.933608055114746,-6.833051681518555,1.4173674583435059,3.0670166015625,-4.150390625,4.7607421875
0.021249900000000002,6.936002254486084,-6.833051681518555,1.4221558570861816,3.2501220703125,-3.9825439453125,5.096435546875
0.023749899999999997,6.938396453857422,-6.830657482147217,1.4293384552001953,3.47900390625,-3.90625,4.913330078125
0.0262499,6.943184852600098,-6.825869083404541,1.434126853942871,3.448486328125,-3.60107421875,4.82177734375
0.028749900000000002,6.950367450714111,-6.8162922859191895,1.4413094520568848,3.448486328125,-3.326416015625,4.608154296875
0.031249899999999997,6.959944248199463,-6.811503887176514,1.4484920501708984,3.5858154296875,-3.2958984375,4.6539306640625
0.0337499,6.9695210456848145,-6.8043212890625,1.460463047027588,3.60107421875,-3.0975341796875,4.7454833984375
0.0362499,6.976703643798828,-6.797138690948486,1.4652514457702637,3.72314453125,-2.716064453125,4.791259765625
0.0387499,6.988674640655518,-6.789956092834473,1.4748282432556152,3.7689208984375,-2.532958984375,4.5013427734375
0.0412499,6.993463039398193,-6.780379295349121,1.4772224426269531,3.72314453125,-2.0904541015625,4.5318603515625
0.0437499,7.000645637512207,-6.773196697235107,1.482010841369629,3.814697265625,-2.0751953125,4.364013671875
0.0462499,7.005434036254883,-6.763619899749756,1.4915876388549805,3.8299560546875,-1.922607421875,4.3487548828125
0.0487499,7.003039836883545,-6.761225700378418,1.50355863571167,3.72314453125,-1.556396484375,4.180908203125
0.0512499,7.003039836883545,-6.756437301635742,1.5203180313110352,3.7078857421875,-1.2664794921875,4.150390625
0.053749899999999996,6.9910688400268555,-6.75883150100708,1.5322890281677246,3.5858154296875,-1.0528564453125,4.1656494140625
0.0562499,6.976703643798828,-6.761225700378418,1.5394717454910278,3.570556640625,-0.640869140625,4.150390625
0.0587499,6.967126846313477,-6.766014099121094,1.5418659448623657,3.4637451171875,-0.6866455078125,4.2266845703125
0.061249899999999996,6.955155849456787,-6.766014099121094,1.53707754611969,3.3416748046875,-0.42724609375,4.1046142578125
0.0637499,6.947973251342773,-6.761225700378418,1.5394717454910278,3.326416015625,-0.213623046875,4.058837890625
0.0662499,6.943184852600098,-6.751648902893066,1.53707754611969,3.3721923828125,-0.1983642578125,3.7841796875
0.0687499,6.938396453857422,-6.742072105407715,1.5394717454910278,3.173828125,0.1220703125,3.84521484375
0.0712499,6.933608055114746,-6.737283706665039,1.5442601442337036,3.173828125,0.18310546875,3.662109375
0.0737499,6.933608055114746,-6.730101108551025,1.5442601442337036,3.0975341796875,0.3509521484375,3.448486328125
0.0762499,6.9240312576293945,-6.72531270980835,1.5466543436050415,3.021240234375,0.42724609375,3.5858154296875
0.0787499,6.916848659515381,-6.718130111694336,1.5466543436050415,2.9754638671875,0.701904296875,3.41796875
0.0812499,6.907271862030029,-6.71334171295166,1.5490485429763794,2.777099609375,0.9002685546875,3.173828125
0.0837499,6.900089263916016,-6.708553314208984,1.5466543436050415,3.0517578125,0.640869140625,3.47900390625
0.0862499,6.897695064544678,-6.708553314208984,1.5538369417190552,3.3111572265625,0.6256103515625,3.35693359375
0.0887499,6.897695064544678,-6.710947513580322,1.5514427423477173,3.11279296875,0.8087158203125,3.23486328125
0.0912499,6.897695064544678,-6.71334171295166,1.5610195398330688,2.9144287109375,0.7781982421875,2.960205078125
0.0937499,6.900089263916016,-6.718130111694336,1.5682021379470825,2.74658203125,0.91552734375,2.899169921875
0.0962499,6.907271862030029,-6.720524311065674,1.5849615335464478,2.86865234375,0.7171630859375,2.960205078125
0.0987499,6.919242858886719,-6.72531270980835,1.599326729774475,2.9754638671875,0.8392333984375,2.8228759765625
0.1012499,6.938396453857422,-6.7277069091796875,1.6136919260025024,3.0670166015625,0.67138671875,3.082275390625
0.1037499,6.957550048828125,-6.730101108551025,1.6184803247451782,2.9449462890625,0.6103515625,2.9754638671875
0.1062499,6.971915245056152,-6.722918510437012,1.625662922859192,3.0975341796875,0.8392333984375,2.99072265625
0.1087499,6.983886241912842,-6.718130111694336,1.6304513216018677,3.1890869140625,0.732421875,3.0364990234375
0.1112499,6.988674640655518,-6.71334171295166,1.6376339197158813,2.99072265625,0.732421875,3.0059814453125
0.1137499,6.998251438140869,-6.710947513580322,1.6519991159439087,3.0059814453125,0.6256103515625,3.11279296875
0.1162499,7.005434036254883,-6.708553314208984,1.6615760326385498,2.99072265625,0.6866455078125,3.326416015625
0.1187499,7.015010833740234,-6.710947513580322,1.6759412288665771,3.0364990234375,0.5340576171875,3.2958984375
0.1212499,7.026981830596924,-6.710947513580322,1.6855180263519287,3.0975341796875,0.42724609375,3.23486328125
0.1237499,7.038952827453613,-6.71334171295166,1.6950948238372803,2.960205078125,0.4425048828125,3.3111572265625
0.1262499,7.053318023681641,-6.722918510437012,1.702277421951294,2.8076171875,0.335693359375,3.3416748046875
0.1287499,7.070077419281006,-6.730101108551025,1.7070658206939697,2.838134765625,0.274658203125,3.448486328125
0.1312499,7.084442615509033,-6.739677906036377,1.7118542194366455,2.777099609375,0.1220703125,3.570556640625
0.1337499,7.103596210479736,-6.742072105407715,1.7118542194366455,2.685546875,-0.0152587890625,3.5247802734375
0.1362499,7.113173484802246,-6.744466304779053,1.7118542194366455,2.6397705078125,-0.091552734375,3.3721923828125
0.1387499,7.117961883544922,-6.742072105407715,1.7094600200653076,2.7313232421875,-0.06103515625,3.662109375
0.1412499,7.12035608291626,-6.742072105407715,1.7070658206939697,2.62451171875,-0.244140625,3.7689208984375
0.1437499,7.110779285430908,-6.739677906036377,1.7046716213226318,2.7008056640625,-0.48828125,3.7078857421875
0.1462499,7.101202011108398,-6.744466304779053,1.699883222579956,2.7008056640625,-0.640869140625,3.631591796875
0.1487499,7.094019412994385,-6.7492547035217285,1.6950948238372803,2.6092529296875,-0.762939453125,3.753662109375
0.1512499,7.089231014251709,-6.756437301635742,1.6903064250946045,2.38037109375,-1.03759765625,3.5858154296875
0.1537499,7.089231014251709,-6.754043102264404,1.6879122257232666,2.288818359375,-1.312255859375,3.5552978515625
0.1562499,7.0988078117370605,-6.751648902893066,1.6927006244659424,2.166748046875,-1.3275146484375,3.7078857421875
0.1587499,7.103596210479736,-6.7492547035217285,1.702277421951294,2.166748046875,-1.739501953125,3.7841796875
0.1612499,7.108384609222412,-6.7492547035217285,1.7118542194366455,1.861572265625,-1.9989013671875,3.753662109375
0.1637499,7.110779285430908,-6.75883150100708,1.7190368175506592,1.4190673828125,-1.983642578125,3.662109375
0.1662499,7.105990409851074,-6.768408298492432,1.7166426181793213,1.4190673828125,-2.25830078125,3.8604736328125
0.1687499,7.094019412994385,-6.780379295349121,1.699883222579956,1.220703125,-2.716064453125,3.997802734375
0.1712499,7.089231014251709,-6.782773494720459,1.6855180263519287,1.1749267578125,-2.655029296875,3.96728515625
0.1737499,7.084442615509033,-6.782773494720459,1.6711528301239014,0.6866455078125,-2.716064453125,3.9825439453125
0.17624990000000001,7.089231014251709,-6.780379295349121,1.656787633895874,0.42724609375,-3.0364990234375,3.7078857421875
0.1787499,7.091625213623047,-6.775590896606445,1.644816517829895,0.0152587890625,-3.204345703125,3.90625
0.1812499,7.101202011108398,-6.7708024978637695,1.6400281190872192,-0.274658203125,-3.3416748046875,3.8604736328125
0.1837499,7.105990409851074,-6.7708024978637695,1.6376339197158813,-0.5035400390625,-3.631591796875,3.875732421875
0.1862499,7.108384609222412,-6.7708024978637695,1.6424223184585571,-0.7781982421875,-3.84521484375,3.72314453125
0.1887499,7.113173484802246,-6.775590896606445,1.6519991159439087,-1.129150390625,-3.8604736328125,3.5858154296875
0.1912499,7.110779285430908,-6.782773494720459,1.6615760326385498,-1.46484375,-4.1046142578125,3.47900390625
0.1937499,7.117961883544922,-6.789956092834473,1.6735470294952393,-1.77001953125,-4.2724609375,3.2196044921875
0.1962499,7.1251444816589355,-6.8043212890625,1.6831238269805908,-2.1514892578125,-4.2877197265625,3.2501220703125
0.1987499,7.137115478515625,-6.811503887176514,1.6903064250946045,-2.01416015625,-4.486083984375,3.2196044921875
0.2012499,7.151480674743652,-6.825869083404541,1.699883222579956,-2.0751953125,-4.4403076171875,2.86865234375
0.2037499,7.163451671600342,-6.835445880889893,1.7046716213226318,-2.3345947265625,-4.730224609375,2.86865234375
0.2062499,7.177816867828369,-6.84981107711792,1.7070658206939697,-2.288818359375,-4.6844482421875,2.777099609375
0.20874990000000002,7.189787864685059,-6.856993675231934,1.7070658206939697,-2.3040771484375,-4.7607421875,2.471923828125
0.2112499,7.196970462799072,-6.868964672088623,1.702277421951294,-2.3040771484375,-4.94384765625,2.2735595703125
0.2137499,7.204153060913086,-6.878541469573975,1.699883222579956,-2.3956298828125,-5.0811767578125,2.105712890625
0.2162499,7.2113356590271,-6.892906665802002,1.6927006244659424,-2.3956298828125,-5.1116943359375,1.6937255859375
0.2187499,7.2113356590271,-6.909666061401367,1.6903064250946045,-2.2430419921875,-5.43212890625,1.617431640625
0.2212499,7.208941459655762,-6.926425457000732,1.6855180263519287,-2.044677734375,-5.3863525390625,1.4190673828125
0.2237499,7.204153060913086,-6.9455790519714355,1.6903064250946045,-1.9378662109375,-5.340576171875,1.2054443359375
0.2262499,7.19936466217041,-6.964732646942139,1.6927006244659424,-1.7547607421875,-5.6915283203125,1.2054443359375
0.2287499,7.1921820640563965,-6.983886241912842,1.6927006244659424,-1.556396484375,-5.7525634765625,1.0528564453125
0.2312499,7.189787864685059,-7.003039836883545,1.6950948238372803,-1.5106201171875,-5.6915283203125,1.007080078125
0.2337499,7.180211067199707,-7.022193431854248,1.6950948238372803,-1.0528564453125,-5.889892578125,0.7781982421875
0.2362499,7.175422668457031,-7.036558628082275,1.6950948238372803,-0.8544921875,-6.04248046875,0.732421875
0.23874990000000001,7.168240070343018,-7.038952827453613,1.6950948238372803,-0.701904296875,-5.92041015625,0.518798828125
0.2412499,7.1706342697143555,-7.041347026824951,1.6903064250946045,-0.396728515625,-5.9814453125,0.3662109375
0.2437499,7.173028469085693,-7.0341644287109375,1.6879122257232666,-0.1678466796875,-5.950927734375,0.213623046875
0.2462499,7.182605266571045,-7.0317702293396,1.6831238269805908,-0.1220703125,-5.8746337890625,0.18310546875
0.2487499,7.184999465942383,-7.026981830596924,1.6759412288665771,0.1983642578125,-6.1798095703125,0.152587890625
0.2512499,7.184999465942383,-7.022193431854248,1.6639702320098877,0.518798828125,-6.195068359375,-0.030517578125
0.25374990000000003,7.175422668457031,-7.017405033111572,1.6496049165725708,0.823974609375,-6.256103515625,-0.1678466796875
0.25624990000000003,7.16584587097168,-7.015010833740234,1.6304513216018677,0.9613037109375,-6.2255859375,-0.274658203125
0.25874990000000003,7.151480674743652,-7.010222434997559,1.6208745241165161,0.9307861328125,-6.2255859375,-0.3662109375
0.26124990000000003,7.137115478515625,-7.005434036254883,1.6112977266311646,1.190185546875,-6.4544677734375,-0.4425048828125
0.26374990000000004,7.127538681030273,-6.993463039398193,1.6112977266311646,1.3580322265625,-6.591796875,-0.6256103515625
0.26624990000000004,7.122750282287598,-6.98628044128418,1.6112977266311646,1.4801025390625,-6.3629150390625,-0.8087158203125
0.26874990000000004,7.122750282287598,-6.9695210456848145,1.6089035272598267,1.4190673828125,-6.3323974609375,-0.9307861328125
0.27124990000000004,7.1251444816589355,-6.957550048828125,1.599326729774475,1.3427734375,-6.591796875,-1.0528564453125
0.27374990000000005,7.1251444816589355,-6.936002254486084,1.5849615335464478,1.64794921875,-6.4697265625,-1.220703125
0.27624990000000005,7.127538681030273,-6.919242858886719,1.5658079385757446,1.6021728515625,-6.40869140625,-1.3275146484375
0.27874990000000005,7.1251444816589355,-6.900089263916016,1.5466543436050415,1.5869140625,-6.4849853515625,-1.5411376953125
0.28124990000000005,7.122750282287598,-6.876147270202637,1.5298948287963867,1.40380859375,-6.500244140625,-1.739501953125
0.28374990000000005,7.115567684173584,-6.852205276489258,1.5155296325683594,1.2664794921875,-6.53076171875,-1.7852783203125
0.28624990000000006,7.110779285430908,-6.828263282775879,1.4963760375976562,1.1749267578125,-6.500244140625,-1.9378662109375
0.28874990000000006,7.103596210479736,-6.8043212890625,1.482010841369629,1.1749267578125,-6.4239501953125,-2.166748046875
0.2912499,7.094019412994385,-6.785167694091797,1.4628572463989258,1.129150390625,-6.40869140625,-2.5634765625
0.2937499,7.086836814880371,-6.766014099121094,1.4437036514282227,0.91552734375,-6.5460205078125,-2.5177001953125
0.2962499,7.0772600173950195,-6.7492547035217285,1.4269442558288574,0.3814697265625,-6.4544677734375,-2.9296875
0.2987499,7.070077419281006,-6.734889507293701,1.4101848602294922,0.152587890625,-6.5155029296875,-3.082275390625
0.3012499,7.060500621795654,-6.722918510437012,1.403002142906189,0.06103515625,-6.77490234375,-3.0670166015625
0.3037499,7.0557122230529785,-6.718130111694336,1.400607943534851,-0.18310546875,-6.5460205078125,-3.11279296875
0.3062499,7.053318023681641,-6.71334171295166,1.400607943534851,-0.396728515625,-6.317138671875,-3.326416015625
0.3087499,7.046135425567627,-6.710947513580322,1.4077905416488647,-0.67138671875,-6.317138671875,-3.5552978515625
0.3112499,7.048529624938965,-6.703764915466309,1.4077905416488647,-0.8087158203125,-6.5155029296875,-3.662109375
0.3137499,7.043741226196289,-6.698976516723633,1.4077905416488647,-1.1444091796875,-6.5155029296875,-3.753662109375
0.31624990000000003,7.043741226196289,-6.687005519866943,1.403002142906189,-1.46484375,-6.40869140625,-3.8909912109375
0.31874990000000003,7.041347026824951,-6.677428722381592,1.3982137441635132,-1.708984375,-6.16455078125,-3.9825439453125
0.32124990000000003,7.038952827453613,-6.672640323638916,1.3886369466781616,-1.861572265625,-6.16455078125,-4.058837890625
0.32374990000000003,7.0341644287109375,-6.66785192489624,1.3766659498214722,-1.953125,-6.1187744140625,-4.119873046875
0.32624990000000004,7.026981830596924,-6.6630635261535645,1.3670891523361206,-2.1820068359375,-6.3323974609375,-4.241943359375
0.32874990000000004,7.01979923248291,-6.665457725524902,1.357512354850769,-2.25830078125,-6.1798095703125,-4.425048828125
0.33124990000000004,7.015010833740234,-6.665457725524902,1.3527239561080933,-2.3651123046875,-6.04248046875,-4.4708251953125
0.33374990000000004,7.0126166343688965,-6.670246124267578,1.3503297567367554,-2.5482177734375,-6.04248046875,-4.3792724609375
0.33624990000000005,7.0126166343688965,-6.682217121124268,1.3455413579940796,-2.7008056640625,-5.889892578125,-4.638671875
0.33874990000000005,7.010222434997559,-6.691793918609619,1.3407529592514038,-2.5787353515625,-5.7373046875,-4.5318603515625
0.34124990000000005,7.007828235626221,-6.703764915466309,1.335964560508728,-2.471923828125,-5.7373046875,-4.5013427734375
0.34374990000000005,7.000645637512207,-6.715735912322998,1.3263877630233765,-2.4871826171875,-5.6304931640625,-4.6234130859375
0.34624990000000005,6.995857238769531,-6.72531270980835,1.3239935636520386,-2.2735595703125,-5.7220458984375,-4.5928955078125
0.34874990000000006,6.9910688400268555,-6.7277069091796875,1.3239935636520386,-2.0904541015625,-5.4931640625,-4.2724609375
0.35124990000000006,6.993463039398193,-6.722918510437012,1.3311761617660522,-2.2125244140625,-5.37109375,-4.1961669921875
0.3537499,6.995857238769531,-6.71334171295166,1.3431471586227417,-2.1820068359375,-5.340576171875,-4.2724609375
0.3562499,7.000645637512207,-6.703764915466309,1.3623007535934448,-1.8157958984375,-5.157470703125,-4.2572021484375
0.3587499,7.005434036254883,-6.689399719238281,1.3742717504501343,-1.7852783203125,-4.974365234375,-4.058837890625
0.3612499,7.007828235626221,-6.687005519866943,1.381454348564148,-1.6021728515625,-4.8370361328125,-4.0435791015625
0.3637499,7.005434036254883,-6.682217121124268,1.3838485479354858,-1.4495849609375,-4.7607421875,-3.7841796875
0.3662499,7.005434036254883,-6.67982292175293,1.37906014919281,-1.3275146484375,-4.69970703125,-3.7689208984375
0.3687499,7.005434036254883,-6.677428722381592,1.3742717504501343,-1.03759765625,-4.241943359375,-3.662109375
0.3712499,7.003039836883545,-6.675034523010254,1.3694833517074585,-0.885009765625,-4.0130615234375,-3.35693359375
0.3737499,6.995857238769531,-6.6630635261535645,1.359906554222107,-0.823974609375,-3.8909912109375,-3.265380859375
0.3762499,6.983886241912842,-6.655880928039551,1.359906554222107,-0.5645751953125,-3.9215087890625,-3.265380859375
0.37874990000000003,6.950367450714111,-6.631938934326172,1.3455413579940796,-0.2288818359375,-3.4637451171875,-3.326416015625
0.38124990000000003,6.943184852600098,-6.624756336212158,1.338358759880066,0.1220703125,-3.265380859375,-3.143310546875
0.38374990000000003,6.936002254486084,-6.62236213684082,1.3239935636520386,0.152587890625,-3.41796875,-3.11279296875
0.38624990000000003,6.933608055114746,-6.62236213684082,1.314416766166687,0.18310546875,-3.0517578125,-2.960205078125
0.38874990000000004,6.926425457000732,-6.627150535583496,1.3072341680526733,0.518798828125,-2.7618408203125,-2.899169921875
0.39124990000000004,6.921637058258057,-6.636727333068848,1.3072341680526733,0.67138671875,-2.6397705078125,-2.777099609375
0.39374990000000004,6.912060260772705,-6.643909931182861,1.3096283674240112,0.7171630859375,-2.349853515625,-2.8076171875
0.39624990000000004,6.907271862030029,-6.651092529296875,1.316810965538025,0.885009765625,-2.288818359375,-2.5177001953125
0.39874990000000005,6.904877662658691,-6.655880928039551,1.3311761617660522,0.946044921875,-1.983642578125,-2.3956298828125
0.40124990000000005,6.900089263916016,-6.655880928039551,1.3479355573654175,1.1138916015625,-1.922607421875,-2.288818359375
0.40374990000000005,6.900089263916016,-6.653486728668213,1.3670891523361206,1.220703125,-1.7852783203125,-2.166748046875
0.40624990000000005,6.897695064544678,-6.651092529296875,1.3838485479354858,1.3885498046875,-1.678466796875,-1.77001953125
0.40874990000000005,6.888118267059326,-6.643909931182861,1.3958195447921753,1.4190673828125,-1.40380859375,-1.9378662109375
0.41124990000000006,6.878541469573975,-6.63433313369751,1.4077905416488647,1.5106201171875,-1.190185546875,-1.8157958984375
0.41374990000000006,6.868964672088623,-6.62236213684082,1.4077905416488647,1.6632080078125,-1.0986328125,-1.46484375
0.41624990000000006,6.861782073974609,-6.6127848625183105,1.4077905416488647,1.800537109375,-0.7476806640625,-1.3885498046875
0.4187499,6.852205276489258,-6.598419666290283,1.3982137441635132,1.7242431640625,-0.4730224609375,-1.251220703125
0.4212499,6.852205276489258,-6.581660270690918,1.3886369466781616,1.8157958984375,-0.48828125,-1.1749267578125
0.4237499,6.847416877746582,-6.5696892738342285,1.3694833517074585,1.861572265625,-0.2899169921875,-1.007080078125
0.4262499,6.84981107711792,-6.555324077606201,1.3527239561080933,2.0599365234375,-0.0457763671875,-0.79345703125
0.4287499,6.847416877746582,-6.543353080749512,1.3335703611373901,1.861572265625,-0.0152587890625,-0.5645751953125
0.4312499,6.847416877746582,-6.536170482635498,1.3192051649093628,1.7547607421875,0.274658203125,-0.7781982421875
0.4337499,6.835445880889893,-6.5265936851501465,1.3120225667953491,1.708984375,0.396728515625,-0.8697509765625
0.4362499,6.828263282775879,-6.521805286407471,1.3048399686813354,2.01416015625,0.2593994140625,-0.3662109375
0.4387499,6.811503887176514,-6.519411087036133,1.3000515699386597,1.800537109375,0.4119873046875,-0.3204345703125
0.44124990000000003,6.806715488433838,-6.514622688293457,1.3000515699386597,1.64794921875,0.701904296875,-0.1068115234375
0.44374990000000003,6.801927089691162,-6.512228488922119,1.2976573705673218,1.708984375,0.5950927734375,0.213623046875
0.44624990000000003,6.799532890319824,-6.512228488922119,1.3024457693099976,1.40380859375,0.701904296875,0.152587890625
0.44874990000000003,6.799532890319824,-6.509834289550781,1.3048399686813354,1.190185546875,1.1749267578125,0.152587890625
0.45124990000000004,6.797138690948486,-6.509834289550781,1.3072341680526733,1.2969970703125,0.9765625,0.3204345703125
0.45374990000000004,6.797138690948486,-6.5050458908081055,1.3024457693099976,1.2664794921875,0.9918212890625,0.54931640625
0.45624990000000004,6.794744491577148,-6.50025749206543,1.2976573705673218,1.03759765625,1.1444091796875,0.8087158203125
0.45874990000000004,6.7923502922058105,-6.493074893951416,1.2856862545013428,0.91552734375,1.4495849609375,0.8697509765625
0.46124990000000005,6.7923502922058105,-6.493074893951416,1.280897855758667,0.9307861328125,1.617431640625,1.2054443359375
0.46374990000000005,6.789956092834473,-6.495469093322754,1.280897855758667,0.7781982421875,1.77001953125,1.3885498046875
0.46624990000000005,6.782773494720459,-6.497863292694092,1.2856862545013428,0.5950927734375,1.9683837890625,1.617431640625
0.46874990000000005,6.775590896606445,-6.50025749206543,1.292868971824646,0.3814697265625,1.800537109375,1.556396484375
0.47124990000000005,6.773196697235107,-6.50025749206543,1.2976573705673218,0.2288818359375,1.8768310546875,1.8310546875
0.47374990000000006,6.775590896606445,-6.502651691436768,1.3024457693099976,0.0152587890625,2.1209716796875,2.1209716796875
0.47624990000000006,6.785167694091797,-6.509834289550781,1.316810965538025,0.0762939453125,2.3040771484375,2.4261474609375
0.47874990000000006,6.794744491577148,-6.524199485778809,1.3192051649093628,0.0457763671875,2.62451171875,2.4871826171875
0.4812499,6.801927089691162,-6.540958881378174,1.335964560508728,-0.274658203125,2.7008056640625,2.593994140625
0.4837499,6.8043212890625,-6.557718276977539,1.3431471586227417,-0.54931640625,2.74658203125,2.8228759765625
0.4862499,6.809109687805176,-6.584054470062256,1.3503297567367554,-0.518798828125,2.9144287109375,3.1585693359375
0.4887499,6.8162922859191895,-6.605602264404297,1.359906554222107,-0.3204345703125,3.1280517578125,3.2806396484375
0.4912499,6.823474884033203,-6.631938934326172,1.3670891523361206,-0.5645751953125,3.4332275390625,3.4942626953125
0.4937499,6.825869083404541,-6.655880928039551,1.3766659498214722,-0.5645751953125,3.5400390625,3.60107421875
0.4962499,6.818686485290527,-6.67982292175293,1.3838485479354858,-0.4119873046875,3.6773681640625,3.8909912109375
0.4987499,6.809109687805176,-6.701370716094971,1.3886369466781616,-0.457763671875,3.7994384765625,4.08935546875
0.5012499,6.7923502922058105,-6.71334171295166,1.3934253454208374,-0.2288818359375,4.180908203125,4.3182373046875
0.5037499000000001,6.780379295349121,-6.732495307922363,1.3934253454208374,-0.152587890625,4.0740966796875,4.425048828125
0.5062499,6.766014099121094,-6.746860504150391,1.3934253454208374,-0.030517578125,4.0740966796875,4.6234130859375
0.5087499000000001,6.75883150100708,-6.7708024978637695,1.3910311460494995,-0.0762939453125,4.2266845703125,4.638671875
0.5112499,6.751648902893066,-6.787561893463135,1.3886369466781616,0.06103515625,4.3182373046875,4.8370361328125
0.5137499,6.744466304779053,-6.806715488433838,1.3838485479354858,0.152587890625,4.669189453125,4.9591064453125
0.5162499,6.739677906036377,-6.823474884033203,1.381454348564148,0.3204345703125,4.913330078125,5.0048828125
0.5187499,6.730101108551025,-6.840234279632568,1.37906014919281,0.1983642578125,4.82177734375,5.4473876953125
0.5212499,6.720524311065674,-6.856993675231934,1.37906014919281,0.518798828125,5.0201416015625,5.462646484375
0.5237499,6.7061591148376465,-6.868964672088623,1.381454348564148,0.67138671875,5.2490234375,5.584716796875
0.5262499,6.687005519866943,-6.878541469573975,1.37906014919281,0.701904296875,5.0506591796875,5.828857421875
0.5287499,6.675034523010254,-6.888118267059326,1.37906014919281,0.701904296875,4.9896240234375,5.8135986328125
0.5312499,6.660669326782227,-6.900089263916016,1.3766659498214722,0.8392333984375,5.1727294921875,5.8135986328125
0.5337499,6.653486728668213,-6.904877662658691,1.3718775510787964,0.9918212890625,5.2490234375,5.9967041015625
0.5362499000000001,6.648698329925537,-6.909666061401367,1.3694833517074585,0.946044921875,5.4473876953125,5.9661865234375
0.5387499,6.643909931182861,-6.904877662658691,1.3623007535934448,0.9613037109375,5.3253173828125,6.103515625
0.5412499000000001,6.641515731811523,-6.89530086517334,1.3527239561080933,0.8544921875,5.6610107421875,6.256103515625
0.5437499,6.6391215324401855,-6.878541469573975,1.3431471586227417,0.8392333984375,5.5999755859375,6.2103271484375
0.5462499000000001,6.63433313369751,-6.868964672088623,1.3431471586227417,0.67138671875,5.401611328125,6.4239501953125
0.5487499,6.631938934326172,-6.8593878746032715,1.3407529592514038,0.6103515625,5.8441162109375,6.3934326171875
0.5512499000000001,6.629544734954834,-6.8593878746032715,1.3503297567367554,0.5645751953125,5.9661865234375,6.4697265625
0.5537499,6.624756336212158,-6.856993675231934,1.3503297567367554,0.457763671875,6.0882568359375,6.622314453125
0.5562499000000001,6.619967937469482,-6.8593878746032715,1.3503297567367554,0.1983642578125,6.134033203125,6.77490234375
0.5587499,6.6127848625183105,-6.854599475860596,1.3407529592514038,0.0457763671875,6.256103515625,6.805419921875
0.5612499000000001,6.610390663146973,-6.84981107711792,1.3335703611373901,-0.274658203125,6.378173828125,6.7291259765625
0.5637499,6.607996463775635,-6.840234279632568,1.3239935636520386,-0.48828125,6.591796875,6.8206787109375
0.5662499000000001,6.607996463775635,-6.833051681518555,1.316810965538025,-0.9613037109375,6.53076171875,6.744384765625
0.5687499,6.607996463775635,-6.821080684661865,1.3120225667953491,-1.373291015625,6.744384765625,6.8206787109375
0.5712499000000001,6.607996463775635,-6.813898086547852,1.3072341680526733,-1.3885498046875,6.927490234375,7.0343017578125
0.5737499,6.605602264404297,-6.813898086547852,1.3096283674240112,-1.6632080078125,6.9580078125,7.2479248046875
0.5762499000000001,6.605602264404297,-6.813898086547852,1.3120225667953491,-1.983642578125,6.9580078125,7.1563720703125
0.5787499,6.6127848625183105,-6.8162922859191895,1.314416766166687,-2.1820068359375,7.080078125,7.2784423828125
0.5812499,6.62236213684082,-6.823474884033203,1.314416766166687,-2.3040771484375,7.26318359375,7.0343017578125
0.5837499,6.636727333068848,-6.825869083404541,1.316810965538025,-2.8228759765625,7.2174072265625,7.1258544921875
0.5862499,6.655880928039551,-6.835445880889893,1.3215993642807007,-2.8533935546875,7.75146484375,7.4920654296875
0.5887499,6.67982292175293,-6.845022678375244,1.3311761617660522,-3.1890869140625,7.7056884765625,7.50732421875
0.5912499,6.722918510437012,-6.871358871459961,1.359906554222107,-3.631591796875,8.056640625,7.568359375
0.5937499,6.744466304779053,-6.878541469573975,1.3670891523361206,-3.7384033203125,8.392333984375,7.720947265625
0.5962499,6.761225700378418,-6.888118267059326,1.37906014919281,-3.9520263671875,8.5601806640625,7.62939453125
0.5987499000000001,6.777985095977783,-6.892906665802002,1.37906014919281,-3.90625,8.60595703125,8.0108642578125
0.6012499,6.7923502922058105,-6.9024834632873535,1.3766659498214722,-3.875732421875,9.0484619140625,8.087158203125
0.6037499000000001,6.801927089691162,-6.914454460144043,1.3718775510787964,-3.90625,9.2926025390625,8.0413818359375
0.6062499,6.813898086547852,-6.919242858886719,1.3742717504501343,-3.90625,9.3841552734375,8.4228515625
0.6087499000000001,6.823474884033203,-6.931213855743408,1.3838485479354858,-3.814697265625,9.7503662109375,8.3160400390625
0.6112499,6.8378400802612305,-6.943184852600098,1.400607943534851,-3.9520263671875,9.7808837890625,8.3770751953125
0.6137499000000001,6.852205276489258,-6.959944248199463,1.414973258972168,-4.0130615234375,10.1165771484375,8.5906982421875
0.6162499,6.868964672088623,-6.979097843170166,1.4221558570861816,-3.8604736328125,10.3759765625,8.7432861328125
0.6187499000000001,6.88332986831665,-6.995857238769531,1.4293384552001953,-3.875732421875,10.5133056640625,8.7738037109375
0.6212499,6.9024834632873535,-7.010222434997559,1.4197616577148438,-3.6163330078125,10.650634765625,8.9263916015625
0.6237499000000001,6.914454460144043,-7.022193431854248,1.4221558570861816,-3.6773681640625,11.0015869140625,8.819580078125
0.6262499,6.921637058258057,-7.0341644287109375,1.414973258972168,-3.72314453125,11.2457275390625,8.758544921875
0.6287499000000001,6.9240312576293945,-7.046135425567627,1.4197616577148438,-3.4332275390625,11.260986328125,8.8958740234375
0.6312499,6.931213855743408,-7.0557122230529785,1.4293384552001953,-3.2501220703125,11.566162109375,8.941650390625
0.6337499000000001,6.938396453857422,-7.062894821166992,1.436521053314209,-3.1585693359375,11.77978515625,8.9111328125
0.6362499,6.947973251342773,-7.070077419281006,1.4484920501708984,-2.960205078125,11.993408203125,9.033203125
0.6387499000000001,6.955155849456787,-7.079654216766357,1.455674648284912,-2.9296875,12.02392578125,8.97216796875
0.6412499,6.955155849456787,-7.091625213623047,1.460463047027588,-2.6397705078125,12.1612548828125,9.09423828125
0.6437499,6.947973251342773,-7.105990409851074,1.4628572463989258,-2.471923828125,12.298583984375,8.97216796875
0.6462499,6.938396453857422,-7.117961883544922,1.460463047027588,-2.105712890625,12.359619140625,8.85009765625
0.6487499,6.931213855743408,-7.122750282287598,1.45806884765625,-2.01416015625,12.5579833984375,9.1094970703125
0.6512499,6.931213855743408,-7.113173484802246,1.4508862495422363,-1.7852783203125,12.603759765625,8.8043212890625
0.6537499,6.936002254486084,-7.101202011108398,1.4460978507995605,-1.861572265625,12.6800537109375,8.9569091796875
0.6562499,6.947973251342773,-7.086836814880371,1.4389152526855469,-1.6937255859375,13.0767822265625,8.8653564453125
0.6587499,6.964732646942139,-7.0772600173950195,1.434126853942871,-1.8157958984375,13.2598876953125,8.97216796875
0.6612499000000001,6.97430944442749,-7.074865818023682,1.4245500564575195,-1.9378662109375,13.427734375,9.0179443359375
0.6637499,6.983886241912842,-7.074865818023682,1.4173674583435059,-2.0751953125,13.427734375,8.97216796875
0.6662499000000001,6.993463039398193,-7.082048416137695,1.41257905960083,-1.922607421875,13.5040283203125,9.033203125
0.6687499,7.005434036254883,-7.079654216766357,1.41257905960083,-1.953125,13.8092041015625,8.8958740234375
0.6712499000000001,7.01979923248291,-7.0772600173950195,1.414973258972168,-2.2430419921875,13.97705078125,8.6517333984375
0.6737499,7.038952827453613,-7.067683219909668,1.4197616577148438,-2.4871826171875,13.9617919921875,8.6212158203125
0.6762499000000001,7.0557122230529785,-7.058106422424316,1.4269442558288574,-2.5177001953125,14.1448974609375,8.6822509765625
0.6787499,7.074865818023682,-7.046135425567627,1.4317326545715332,-2.5787353515625,14.068603515625,8.48388671875
0.6812499000000001,7.094019412994385,-7.0341644287109375,1.4437036514282227,-2.9754638671875,14.2974853515625,8.270263671875
0.6837499,7.117961883544922,-7.022193431854248,1.4532804489135742,-3.143310546875,14.58740234375,8.1634521484375
0.6862499000000001,7.139509677886963,-7.015010833740234,1.4628572463989258,-3.265380859375,14.3890380859375,8.1787109375
0.6887499,7.15387487411499,-7.015010833740234,1.4700398445129395,-3.4332275390625,14.2669677734375,7.904052734375
0.6912499000000001,7.163451671600342,-7.017405033111572,1.4724340438842773,-3.8909912109375,14.251708984375,7.8582763671875
0.6937499,7.163451671600342,-7.026981830596924,1.4748282432556152,-3.997802734375,14.129638671875,7.781982421875
0.6962499000000001,7.161057472229004,-7.0317702293396,1.479616641998291,-4.058837890625,14.312744140625,7.598876953125
0.6987499,7.158663272857666,-7.041347026824951,1.479616641998291,-4.3792724609375,14.09912109375,7.62939453125
0.7012499000000001,7.161057472229004,-7.050923824310303,1.479616641998291,-4.4097900390625,14.068603515625,7.568359375
0.7037499,7.173028469085693,-7.058106422424316,1.4772224426269531,-4.730224609375,13.7786865234375,7.5225830078125
0.7062499,7.180211067199707,-7.06528902053833,1.4700398445129395,-4.7149658203125,13.48876953125,7.415771484375
0.7087499,7.184999465942383,-7.070077419281006,1.4748282432556152,-4.791259765625,13.4124755859375,7.26318359375
0.7112499,7.184999465942383,-7.0772600173950195,1.4724340438842773,-5.06591796875,13.2293701171875,7.171630859375
0.7137499,7.177816867828369,-7.079654216766357,1.4700398445129395,-5.096435546875,13.00048828125,7.2174072265625
0.7162499,7.175422668457031,-7.086836814880371,1.4676456451416016,-5.2947998046875,12.8021240234375,7.0343017578125
0.7187499,7.16584587097168,-7.086836814880371,1.45806884765625,-5.8135986328125,12.5274658203125,6.9427490234375
0.7212499,7.1490864753723145,-7.086836814880371,1.4484920501708984,-6.0272216796875,12.1917724609375,6.7596435546875
0.7237499000000001,7.1251444816589355,-7.084442615509033,1.4389152526855469,-6.011962890625,11.9781494140625,6.744384765625
0.7262499,7.108384609222412,-7.086836814880371,1.4317326545715332,-6.378173828125,11.65771484375,6.3629150390625
0.7287499000000001,7.096413612365723,-7.074865818023682,1.4269442558288574,-6.591796875,11.1541748046875,6.1492919921875
0.7312499,7.110779285430908,-7.062894821166992,1.436521053314209,-7.080078125,11.0015869140625,6.2713623046875
0.7337499000000001,7.129932880401611,-7.046135425567627,1.4413094520568848,-7.62939453125,10.6048583984375,5.9967041015625
0.7362499,7.163451671600342,-7.029376029968262,1.455674648284912,-8.148193359375,10.19287109375,5.7830810546875
0.7387499000000001,7.194576263427734,-7.029376029968262,1.4676456451416016,-8.697509765625,9.918212890625,5.5389404296875
0.7412499,7.2137298583984375,-7.041347026824951,1.482010841369629,-9.1552734375,9.6588134765625,5.31005859375
0.7437499000000001,7.230489253997803,-7.06528902053833,1.4987702369689941,-9.5672607421875,9.307861328125,5.157470703125
0.7462499,7.230489253997803,-7.094019412994385,1.5179238319396973,-10.009765625,9.1400146484375,4.9591064453125
0.7487499000000001,7.220912456512451,-7.117961883544922,1.5322890281677246,-10.711669921875,8.697509765625,4.8828125
0.7512499,7.201758861541748,-7.144298076629639,1.5418659448623657,-11.1541748046875,8.4991455078125,4.638671875
0.7537499000000001,7.180211067199707,-7.1706342697143555,1.5466543436050415,-11.688232421875,8.331298828125,4.39453125
0.7562499,7.158663272857666,-7.19936466217041,1.5442601442337036,-12.176513671875,8.0718994140625,4.2266845703125
0.7587499000000001,7.144298076629639,-7.223306655883789,1.5394717454910278,-12.4053955078125,7.965087890625,4.119873046875
0.7612499,7.132327079772949,-7.24485445022583,1.5203180313110352,-12.664794921875,7.9345703125,4.0283203125
0.7637499000000001,7.122750282287598,-7.252037048339844,1.4963760375976562,-13.153076171875,7.8277587890625,3.814697265625
0.7662499,7.108384609222412,-7.252037048339844,1.4676456451416016,-13.5345458984375,7.965087890625,3.570556640625
0.7687499000000001,7.086836814880371,-7.254431247711182,1.434126853942871,-13.9617919921875,7.6904296875,3.3111572265625
0.7712499,7.0557122230529785,-7.264008045196533,1.41257905960083,-14.0380859375,7.354736328125,2.9144287109375
0.7737499,7.029376029968262,-7.283161640167236,1.3982137441635132,-14.46533203125,7.1868896484375,2.3345947265625
0.7762499,7.010222434997559,-7.3023152351379395,1.3934253454208374,-14.9383544921875,7.0343017578125,2.166748046875
0.7787499,7.010222434997559,-7.316680431365967,1.3886369466781616,-15.106201171875,6.8359375,1.953125
0.7812499,7.026981830596924,-7.309497833251953,1.381454348564148,-15.4571533203125,6.9580078125,1.678466796875
0.7837499,7.0341644287109375,-7.299921035766602,1.3646949529647827,-15.7623291015625,7.171630859375,1.6326904296875
0.7862499000000001,7.041347026824951,-7.292738437652588,1.3335703611373901,-16.204833984375,7.171630859375,1.40380859375
0.7887499,7.010222434997559,-7.307103633880615,1.3000515699386597,-16.4031982421875,7.232666015625,1.190185546875
0.7912499000000001,6.962338447570801,-7.340622425079346,1.2689268589019775,-16.66259765625,7.3089599609375,0.67138671875
0.7937499,6.9024834632873535,-7.38132381439209,1.2449848651885986,-16.571044921875,6.9732666015625,0.335693359375
0.7962499000000001,6.852205276489258,-7.417236804962158,1.237802267074585,-16.5557861328125,7.1868896484375,-0.0762939453125
0.7987499,6.818686485290527,-7.438784599304199,1.2330138683319092,-16.7236328125,7.2174072265625,-0.3204345703125
0.8012499000000001,6.825869083404541,-7.429207801818848,1.235408067703247,-17.2271728515625,7.62939453125,-0.3814697265625
0.8037499,6.8593878746032715,-7.400477409362793,1.2258312702178955,-17.608642578125,7.8125,-0.5645751953125
0.8062499000000001,6.890512466430664,-7.3693528175354,1.2114660739898682,-17.9443359375,8.6212158203125,-0.6561279296875
0.8087499,6.907271862030029,-7.338228225708008,1.1827356815338135,-18.3868408203125,8.880615234375,-0.9002685546875
0.8112499000000001,6.89530086517334,-7.314286231994629,1.1540051698684692,-18.85986328125,9.0179443359375,-0.8697509765625
0.8137499,6.856993675231934,-7.3023152351379395,1.1276689767837524,-19.2413330078125,9.21630859375,-1.129150390625
0.8162499000000001,6.806715488433838,-7.292738437652588,1.1061211824417114,-19.3328857421875,9.3231201171875,-1.3885498046875
0.8187499,6.75883150100708,-7.295132637023926,1.094150185585022,-19.5465087890625,9.70458984375,-1.5106201171875
0.8212499000000001,6.718130111694336,-7.307103633880615,1.0773907899856567,-19.6075439453125,9.9334716796875,-1.52587890625
0.8237499,6.689399719238281,-7.333439826965332,1.0630255937576294,-19.5770263671875,10.43701171875,-1.6632080078125
0.8262499000000001,6.66785192489624,-7.3693528175354,1.048660397529602,-19.073486328125,10.7269287109375,-1.9989013671875
0.8287499,6.643909931182861,-7.386112213134766,1.039083480834961,-18.890380859375,11.016845703125,-2.2125244140625
0.8312499000000001,6.629544734954834,-7.386112213134766,1.0342950820922852,-18.798828125,11.3677978515625,-2.044677734375
0.8337499,6.610390663146973,-7.357381820678711,1.0295066833496094,-18.768310546875,11.932373046875,-2.2125244140625
0.8362499,6.598419666290283,-7.311892032623291,1.0342950820922852,-18.890380859375,12.20703125,-2.25830078125
0.8387499,6.588842868804932,-7.261613845825195,1.036689281463623,-18.98193359375,12.5579833984375,-2.44140625
0.8412499,6.586448669433594,-7.225700855255127,1.0462661981582642,-18.98193359375,12.908935546875,-2.4566650390625
0.8437499,6.593631267547607,-7.2113356590271,1.0582371950149536,-18.7530517578125,13.427734375,-2.50244140625
0.8462499,6.607996463775635,-7.208941459655762,1.0630255937576294,-18.5089111328125,13.9617919921875,-2.44140625
0.8487499000000001,6.629544734954834,-7.223306655883789,1.072602391242981,-18.341064453125,14.4500732421875,-2.5177001953125
0.8512499,6.643909931182861,-7.237671852111816,1.0773907899856567,-17.8985595703125,15.1824951171875,-2.6397705078125
0.8537499000000001,6.646304130554199,-7.24485445022583,1.091755986213684,-17.1966552734375,15.68603515625,-2.4261474609375
0.8562499,6.629544734954834,-7.24485445022583,1.0989385843276978,-16.8609619140625,15.9912109375,-2.288818359375
0.8587499000000001,6.593631267547607,-7.225700855255127,1.1109095811843872,-16.845703125,16.6015625,-2.3193359375
0.8612499,6.555324077606201,-7.194576263427734,1.1228805780410767,-16.510009765625,17.27294921875,-2.288818359375
0.8637499000000001,6.519411087036133,-7.158663272857666,1.1300631761550903,-16.0369873046875,17.6239013671875,-2.13623046875
0.8662499,6.497863292694092,-7.122750282287598,1.1444283723831177,-15.7470703125,18.24951171875,-1.678466796875
0.8687499000000001,6.485892295837402,-7.084442615509033,1.1563993692398071,-15.6097412109375,18.9208984375,-1.4801025390625
0.8712499,6.48828649520874,-7.050923824310303,1.170764684677124,-15.2435302734375,19.378662109375,-1.2054443359375
0.8737499000000001,6.490680694580078,-7.007828235626221,1.1803414821624756,-15.045166015625,20.01953125,-1.15966796875
0.8762499,6.48828649520874,-6.964732646942139,1.1994950771331787,-15.0299072265625,20.721435546875,-1.129150390625
0.8787499000000001,6.4834980964660645,-6.921637058258057,1.216254472732544,-14.8162841796875,21.209716796875,-0.91552734375
0.8812499,6.473921298980713,-6.88332986831665,1.2401964664459229,-14.5416259765625,21.7742919921875,-0.762939453125
0.8837499000000001,6.464344501495361,-6.861782073974609,1.2689268589019775,-14.16015625,22.3846435546875,-0.6561279296875
0.8862499,6.45476770401001,-6.845022678375244,1.3024457693099976,-13.671875,22.5982666015625,-0.30517578125
0.8887499000000001,6.445190906524658,-6.842628479003906,1.335964560508728,-13.2904052734375,23.1170654296875,-0.244140625
0.8912499,6.433219909667969,-6.840234279632568,1.3694833517074585,-13.00048828125,23.5137939453125,-0.091552734375
0.8937499000000001,6.4164605140686035,-6.842628479003906,1.3958195447921753,-12.8326416015625,23.62060546875,0.213623046875
0.8962499,6.3949127197265625,-6.84981107711792,1.4101848602294922,-12.4969482421875,23.834228515625,0.42724609375
0.8987499,6.370970726013184,-6.856993675231934,1.414973258972168,-11.8865966796875,24.169921875,0.732421875
0.9012499,6.339846134185791,-6.864176273345947,1.4101848602294922,-11.65771484375,24.6124267578125,0.9918212890625
0.9037499,6.3063273429870605,-6.871358871459961,1.3982137441635132,-11.29150390625,24.5513916015625,1.46484375
0.9062499,6.27280855178833,-6.871358871459961,1.3934253454208374,-11.016845703125,24.5513916015625,1.983642578125
0.9087499,6.2416839599609375,-6.861782073974609,1.403002142906189,-10.7269287109375,24.71923828125,2.2735595703125
0.9112499000000001,6.215347766876221,-6.854599475860596,1.4317326545715332,-10.528564453125,24.871826171875,2.5177001953125
0.9137499,6.19379997253418,-6.835445880889893,1.4700398445129395,-10.55908203125,24.871826171875,3.0059814453125
0.9162499000000001,6.18182897567749,-6.823474884033203,1.5155296325683594,-10.68115234375,25.0244140625,3.2196044921875
0.9187499,6.162675380706787,-6.806715488433838,1.558625340461731,-10.55908203125,25.115966796875,3.3416748046875
0.9212499000000001,6.145915985107422,-6.801927089691162,1.5969325304031372,-10.3607177734375,24.9786376953125,3.5858154296875
0.9237499,6.117185115814209,-6.797138690948486,1.6304513216018677,-10.19287109375,25.2838134765625,3.8909912109375
0.9262499000000001,6.081272125244141,-6.794744491577148,1.6663644313812256,-9.796142578125,24.9176025390625,4.241943359375
0.9287499,6.045359134674072,-6.797138690948486,1.6974890232086182,-9.8419189453125,24.6429443359375,4.33349609375
0.9312499000000001,6.011840343475342,-6.787561893463135,1.7166426181793213,-9.82666015625,24.7650146484375,4.3487548828125
0.9337499,5.985504150390625,-6.7708024978637695,1.723825216293335,-9.8876953125,24.7039794921875,4.33349609375
0.9362499000000001,5.963956356048584,-6.754043102264404,1.7190368175506592,-9.9639892578125,24.5819091796875,4.791259765625
0.9387499,5.947196960449219,-6.734889507293701,1.6974890232086182,-10.1318359375,24.383544921875,4.9285888671875
0.9412499000000001,5.935225963592529,-6.715735912322998,1.680729627609253,-10.5133056640625,24.322509765625,5.126953125
0.9437499,5.928043365478516,-6.701370716094971,1.659181833267212,-10.8489990234375,24.0325927734375,5.340576171875
0.9462499000000001,5.9304375648498535,-6.6846113204956055,1.647210717201233,-11.016845703125,23.8800048828125,5.5694580078125
0.9487499,5.942408561706543,-6.675034523010254,1.647210717201233,-11.53564453125,23.7884521484375,5.767822265625
0.9512499000000001,5.95677375793457,-6.677428722381592,1.6519991159439087,-11.7950439453125,23.62060546875,5.9967041015625
0.9537499,5.9735331535339355,-6.687005519866943,1.6663644313812256,-12.1307373046875,23.345947265625,6.0272216796875
0.9562499000000001,5.995080947875977,-6.7061591148376465,1.6831238269805908,-12.664794921875,23.0712890625,6.1187744140625
0.9587499,6.01423454284668,-6.722918510437012,1.7046716213226318,-13.092041015625,23.101806640625,6.4239501953125
0.9612499,6.030993938446045,-6.739677906036377,1.7334020137786865,-13.5498046875,23.01025390625,6.2713623046875
0.9637499,6.042964935302734,-6.754043102264404,1.7621324062347412,-14.1143798828125,22.6898193359375,6.7596435546875
0.9662499,6.054935932159424,-6.75883150100708,1.7908629179000854,-14.70947265625,22.4609375,6.927490234375
0.9687499,6.0597243309021,-6.75883150100708,1.8076223134994507,-15.2587890625,22.369384765625,7.14111328125
0.9712499,6.069301128387451,-6.754043102264404,1.8076223134994507,-15.838623046875,22.2320556640625,7.2479248046875
0.9737499000000001,6.078877925872803,-6.746860504150391,1.800439715385437,-16.3116455078125,22.5830078125,7.415771484375
0.9762499,6.088454723358154,-6.732495307922363,1.778891921043396,-17.02880859375,22.5677490234375,7.598876953125
0.9787499000000001,6.098031520843506,-6.722918510437012,1.7597382068634033,-17.7764892578125,22.3846435546875,7.6141357421875
0.9812499,6.1052141189575195,-6.718130111694336,1.7405846118927002,-18.310546875,22.308349609375,7.6751708984375
0.9837499000000001,6.119579315185547,-6.722918510437012,1.7381904125213623,-18.951416015625,22.491455078125,7.843017578125
0.9862499,6.133944988250732,-6.734889507293701,1.7405846118927002,-19.500732421875,22.4456787109375,7.843017578125
0.9887499000000001,6.1530985832214355,-6.761225700378418,1.7549498081207275,-19.7601318359375,22.5372314453125,7.6904296875
0.9912499,6.179434776306152,-6.789956092834473,1.7764976024627686,-20.2789306640625,22.6287841796875,7.87353515625
0.9937499000000001,6.205770969390869,-6.833051681518555,1.8052281141281128,-20.5230712890625,22.369384765625,8.1024169921875
0.9962499,6.234501361846924,-6.878541469573975,1.8387469053268433,-20.843505859375,22.5372314453125,7.965087890625
0.9987499000000001,6.258443355560303,-6.92881965637207,1.8746598958969116,-20.904541015625,22.4761962890625,7.7056884765625
1.0012499,6.287173748016357,-6.976703643798828,1.9081788063049316,-21.087646484375,22.52197265625,7.4920654296875
1.0037498999999999,6.308721542358398,-7.022193431854248,1.9369091987609863,-21.1334228515625,22.8118896484375,7.75146484375
1.0062499,6.332663536071777,-7.062894821166992,1.9584569931030273,-20.99609375,23.01025390625,7.6751708984375
1.0087499,6.358999729156494,-7.0988078117370605,1.9752163887023926,-20.843505859375,23.13232421875,7.843017578125
1.0112499,6.385335922241211,-7.132327079772949,1.9943699836730957,-20.721435546875,23.284912109375,7.87353515625
1.0137498999999999,6.4380083084106445,-7.201758861541748,2.03507137298584,-19.9432373046875,23.5443115234375,7.8582763671875
1.0162499,6.4595561027526855,-7.237671852111816,2.0590133666992188,-19.6075439453125,23.8037109375,7.781982421875
1.0187499,6.481103897094727,-7.266402244567871,2.0853497982025146,-19.1192626953125,24.139404296875,7.781982421875
1.0212499,6.493074893951416,-7.297526836395264,2.1092917919158936,-18.707275390625,24.3682861328125,7.87353515625
1.0237498999999999,6.502651691436768,-7.3238630294799805,2.1308395862579346,-18.280029296875,24.4293212890625,7.904052734375
1.0262498999999998,6.512228488922119,-7.3454108238220215,2.1523873805999756,-17.3797607421875,24.47509765625,8.0108642578125
1.0287499,6.519411087036133,-7.362170219421387,2.1715409755706787,-16.7388916015625,24.4140625,7.843017578125
1.0312499,6.5265936851501465,-7.3693528175354,2.190694570541382,-16.082763671875,24.6429443359375,7.720947265625
1.0337498999999999,6.53377628326416,-7.374141216278076,2.2002713680267334,-15.44189453125,24.871826171875,7.87353515625
1.0362498999999998,6.538564682006836,-7.38132381439209,2.209848165512085,-14.8162841796875,25.0091552734375,7.9803466796875
1.0387499,6.550535678863525,-7.383718013763428,2.205059766769409,-14.007568359375,25.1617431640625,7.7972412109375
1.0412499,6.562506675720215,-7.386112213134766,2.1978771686553955,-13.3209228515625,25.0396728515625,7.781982421875
1.0437499,6.584054470062256,-7.378929615020752,2.188300371170044,-12.63427734375,25.0701904296875,8.026123046875
1.0462498999999998,6.603208065032959,-7.362170219421387,2.1739351749420166,-11.7034912109375,25.1617431640625,8.0108642578125
1.0487499,6.627150535583496,-7.3454108238220215,2.164358377456665,-11.0015869140625,25.2685546875,8.0413818359375
1.0512499,6.646304130554199,-7.328651428222656,2.1595699787139893,-10.2081298828125,25.2227783203125,7.99560546875
1.0537499,6.66785192489624,-7.316680431365967,2.1595699787139893,-9.307861328125,25.0701904296875,8.056640625
1.0562498999999999,6.694188117980957,-7.311892032623291,2.164358377456665,-8.48388671875,25.2838134765625,7.75146484375
1.0587499,6.722918510437012,-7.309497833251953,2.169146776199341,-7.965087890625,25.32958984375,7.7056884765625
1.0612499,6.7492547035217285,-7.304709434509277,2.1811177730560303,-7.2174072265625,25.115966796875,7.8582763671875
1.0637499,6.775590896606445,-7.3023152351379395,2.1930887699127197,-6.34765625,24.871826171875,7.843017578125
1.0662498999999999,6.797138690948486,-7.295132637023926,2.2026655673980713,-5.7830810546875,24.9786376953125,7.8125
1.0687499,6.813898086547852,-7.287950038909912,2.212242364883423,-5.218505859375,24.932861328125,7.659912109375
1.0712499,6.828263282775879,-7.2783732414245605,2.2194249629974365,-4.3487548828125,24.7039794921875,7.7667236328125
1.0737499,6.8378400802612305,-7.261613845825195,2.2146365642547607,-3.7994384765625,24.5513916015625,7.904052734375
1.0762498999999999,6.847416877746582,-7.240066051483154,2.209848165512085,-3.4027099609375,24.4903564453125,7.8887939453125
1.0787499,6.852205276489258,-7.220912456512451,2.2002713680267334,-3.082275390625,24.444580078125,7.904052734375
1.0812499,6.852205276489258,-7.201758861541748,2.1811177730560303,-2.7008056640625,23.8800048828125,7.781982421875
1.0837499,6.8593878746032715,-7.196970462799072,2.169146776199341,-2.349853515625,23.6968994140625,7.7972412109375
1.0862498999999999,6.8593878746032715,-7.19936466217041,2.1571757793426514,-2.1514892578125,23.5748291015625,7.62939453125
1.0887499,6.871358871459961,-7.196970462799072,2.1475989818573,-1.861572265625,23.3612060546875,7.4920654296875
1.0912499,6.878541469573975,-7.194576263427734,2.142810583114624,-1.64794921875,23.040771484375,7.4615478515625
1.0937499,6.88332986831665,-7.182605266571045,2.1356279850006104,-1.4495849609375,22.918701171875,7.4462890625
1.0962498999999999,6.88332986831665,-7.173028469085693,2.1332337856292725,-1.434326171875,22.4609375,7.476806640625
1.0987498999999998,6.878541469573975,-7.161057472229004,2.1284453868865967,-1.495361328125,21.8658447265625,7.232666015625
1.1012499,6.878541469573975,-7.15387487411499,2.1332337856292725,-1.28173828125,21.514892578125,7.171630859375
1.1037499,6.8809356689453125,-7.1490864753723145,2.1356279850006104,-1.40380859375,21.30126953125,7.171630859375
1.1062499,6.885724067687988,-7.151480674743652,2.142810583114624,-1.5411376953125,20.9503173828125,7.2479248046875
1.1087498999999998,6.890512466430664,-7.151480674743652,2.1380221843719482,-1.7242431640625,20.44677734375,7.0953369140625
1.1112499,6.897695064544678,-7.151480674743652,2.1308395862579346,-2.044677734375,20.1416015625,6.8206787109375
1.1137499,6.9024834632873535,-7.151480674743652,2.1140801906585693,-2.0904541015625,19.866943359375,6.65283203125
1.1162499,6.912060260772705,-7.144298076629639,2.0925323963165283,-2.1820068359375,19.439697265625,6.6375732421875
1.1187498999999999,6.921637058258057,-7.134721279144287,2.078166961669922,-2.5634765625,18.7835693359375,6.622314453125
1.1212499,6.931213855743408,-7.12035608291626,2.0661959648132324,-2.99072265625,18.4783935546875,6.53076171875
1.1237499,6.94079065322876,-7.108384609222412,2.056619167327881,-3.265380859375,17.852783203125,6.2255859375
1.1262499,6.947973251342773,-7.101202011108398,2.049436569213867,-3.7384033203125,17.5628662109375,5.8746337890625
1.1287498999999999,6.955155849456787,-7.094019412994385,2.0422539710998535,-4.180908203125,17.0135498046875,5.9661865234375
1.1312499,6.959944248199463,-7.096413612365723,2.03507137298584,-4.2877197265625,16.05224609375,5.6610107421875
1.1337499,6.964732646942139,-7.101202011108398,2.0374655723571777,-4.638671875,15.716552734375,5.4168701171875
1.1362499,6.957550048828125,-7.108384609222412,2.0422539710998535,-4.9285888671875,15.2435302734375,5.4473876953125
1.1387498999999999,6.952761650085449,-7.117961883544922,2.049436569213867,-5.279541015625,14.862060546875,5.218505859375
1.1412499,6.947973251342773,-7.122750282287598,2.054224967956543,-5.523681640625,14.34326171875,4.9591064453125
1.1437499,6.9455790519714355,-7.1251444816589355,2.049436569213867,-5.828857421875,13.73291015625,4.913330078125
1.1462499,6.950367450714111,-7.129932880401611,2.049436569213867,-6.2103271484375,13.397216796875,4.486083984375
1.1487498999999999,6.962338447570801,-7.134721279144287,2.0446481704711914,-6.4849853515625,12.939453125,4.4403076171875
1.1512499,6.9695210456848145,-7.144298076629639,2.0374655723571777,-6.77490234375,12.26806640625,4.08935546875
1.1537499,6.979097843170166,-7.151480674743652,2.03507137298584,-6.8206787109375,11.688232421875,4.08935546875
1.1562499,6.983886241912842,-7.16584587097168,2.03507137298584,-7.049560546875,11.1236572265625,3.9825439453125
1.1587498999999999,6.981492042541504,-7.180211067199707,2.03507137298584,-7.232666015625,10.6658935546875,3.7384033203125
1.1612498999999998,6.97430944442749,-7.196970462799072,2.0446481704711914,-7.3394775390625,10.1776123046875,3.4332275390625
1.1637499,6.964732646942139,-7.2113356590271,2.049436569213867,-7.3089599609375,9.5977783203125,3.1280517578125
1.1662499,6.957550048828125,-7.225700855255127,2.0590133666992188,-7.171630859375,8.97216796875,3.1585693359375
1.1687499,6.950367450714111,-7.2352776527404785,2.0590133666992188,-7.1258544921875,8.270263671875,2.9296875
1.1712498999999998,6.943184852600098,-7.247248649597168,2.0590133666992188,-7.2784423828125,7.8887939453125,2.7618408203125
1.1737499,6.933608055114746,-7.252037048339844,2.054224967956543,-7.2021484375,7.4462890625,2.7923583984375
1.1762499,6.9240312576293945,-7.2568254470825195,2.051830768585205,-6.988525390625,7.2174072265625,2.655029296875
1.1787499,6.909666061401367,-7.261613845825195,2.051830768585205,-6.9427490234375,6.9122314453125,2.4566650390625
1.1812498999999999,6.890512466430664,-7.266402244567871,2.056619167327881,-6.5155029296875,6.28662109375,2.50244140625
1.1837499,6.878541469573975,-7.2783732414245605,2.0590133666992188,-6.1798095703125,5.6304931640625,2.5482177734375
1.1862499,6.866570472717285,-7.285555839538574,2.0638017654418945,-6.1187744140625,5.1422119140625,2.288818359375
1.1887499,6.866570472717285,-7.295132637023926,2.0661959648132324,-5.889892578125,4.6234130859375,2.197265625
1.1912498999999999,6.873753070831299,-7.297526836395264,2.070984363555908,-5.615234375,4.4708251953125,2.197265625
1.1937499,6.885724067687988,-7.295132637023926,2.070984363555908,-5.4931640625,3.9520263671875,2.1820068359375
1.1962499,6.900089263916016,-7.292738437652588,2.073378562927246,-5.218505859375,3.4027099609375,2.0904541015625
1.1987499,6.912060260772705,-7.287950038909912,2.070984363555908,-5.0201416015625,3.1280517578125,2.0294189453125
1.2012498999999999,6.921637058258057,-7.283161640167236,2.070984363555908,-4.6234130859375,2.899169921875,1.983642578125
1.2037499,6.926425457000732,-7.275979042053223,2.073378562927246,-4.119873046875,2.4871826171875,1.9989013671875
1.2062499,6.933608055114746,-7.266402244567871,2.0805611610412598,-4.1046142578125,2.13623046875,1.7242431640625
1.2087499,6.933608055114746,-7.264008045196533,2.094926595687866,-3.8604736328125,1.8310546875,1.5106201171875
1.2112498999999999,6.933608055114746,-7.264008045196533,2.1068975925445557,-3.1280517578125,1.495361328125,1.7242431640625
1.2137499,6.926425457000732,-7.268796443939209,2.118868589401245,-2.86865234375,1.220703125,1.678466796875
1.2162499,6.921637058258057,-7.275979042053223,2.126051187515259,-2.9296875,1.2054443359375,1.4801025390625
1.2187499,6.909666061401367,-7.280767440795898,2.1356279850006104,-2.532958984375,0.8544921875,1.46484375
1.2212498999999999,6.907271862030029,-7.283161640167236,2.140416383743286,-2.1209716796875,0.396728515625,1.4495849609375
1.2237498999999998,6.9024834632873535,-7.280767440795898,2.142810583114624,-1.6937255859375,0.42724609375,1.46484375
1.2262499,6.89530086517334,-7.264008045196533,2.126051187515259,-1.4190673828125,-0.0762939453125,1.251220703125
1.2287499,6.890512466430664,-7.254431247711182,2.1068975925445557,-1.0528564453125,-0.3204345703125,1.3275146484375
1.2312499,6.8809356689453125,-7.24485445022583,2.0901381969451904,-0.8544921875,-0.518798828125,1.2054443359375
1.2337498999999998,6.866570472717285,-7.232883453369141,2.073378562927246,-0.732421875,-0.79345703125,0.9002685546875
1.2362499,6.845022678375244,-7.223306655883789,2.0638017654418945,-0.5340576171875,-1.0223388671875,0.885009765625
1.2387499,6.818686485290527,-7.218518257141113,2.0590133666992188,-0.274658203125,-1.3885498046875,0.8544921875
1.2412499,6.787561893463135,-7.2113356590271,2.0661959648132324,-0.091552734375,-1.556396484375,0.7171630859375
1.2437498999999999,6.756437301635742,-7.2137298583984375,2.070984363555908,0.06103515625,-1.7242431640625,0.701904296875
1.2462499,6.730101108551025,-7.216124057769775,2.078166961669922,0.244140625,-1.922607421875,0.7476806640625
1.2487499,6.710947513580322,-7.220912456512451,2.0853497982025146,0.5645751953125,-2.2735595703125,0.6103515625
1.2512499,6.689399719238281,-7.225700855255127,2.0925323963165283,0.7476806640625,-2.5177001953125,0.518798828125
1.2537498999999999,6.675034523010254,-7.228095054626465,2.099714994430542,0.885009765625,-2.50244140625,0.3204345703125
1.2562499,6.653486728668213,-7.228095054626465,2.099714994430542,0.9002685546875,-2.7923583984375,0.274658203125
1.2587499,6.641515731811523,-7.228095054626465,2.0925323963165283,1.1444091796875,-3.082275390625,0.1068115234375
1.2612499,6.629544734954834,-7.220912456512451,2.078166961669922,1.3580322265625,-3.3721923828125,-0.1220703125
1.2637498999999999,6.615179061889648,-7.2137298583984375,2.0614075660705566,1.5716552734375,-3.753662109375,-0.1678466796875
1.2662499,6.603208065032959,-7.208941459655762,2.049436569213867,1.708984375,-3.8299560546875,-0.3204345703125
1.2687499,6.584054470062256,-7.206547260284424,2.049436569213867,2.0751953125,-4.150390625,-0.5645751953125
1.2712499,6.562506675720215,-7.201758861541748,2.051830768585205,2.2430419921875,-4.3182373046875,-0.67138671875
1.2737498999999999,6.5481414794921875,-7.206547260284424,2.0661959648132324,2.288818359375,-4.4403076171875,-0.701904296875
1.2762499,6.531382083892822,-7.204153060913086,2.070984363555908,2.349853515625,-4.6234130859375,-0.823974609375
1.2787499,6.521805286407471,-7.204153060913086,2.075772762298584,2.593994140625,-5.035400390625,-0.9613037109375
1.2812499,6.517016887664795,-7.204153060913086,2.078166961669922,2.6397705078125,-5.31005859375,-1.1444091796875
1.2837498999999999,6.512228488922119,-7.196970462799072,2.075772762298584,2.777099609375,-5.3253173828125,-1.0986328125
1.2862498999999998,6.512228488922119,-7.1921820640563965,2.078166961669922,3.1280517578125,-5.523681640625,-1.1444091796875
1.2887499,6.5050458908081055,-7.187393665313721,2.0829553604125977,3.3416748046875,-5.767822265625,-1.0833740234375
1.2912499,6.48828649520874,-7.182605266571045,2.0853497982025146,3.2806396484375,-5.9967041015625,-1.2664794921875
1.2937499,6.471527099609375,-7.187393665313721,2.0901381969451904,3.570556640625,-6.16455078125,-1.2664794921875
1.2962498999999998,6.449979305267334,-7.180211067199707,2.094926595687866,3.9215087890625,-6.40869140625,-1.373291015625
1.2987499,6.430825710296631,-7.175422668457031,2.094926595687866,4.2572021484375,-6.683349609375,-1.2969970703125
1.3012499,6.4164605140686035,-7.158663272857666,2.097320795059204,4.2724609375,-6.7596435546875,-1.2054443359375
1.3037499,6.404489517211914,-7.141903877258301,2.0901381969451904,4.425048828125,-7.0953369140625,-1.1749267578125
1.3062498999999999,6.402095317840576,-7.115567684173584,2.0877439975738525,4.4097900390625,-7.14111328125,-1.312255859375
1.3087499,6.402095317840576,-7.094019412994385,2.0805611610412598,4.5623779296875,-7.4462890625,-1.15966796875
1.3112499,6.399701118469238,-7.067683219909668,2.078166961669922,4.6844482421875,-7.62939453125,-1.1749267578125
1.3137499,6.3949127197265625,-7.048529624938965,2.073378562927246,4.730224609375,-7.7667236328125,-1.220703125
1.3162498999999999,6.382941722869873,-7.0317702293396,2.0685901641845703,4.82177734375,-7.9803466796875,-0.9918212890625
1.3187499,6.366182327270508,-7.017405033111572,2.0614075660705566,4.8065185546875,-8.30078125,-0.79345703125
1.3212499,6.349422931671143,-7.0126166343688965,2.049436569213867,4.8675537109375,-8.3465576171875,-0.5950927734375
1.3237499,6.337451934814453,-7.0126166343688965,2.0422539710998535,4.9285888671875,-8.36181640625,-0.518798828125
1.3262498999999999,6.332663536071777,-7.01979923248291,2.032677173614502,4.8828125,-8.4686279296875,-0.4730224609375
1.3287499,6.3302693367004395,-7.0317702293396,2.030282974243164,4.9896240234375,-8.5906982421875,-0.396728515625
1.3312499,6.332663536071777,-7.048529624938965,2.027888774871826,5.2337646484375,-8.72802734375,-0.091552734375
1.3337499,6.332663536071777,-7.062894821166992,2.0254945755004883,5.4473876953125,-8.941650390625,0.1678466796875
1.3362498999999999,6.337451934814453,-7.074865818023682,2.0183119773864746,5.615234375,-9.1094970703125,0.244140625
1.3387499,6.349422931671143,-7.082048416137695,2.0159177780151367,5.8746337890625,-9.1705322265625,0.5035400390625
1.3412499,6.36378812789917,-7.086836814880371,2.0231003761291504,5.767822265625,-9.2315673828125,0.701904296875
1.3437499,6.385335922241211,-7.089231014251709,2.0374655723571777,6.1798095703125,-9.4146728515625,0.9002685546875
1.3462498999999999,6.404489517211914,-7.091625213623047,2.0685901641845703,6.561279296875,-9.3231201171875,1.1444091796875
1.3487498999999998,6.421248912811279,-7.094019412994385,2.0901381969451904,6.805419921875,-9.6588134765625,1.3427734375
1.3512499,6.433219909667969,-7.096413612365723,2.1140801906585693,7.2174072265625,-10.0860595703125,1.6021728515625
1.3537499,6.440402507781982,-7.103596210479736,2.118868589401245,7.568359375,-10.1470947265625,1.708984375
1.3562499,6.440402507781982,-7.105990409851074,2.118868589401245,8.0718994140625,-10.1165771484375,1.8157958984375
1.3587498999999998,6.433219909667969,-7.105990409851074,2.1092917919158936,8.4075927734375,-10.0860595703125,2.0751953125
1.3612499,6.423643112182617,-7.105990409851074,2.0925323963165283,8.880615234375,-10.3912353515625,2.1209716796875
1.3637499,6.414066314697266,-7.105990409851074,2.0805611610412598,9.1094970703125,-10.406494140625,2.044677734375
1.3662499,6.411672115325928,-7.101202011108398,2.056619167327881,9.4757080078125,-10.6048583984375,2.655029296875
1.3687498999999999,6.411672115325928,-7.094019412994385,2.0374655723571777,9.7198486328125,-10.7574462890625,2.8839111328125
1.3712499,6.411672115325928,-7.089231014251709,2.013523578643799,10.1776123046875,-10.772705078125,2.838134765625
1.3737499,6.414066314697266,-7.079654216766357,1.9967641830444336,10.467529296875,-10.955810546875,3.0975341796875
1.3762499,6.414066314697266,-7.074865818023682,1.9823989868164062,10.6964111328125,-11.260986328125,3.0670166015625
1.3787498999999999,6.414066314697266,-7.074865818023682,1.9823989868164062,10.8795166015625,-11.4898681640625,3.1890869140625
1.3812499,6.411672115325928,-7.074865818023682,1.9847931861877441,11.16943359375,-11.5509033203125,3.3111572265625
1.3837499,6.411672115325928,-7.079654216766357,1.9919757843017578,11.2762451171875,-11.71875,3.3416748046875
1.3862499,6.40927791595459,-7.0772600173950195,1.9991583824157715,11.41357421875,-11.932373046875,3.47900390625
1.3887498999999999,6.411672115325928,-7.074865818023682,2.006340980529785,11.5966796875,-11.9781494140625,3.5400390625
1.3912499,6.411672115325928,-7.067683219909668,2.008735179901123,11.7340087890625,-12.1002197265625,3.90625
1.3937499,6.411672115325928,-7.062894821166992,2.011129379272461,11.6424560546875,-12.237548828125,3.7994384765625
1.3962499,6.411672115325928,-7.0557122230529785,2.006340980529785,11.6729736328125,-12.3748779296875,3.5552978515625
1.3987498999999999,6.411672115325928,-7.053318023681641,2.0039467811584473,11.962890625,-12.75634765625,3.631591796875
1.4012499,6.40927791595459,-7.058106422424316,1.9943699836730957,11.810302734375,-12.8936767578125,3.7994384765625
1.4037499,6.406883716583252,-7.058106422424316,1.987187385559082,11.505126953125,-12.8173828125,3.8604736328125
1.4062499,6.40927791595459,-7.06528902053833,1.9728221893310547,11.4288330078125,-13.031005859375,3.7689208984375
1.4087498999999999,6.404489517211914,-7.072471618652344,1.9584569931030273,11.5814208984375,-13.2293701171875,3.631591796875
1.4112498999999998,6.406883716583252,-7.082048416137695,1.944091796875,11.505126953125,-13.031005859375,3.5400390625
1.4137499,6.411672115325928,-7.094019412994385,1.9345149993896484,11.322021484375,-13.4429931640625,3.5247802734375
1.4162499,6.4164605140686035,-7.105990409851074,1.9345149993896484,11.383056640625,-13.641357421875,3.5400390625
1.4187499,6.423643112182617,-7.12035608291626,1.9369091987609863,11.4288330078125,-13.763427734375,3.5858154296875
1.4212498999999998,6.423643112182617,-7.137115478515625,1.9488801956176758,11.2762451171875,-14.0380859375,3.60107421875
1.4237499,6.430825710296631,-7.156269073486328,1.965639591217041,11.3525390625,-14.007568359375,3.6468505859375
1.4262499,6.435614109039307,-7.175422668457031,1.98958158493042,11.1541748046875,-13.885498046875,3.7078857421875
1.4287499,6.440402507781982,-7.189787864685059,2.011129379272461,11.3067626953125,-14.1754150390625,3.4637451171875
1.4312498999999999,6.44279670715332,-7.206547260284424,2.027888774871826,11.3372802734375,-14.2822265625,3.7384033203125
1.4337499,6.440402507781982,-7.218518257141113,2.032677173614502,11.2457275390625,-14.373779296875,3.7078857421875
1.4362499,6.435614109039307,-7.230489253997803,2.03507137298584,11.322021484375,-14.2822265625,3.6468505859375
1.4387499,6.430825710296631,-7.2568254470825195,2.0207061767578125,11.260986328125,-14.6331787109375,3.7994384765625
1.4412498999999999,6.435614109039307,-7.273584842681885,2.008735179901123,11.444091796875,-14.58740234375,3.8604736328125
1.4437499,6.4380083084106445,-7.29034423828125,1.9967641830444336,11.53564453125,-14.6484375,3.9215087890625
1.4462499,6.440402507781982,-7.3023152351379395,1.987187385559082,11.810302734375,-14.9078369140625,3.96728515625
1.4487499,6.4380083084106445,-7.316680431365967,1.9800047874450684,11.8560791015625,-15.045166015625,4.0435791015625
1.4512498999999999,6.4380083084106445,-7.3238630294799805,1.9800047874450684,11.871337890625,-14.9993896484375,3.96728515625
1.4537499,6.440402507781982,-7.331045627593994,1.9823989868164062,12.237548828125,-14.9383544921875,3.9520263671875
1.4562499,6.440402507781982,-7.333439826965332,1.987187385559082,12.20703125,-14.9688720703125,3.997802734375
1.4587499,6.445190906524658,-7.33583402633667,1.9943699836730957,12.3291015625,-15.0604248046875,3.814697265625
1.4612498999999999,6.449979305267334,-7.340622425079346,2.006340980529785,12.5885009765625,-15.07568359375,3.753662109375
1.4637499,6.4595561027526855,-7.343016624450684,2.013523578643799,12.8173828125,-15.167236328125,3.7689208984375
1.4662499,6.466738700866699,-7.352593421936035,2.0254945755004883,13.1378173828125,-15.045166015625,3.5400390625
1.4687499,6.478709697723389,-7.362170219421387,2.027888774871826,13.397216796875,-15.0299072265625,3.6468505859375
1.4712498999999999,6.485892295837402,-7.3693528175354,2.0254945755004883,13.580322265625,-15.289306640625,3.4332275390625
1.4737498999999998,6.48828649520874,-7.378929615020752,2.0207061767578125,13.8092041015625,-15.228271484375,3.47900390625
1.4762499,6.48828649520874,-7.386112213134766,2.0159177780151367,13.9312744140625,-15.167236328125,3.265380859375
1.4787499,6.481103897094727,-7.3885064125061035,2.013523578643799,14.22119140625,-15.2587890625,3.2958984375
1.4812499,6.473921298980713,-7.395689010620117,2.008735179901123,14.6484375,-15.1214599609375,3.35693359375
1.4837498999999998,6.469132900238037,-7.395689010620117,1.9991583824157715,14.83154296875,-15.106201171875,3.2806396484375
1.4862499,6.464344501495361,-7.390900611877441,1.9823989868164062,15.07568359375,-15.289306640625,3.3111572265625
1.4887499,6.466738700866699,-7.38132381439209,1.9632453918457031,15.3961181640625,-15.380859375,3.23486328125
1.4912499,6.469132900238037,-7.374141216278076,1.9488801956176758,15.68603515625,-15.350341796875,3.3721923828125
1.4937498999999999,6.471527099609375,-7.359776020050049,1.9321208000183105,15.9759521484375,-15.4571533203125,3.4942626953125
1.4962499,6.471527099609375,-7.354987621307373,1.920149803161621,16.1285400390625,-15.31982421875,3.3721923828125
1.4987499,6.471527099609375,-7.3454108238220215,1.9081788063049316,16.2811279296875,-15.228271484375,3.387451171875
1.5012499,6.466738700866699,-7.338228225708008,1.8986018896102905,16.571044921875,-15.2435302734375,3.2958984375
1.5037498999999999,6.461950302124023,-7.331045627593994,1.8962076902389526,16.6168212890625,-15.289306640625,3.4027099609375
1.5062499,6.449979305267334,-7.326257228851318,1.8962076902389526,16.7999267578125,-15.3656005859375,3.2958984375
1.5087499,6.435614109039307,-7.316680431365967,1.900996208190918,16.9525146484375,-15.31982421875,3.35693359375
1.5112499,6.418854713439941,-7.309497833251953,1.9105730056762695,17.1661376953125,-15.2740478515625,3.265380859375
1.5137498999999999,6.402095317840576,-7.304709434509277,1.9153614044189453,17.181396484375,-15.5792236328125,3.173828125
1.5162499,6.392518520355225,-7.304709434509277,1.9129672050476074,16.876220703125,-15.5792236328125,2.99072265625
1.5187499,6.382941722869873,-7.304709434509277,1.8986018896102905,17.1356201171875,-15.56396484375,3.3721923828125
1.5212499,6.380547523498535,-7.299921035766602,1.8794482946395874,17.39501953125,-15.4876708984375,3.2196044921875
1.5237498999999999,6.375759124755859,-7.295132637023926,1.8579005002975464,17.242431640625,-15.594482421875,3.1280517578125
1.5262499,6.375759124755859,-7.287950038909912,1.8363527059555054,17.15087890625,-15.655517578125,3.11279296875
1.5287499,6.370970726013184,-7.285555839538574,1.8267759084701538,17.1356201171875,-15.7928466796875,3.2196044921875
1.5312499,6.366182327270508,-7.285555839538574,1.8171991109848022,17.02880859375,-15.869140625,3.0059814453125
1.5337498999999999,6.368576526641846,-7.287950038909912,1.8195933103561401,16.9677734375,-15.960693359375,2.9144287109375
1.5362499,6.3733649253845215,-7.287950038909912,1.8148049116134644,16.9830322265625,-15.9149169921875,3.021240234375
1.5387499,6.378153324127197,-7.283161640167236,1.8100165128707886,16.78466796875,-16.1590576171875,3.2958984375
1.5412499,6.385335922241211,-7.2783732414245605,1.800439715385437,16.6473388671875,-16.082763671875,3.1280517578125
1.5437499,6.387730121612549,-7.268796443939209,1.7884687185287476,16.4337158203125,-16.41845703125,3.143310546875
1.5462498999999998,6.3949127197265625,-7.259219646453857,1.7764976024627686,16.1895751953125,-16.3421630859375,3.11279296875
1.5487499,6.3973069190979,-7.249642848968506,1.764526605606079,15.9454345703125,-16.0675048828125,3.265380859375
1.5512499,6.402095317840576,-7.242460250854492,1.7573440074920654,15.7928466796875,-16.2811279296875,3.2806396484375
1.5537499,6.399701118469238,-7.2352776527404785,1.7549498081207275,15.380859375,-16.4947509765625,3.60107421875
1.5562498999999999,6.3973069190979,-7.232883453369141,1.764526605606079,15.289306640625,-16.693115234375,3.6773681640625
1.5587499,6.3949127197265625,-7.228095054626465,1.778891921043396,15.07568359375,-16.6778564453125,3.570556640625
1.5612499,6.3949127197265625,-7.220912456512451,1.802833914756775,14.7857666015625,-16.5863037109375,3.60107421875
1.5637499,6.3949127197265625,-7.2113356590271,1.824381709098816,14.434814453125,-16.5863037109375,3.41796875
1.5662498999999999,6.402095317840576,-7.204153060913086,1.843535304069519,14.2669677734375,-16.387939453125,3.5552978515625
1.5687499,6.4164605140686035,-7.194576263427734,1.8531121015548706,14.007568359375,-16.357421875,3.60107421875
1.5712499,6.426037311553955,-7.196970462799072,1.8579005002975464,13.702392578125,-16.4031982421875,3.60107421875
1.5737499,6.430825710296631,-7.201758861541748,1.8579005002975464,13.3819580078125,-16.326904296875,3.448486328125
1.5762498999999999,6.423643112182617,-7.216124057769775,1.8483237028121948,13.4735107421875,-16.2811279296875,3.47900390625
1.5787499,6.406883716583252,-7.24485445022583,1.8411411046981812,13.5345458984375,-16.2506103515625,3.662109375
1.5812499,6.387730121612549,-7.271190643310547,1.8315643072128296,13.24462890625,-16.1590576171875,3.692626953125
1.5837499,6.370970726013184,-7.299921035766602,1.8171991109848022,13.0157470703125,-16.2200927734375,3.72314453125
1.5862498999999999,6.358999729156494,-7.319074630737305,1.8148049116134644,13.0462646484375,-16.387939453125,3.9215087890625
1.5887499,6.354211330413818,-7.338228225708008,1.8076223134994507,13.0615234375,-16.4794921875,3.72314453125
1.5912499,6.349422931671143,-7.3454108238220215,1.8052281141281128,13.2904052734375,-16.4337158203125,3.753662109375
1.5937499,6.347028732299805,-7.354987621307373,1.8052281141281128,13.2598876953125,-16.326904296875,3.8299560546875
1.5962498999999999,6.342240333557129,-7.362170219421387,1.8052281141281128,13.427734375,-16.3726806640625,3.5858154296875
1.5987499,6.339846134185791,-7.3693528175354,1.8171991109848022,13.3209228515625,-16.326904296875,3.662109375
1.6012499,6.337451934814453,-7.38132381439209,1.8291701078414917,13.336181640625,-16.17431640625,3.753662109375
1.6037499,6.327875137329102,-7.390900611877441,1.8411411046981812,13.519287109375,-16.0064697265625,3.875732421875
1.6062499,6.315904140472412,-7.398083209991455,1.8555063009262085,13.458251953125,-16.3421630859375,4.0130615234375
1.6087498999999998,6.303933143615723,-7.405265808105469,1.8626888990402222,13.7481689453125,-16.2506103515625,4.180908203125
1.6112499,6.289567947387695,-7.407660007476807,1.8698714971542358,14.007568359375,-16.2200927734375,3.997802734375
1.6137499,6.287173748016357,-7.41484260559082,1.8794482946395874,13.9923095703125,-16.0369873046875,3.96728515625
1.6162499,6.282385349273682,-7.429207801818848,1.8842366933822632,14.09912109375,-16.2506103515625,4.0283203125
1.6187498999999999,6.279991149902344,-7.441178798675537,1.886630892753601,14.34326171875,-16.29638671875,4.0130615234375
1.6212499,6.277596950531006,-7.450755596160889,1.889025092124939,14.3280029296875,-16.1285400390625,3.96728515625
1.6237499,6.270414352416992,-7.4555439949035645,1.8842366933822632,14.5416259765625,-16.143798828125,4.1656494140625
1.6262499,6.265625953674316,-7.46033239364624,1.8818424940109253,14.9993896484375,-15.93017578125,4.1046142578125
1.6287498999999999,6.260837554931641,-7.4555439949035645,1.8770540952682495,15.1214599609375,-16.0064697265625,4.180908203125
1.6312499,6.256049156188965,-7.457938194274902,1.8746598958969116,14.95361328125,-16.0675048828125,4.1351318359375
1.6337499,6.258443355560303,-7.450755596160889,1.8746598958969116,14.9383544921875,-16.1285400390625,4.1351318359375
1.6362499,6.258443355560303,-7.443572998046875,1.8722656965255737,15.0146484375,-15.8843994140625,4.241943359375
1.6387498999999999,6.260837554931641,-7.438784599304199,1.867477297782898,15.2435302734375,-15.9149169921875,4.3182373046875
1.6412499,6.260837554931641,-7.4316020011901855,1.8698714971542358,15.228271484375,-16.021728515625,4.21142578125
1.6437499,6.265625953674316,-7.424419403076172,1.867477297782898,15.228271484375,-15.838623046875,4.2877197265625
1.6462499,6.27280855178833,-7.417236804962158,1.8722656965255737,14.8468017578125,-15.44189453125,4.302978515625
1.6487498999999999,6.301538944244385,-7.400477409362793,1.8818424940109253,14.83154296875,-15.594482421875,4.0435791015625
1.6512499,6.31829833984375,-7.390900611877441,1.886630892753601,14.892578125,-15.6402587890625,3.9825439453125
1.6537499,6.3302693367004395,-7.38132381439209,1.8962076902389526,14.8468017578125,-15.716552734375,3.9215087890625
1.6562499,6.337451934814453,-7.374141216278076,1.9081788063049316,14.6942138671875,-15.411376953125,3.8909912109375
1.6587498999999999,6.339846134185791,-7.371747016906738,1.9249382019042969,14.6942138671875,-15.350341796875,3.7689208984375
1.6612499,6.332663536071777,-7.374141216278076,1.9393033981323242,14.6484375,-15.167236328125,3.875732421875
1.6637499,6.327875137329102,-7.38132381439209,1.9584569931030273,14.5111083984375,-15.106201171875,3.90625
1.6662499,6.31829833984375,-7.395689010620117,1.9728221893310547,14.58740234375,-15.106201171875,3.84521484375
1.6687499,6.3063273429870605,-7.412448406219482,1.9823989868164062,14.7247314453125,-15.228271484375,3.72314453125
1.6712498999999998,6.296750545501709,-7.429207801818848,1.9847931861877441,14.801025390625,-15.045166015625,3.753662109375
1.6737499,6.282385349273682,-7.443572998046875,1.9776105880737305,14.739990234375,-14.9383544921875,3.60107421875
1.6762499,6.277596950531006,-7.457938194274902,1.965639591217041,14.95361328125,-15.0299072265625,3.8909912109375
1.6787499,6.27280855178833,-7.465120792388916,1.9488801956176758,14.9383544921875,-14.923095703125,3.692626953125
1.6812498999999999,6.275202751159668,-7.467514991760254,1.9393033981323242,15.0604248046875,-15.045166015625,3.5400390625
1.6837499,6.270414352416992,-7.47230339050293,1.9249382019042969,14.8468017578125,-14.9383544921875,3.47900390625
1.6862499,6.265625953674316,-7.474697589874268,1.920149803161621,15.07568359375,-14.8773193359375,3.60107421875
1.6887499,6.258443355560303,-7.4770917892456055,1.9105730056762695,15.228271484375,-15.0909423828125,3.47900390625
1.6912498999999999,6.253654956817627,-7.481880187988281,1.9033904075622559,15.2740478515625,-15.19775390625,3.47900390625
1.6937499,6.248866558074951,-7.489062786102295,1.8962076902389526,15.44189453125,-15.289306640625,3.4637451171875
1.6962499,6.248866558074951,-7.493851184844971,1.886630892753601,15.625,-15.19775390625,3.5247802734375
1.6987499,6.246472358703613,-7.491456985473633,1.8818424940109253,15.350341796875,-15.1519775390625,3.2806396484375
1.7012498999999999,6.248866558074951,-7.484274387359619,1.8770540952682495,15.3656005859375,-15.1214599609375,3.4027099609375
1.7037499,6.253654956817627,-7.469909191131592,1.8746598958969116,15.380859375,-15.2587890625,3.326416015625
1.7062499,6.2632317543029785,-7.453149795532227,1.8794482946395874,15.3350830078125,-15.2130126953125,3.47900390625
1.7087499,6.275202751159668,-7.441178798675537,1.889025092124939,15.1519775390625,-15.289306640625,3.35693359375
1.7112498999999999,6.291962146759033,-7.429207801818848,1.8914192914962769,14.7705078125,-15.31982421875,3.3721923828125
1.7137499,6.311115741729736,-7.412448406219482,1.8914192914962769,14.6484375,-15.1824951171875,3.4637451171875
1.7162499,6.335057735443115,-7.395689010620117,1.8842366933822632,14.434814453125,-15.2435302734375,3.2501220703125
1.7187499,6.361393928527832,-7.374141216278076,1.8794482946395874,14.2364501953125,-15.19775390625,3.0517578125
1.7212498999999999,6.387730121612549,-7.357381820678711,1.8794482946395874,14.2669677734375,-15.2587890625,2.99072265625
1.7237499,6.4164605140686035,-7.354987621307373,1.8842366933822632,14.0380859375,-15.13671875,2.7618408203125
1.7262499,6.44279670715332,-7.354987621307373,1.8962076902389526,13.85498046875,-15.2435302734375,2.7923583984375
1.7287499,6.466738700866699,-7.374141216278076,1.9129672050476074,13.641357421875,-14.984130859375,2.6092529296875
1.7312499,6.48828649520874,-7.390900611877441,1.9297266006469727,13.641357421875,-14.923095703125,2.5482177734375
1.7337498999999998,6.497863292694092,-7.4100542068481445,1.944091796875,13.5345458984375,-14.95361328125,2.288818359375
1.7362499,6.5050458908081055,-7.422025203704834,1.9536685943603516,13.336181640625,-14.6026611328125,2.0751953125
1.7387499,6.50025749206543,-7.429207801818848,1.9560627937316895,13.1378173828125,-14.6026611328125,1.9378662109375
1.7412499,6.495469093322754,-7.433996200561523,1.9608511924743652,13.3514404296875,-14.6331787109375,1.739501953125
1.7437498999999999,6.48828649520874,-7.438784599304199,1.9584569931030273,13.1378173828125,-14.6331787109375,1.6937255859375
1.7462499,6.478709697723389,-7.453149795532227,1.9608511924743652,13.3056640625,-14.4805908203125,1.4190673828125
1.7487499,6.473921298980713,-7.467514991760254,1.9584569931030273,13.2904052734375,-14.5416259765625,1.2359619140625
1.7512499,6.469132900238037,-7.489062786102295,1.9512743949890137,13.427734375,-14.46533203125,1.3275146484375
1.7537498999999999,6.461950302124023,-7.508216381072998,1.944091796875,13.519287109375,-14.4195556640625,1.1444091796875
1.7562499,6.457161903381348,-7.524975776672363,1.9345149993896484,13.6566162109375,-14.5111083984375,0.7476806640625
1.7587499,6.449979305267334,-7.536946773529053,1.9273324012756348,13.7939453125,-14.3280029296875,0.5035400390625
1.7612499,6.44279670715332,-7.548917770385742,1.920149803161621,14.1143798828125,-14.22119140625,0.4730224609375
1.7637498999999999,6.435614109039307,-7.553706169128418,1.9153614044189453,14.373779296875,-14.3585205078125,0.4425048828125
1.7662499,6.430825710296631,-7.556100368499756,1.9129672050476074,14.6484375,-14.6026611328125,0.396728515625
1.7687499,6.430825710296631,-7.55131196975708,1.9057846069335938,14.7705078125,-14.46533203125,0.152587890625
1.7712499,6.4380083084106445,-7.548917770385742,1.9033904075622559,15.0909423828125,-14.312744140625,0.1068115234375
1.7737498999999999,6.449979305267334,-7.539340972900391,1.9033904075622559,15.31982421875,-14.46533203125,-0.030517578125
1.7762499,6.464344501495361,-7.529764175415039,1.900996208190918,15.533447265625,-14.3585205078125,-0.3662109375
1.7787499,6.476315498352051,-7.51779317855835,1.9057846069335938,15.7928466796875,-14.3585205078125,-0.701904296875
1.7812499,6.481103897094727,-7.513004779815674,1.9153614044189453,15.716552734375,-14.2822265625,-0.7171630859375
1.7837498999999999,6.485892295837402,-7.508216381072998,1.922544002532959,15.716552734375,-14.4195556640625,-0.9918212890625
1.7862499,6.485892295837402,-7.508216381072998,1.9297266006469727,15.960693359375,-14.1143798828125,-1.312255859375
1.7887499,6.4834980964660645,-7.50582218170166,1.9273324012756348,16.0064697265625,-14.129638671875,-1.2969970703125
1.7912499,6.485892295837402,-7.496245384216309,1.920149803161621,15.899658203125,-14.09912109375,-1.52587890625
1.7937499,6.4834980964660645,-7.484274387359619,1.8986018896102905,15.6707763671875,-14.09912109375,-1.6937255859375
1.7962498999999998,6.481103897094727,-7.469909191131592,1.8770540952682495,15.80810546875,-13.8092041015625,-1.64794921875
1.7987499,6.476315498352051,-7.4555439949035645,1.8507179021835327,15.625,-13.5650634765625,-1.7242431640625
1.8012499,6.466738700866699,-7.436390399932861,1.8291701078414917,15.3656005859375,-13.61083984375,-1.7852783203125
1.8037499,6.4595561027526855,-7.419631004333496,1.8124107122421265,15.2740478515625,-13.397216796875,-1.922607421875
1.8062498999999999,6.447585105895996,-7.402871608734131,1.7932571172714233,14.8468017578125,-13.3819580078125,-2.01416015625
1.8087499,6.4380083084106445,-7.386112213134766,1.7860745191574097,14.434814453125,-13.4124755859375,-1.9378662109375
1.8112499,6.428431510925293,-7.374141216278076,1.778891921043396,14.190673828125,-13.214111328125,-2.13623046875
1.8137499,6.414066314697266,-7.354987621307373,1.778891921043396,13.97705078125,-13.3056640625,-2.2735595703125
1.8162498999999999,6.399701118469238,-7.331045627593994,1.7812861204147339,13.5040283203125,-13.18359375,-2.410888671875
1.8187499,6.382941722869873,-7.307103633880615,1.7812861204147339,13.0767822265625,-13.1378173828125,-2.3956298828125
1.8212499,6.366182327270508,-7.283161640167236,1.7812861204147339,12.6190185546875,-12.969970703125,-2.4566650390625
1.8237499,6.349422931671143,-7.266402244567871,1.7764976024627686,12.1917724609375,-12.8936767578125,-2.4566650390625
1.8262498999999999,6.335057735443115,-7.252037048339844,1.7741034030914307,11.810302734375,-12.908935546875,-2.6092529296875
1.8287499,6.327875137329102,-7.240066051483154,1.7693150043487549,11.474609375,-12.8326416015625,-2.6092529296875
1.8312499,6.323086738586426,-7.232883453369141,1.7693150043487549,11.1236572265625,-12.725830078125,-2.685546875
1.8337499,6.325480937957764,-7.225700855255127,1.7717092037200928,10.6048583984375,-12.6953125,-2.685546875
1.8362498999999999,6.3302693367004395,-7.230489253997803,1.7717092037200928,10.31494140625,-12.664794921875,-2.899169921875
1.8387499,6.337451934814453,-7.232883453369141,1.7741034030914307,9.9639892578125,-12.4053955078125,-2.960205078125
1.8412499,6.342240333557129,-7.24485445022583,1.778891921043396,9.8114013671875,-12.3443603515625,-2.8076171875
1.8437499,6.344634532928467,-7.249642848968506,1.778891921043396,9.7808837890625,-12.298583984375,-2.777099609375
1.8462498999999999,6.344634532928467,-7.261613845825195,1.7860745191574097,9.6435546875,-12.4359130859375,-2.899169921875
1.8487499,6.342240333557129,-7.273584842681885,1.800439715385437,9.4757080078125,-12.4664306640625,-2.838134765625
1.8512499,6.344634532928467,-7.29034423828125,1.8124107122421265,9.307861328125,-12.2833251953125,-2.8076171875
1.8537499,6.3518171310424805,-7.307103633880615,1.8339585065841675,9.27734375,-12.39013671875,-2.8076171875
1.8562499,6.36378812789917,-7.326257228851318,1.8507179021835327,9.429931640625,-12.2222900390625,-2.5634765625
1.8587498999999998,6.370970726013184,-7.340622425079346,1.86508309841156,9.368896484375,-12.054443359375,-2.7313232421875
1.8612499,6.380547523498535,-7.3669586181640625,1.8770540952682495,9.4146728515625,-11.8560791015625,-2.4871826171875
1.8637499,6.375759124755859,-7.371747016906738,1.8746598958969116,9.4757080078125,-11.7034912109375,-2.166748046875
1.8662499,6.3733649253845215,-7.371747016906738,1.8794482946395874,9.7503662109375,-11.7645263671875,-2.0599365234375
1.8687498999999999,6.361393928527832,-7.3693528175354,1.8842366933822632,9.9334716796875,-11.4593505859375,-2.227783203125
1.8712499,6.347028732299805,-7.3693528175354,1.8914192914962769,9.9639892578125,-11.2762451171875,-2.227783203125
1.8737499,6.3302693367004395,-7.364564418792725,1.9033904075622559,10.19287109375,-11.41357421875,-1.8768310546875
1.8762499,6.320692539215088,-7.3669586181640625,1.9081788063049316,10.2081298828125,-11.3525390625,-1.9073486328125
1.8787498999999999,6.315904140472412,-7.3669586181640625,1.9081788063049316,10.4522705078125,-11.2457275390625,-1.8157958984375
1.8812499,6.320692539215088,-7.374141216278076,1.900996208190918,10.3607177734375,-11.138916015625,-1.8768310546875
1.8837499,6.3302693367004395,-7.386112213134766,1.8914192914962769,10.7574462890625,-11.0931396484375,-1.9073486328125
1.8862499,6.337451934814453,-7.393294811248779,1.8818424940109253,11.2457275390625,-10.9405517578125,-1.9073486328125
1.8887498999999999,6.339846134185791,-7.393294811248779,1.8746598958969116,11.3525390625,-10.8642578125,-1.7242431640625
1.8912499,6.339846134185791,-7.3885064125061035,1.8722656965255737,11.41357421875,-11.0015869140625,-1.5411376953125
1.8937499,6.335057735443115,-7.376535415649414,1.867477297782898,11.53564453125,-10.9405517578125,-1.4190673828125
1.8962499,6.320692539215088,-7.3669586181640625,1.8602946996688843,11.8560791015625,-10.9405517578125,-1.3275146484375
1.8987498999999999,6.3063273429870605,-7.347805023193359,1.8555063009262085,11.9171142578125,-10.8795166015625,-1.2054443359375
1.9012499,6.291962146759033,-7.33583402633667,1.8507179021835327,11.932373046875,-11.0015869140625,-1.2359619140625
1.9037499,6.27280855178833,-7.316680431365967,1.8411411046981812,11.7950439453125,-10.92529296875,-1.15966796875
1.9062499,6.256049156188965,-7.297526836395264,1.8387469053268433,11.7645263671875,-10.9405517578125,-1.03759765625
1.9087498999999999,6.2416839599609375,-7.271190643310547,1.8291701078414917,11.53564453125,-10.894775390625,-0.9918212890625
1.9112499,6.232107162475586,-7.247248649597168,1.821987509727478,11.474609375,-10.833740234375,-0.885009765625
1.9137499,6.222530364990234,-7.218518257141113,1.8076223134994507,11.53564453125,-10.8489990234375,-0.823974609375
1.9162499,6.217741966247559,-7.196970462799072,1.7980455160140991,11.1083984375,-10.7421875,-0.8544921875
1.9187499,6.217741966247559,-7.177816867828369,1.7812861204147339,10.833740234375,-10.7421875,-0.732421875
1.9212498999999998,6.215347766876221,-7.163451671600342,1.7717092037200928,10.7879638671875,-10.7269287109375,-0.7476806640625
1.9237499,6.217741966247559,-7.158663272857666,1.764526605606079,10.589599609375,-10.7269287109375,-0.640869140625
1.9262499,6.222530364990234,-7.151480674743652,1.7621324062347412,10.284423828125,-10.6658935546875,-0.6256103515625
1.9287499,6.236895561218262,-7.146692276000977,1.7717092037200928,9.9945068359375,-10.5133056640625,-0.640869140625
1.9312498999999999,6.256049156188965,-7.144298076629639,1.7836803197860718,9.5672607421875,-10.467529296875,-0.640869140625
1.9337499,6.270414352416992,-7.139509677886963,1.7956513166427612,9.307861328125,-10.528564453125,-0.6256103515625
1.9362499,6.287173748016357,-7.141903877258301,1.8076223134994507,9.063720703125,-10.498046875,-0.6256103515625
1.9387499,6.294356346130371,-7.146692276000977,1.8100165128707886,8.941650390625,-10.3912353515625,-0.54931640625
1.9412498999999999,6.301538944244385,-7.156269073486328,1.8124107122421265,8.7738037109375,-10.2691650390625,-0.4119873046875
1.9437499,6.308721542358398,-7.173028469085693,1.8124107122421265,8.4991455078125,-10.345458984375,-0.48828125
1.9462499,6.3063273429870605,-7.187393665313721,1.8171991109848022,8.30078125,-10.223388671875,-0.48828125
1.9487499,6.308721542358398,-7.204153060913086,1.8171991109848022,8.2855224609375,-10.2691650390625,-0.3662109375
1.9512498999999999,6.3063273429870605,-7.216124057769775,1.821987509727478,7.9803466796875,-10.2081298828125,-0.152587890625
1.9537499,6.313509941101074,-7.232883453369141,1.824381709098816,7.75146484375,-9.9334716796875,-0.1373291015625
1.9562499,6.31829833984375,-7.242460250854492,1.824381709098816,7.598876953125,-9.82666015625,-0.213623046875
1.9587499,6.323086738586426,-7.2568254470825195,1.824381709098816,7.6751708984375,-9.918212890625,-0.4730224609375
1.9612498999999999,6.315904140472412,-7.264008045196533,1.821987509727478,7.568359375,-9.735107421875,-0.1373291015625
1.9637499,6.3063273429870605,-7.268796443939209,1.821987509727478,7.3699951171875,-9.7503662109375,0.06103515625
1.9662499,6.289567947387695,-7.266402244567871,1.8171991109848022,7.4005126953125,-9.8724365234375,0.1373291015625
1.9687499,6.270414352416992,-7.261613845825195,1.8100165128707886,7.110595703125,-9.5977783203125,0.091552734375
1.9712498999999999,6.253654956817627,-7.249642848968506,1.802833914756775,7.2021484375,-9.3994140625,0.3509521484375
1.9737499,6.232107162475586,-7.2352776527404785,1.7956513166427612,7.01904296875,-9.5062255859375,0.3814697265625
1.9762499,6.212953567504883,-7.216124057769775,1.7860745191574097,6.5765380859375,-9.3994140625,0.1220703125
1.9787499,6.200982570648193,-7.196970462799072,1.778891921043396,6.256103515625,-9.0789794921875,0.1983642578125
1.9812499,6.186617374420166,-7.180211067199707,1.766920804977417,6.0577392578125,-8.9874267578125,0.3814697265625
1.9837499,6.179434776306152,-7.168240070343018,1.7573440074920654,5.92041015625,-9.124755859375,0.42724609375
1.9862499,6.169857978820801,-7.163451671600342,1.7477672100067139,5.67626953125,-8.8653564453125,0.5950927734375
1.9887499,6.160281181335449,-7.1706342697143555,1.745373010635376,5.1727294921875,-8.514404296875,0.5645751953125
1.9912499,6.14831018447876,-7.189787864685059,1.7501614093780518,4.974365234375,-8.4228515625,0.5035400390625
1.9937498999999999,6.133944988250732,-7.204153060913086,1.7573440074920654,4.8370361328125,-8.30078125,0.67138671875
1.9962499,6.119579315185547,-7.223306655883789,1.764526605606079,4.9285888671875,-8.1787109375,0.7171630859375
1.9987499,6.1052141189575195,-7.232883453369141,1.7693150043487549,4.4403076171875,-7.87353515625,0.823974609375
2.0012499,6.102819919586182,-7.2352776527404785,1.7693150043487549,4.0435791015625,-7.598876953125,0.67138671875
2.0037499,6.095637321472168,-7.240066051483154,1.764526605606079,4.058837890625,-7.537841796875,1.1444091796875
2.0062499,6.102819919586182,-7.240066051483154,1.7549498081207275,3.8604736328125,-7.2021484375,1.251220703125
2.0087498999999998,6.107608318328857,-7.242460250854492,1.742978811264038,3.753662109375,-6.866455078125,1.03759765625
2.0112499,6.114790916442871,-7.249642848968506,1.7310078144073486,3.4332275390625,-6.8206787109375,1.251220703125
2.0137499,6.119579315185547,-7.254431247711182,1.7142484188079834,3.1890869140625,-6.683349609375,1.556396484375
2.0162499,6.121973514556885,-7.266402244567871,1.7046716213226318,3.1890869140625,-6.3629150390625,1.556396484375
2.0187499,6.124367713928223,-7.273584842681885,1.6974890232086182,2.777099609375,-6.0577392578125,1.6937255859375
2.0212499,6.121973514556885,-7.280767440795898,1.6927006244659424,2.6397705078125,-5.8441162109375,1.739501953125
2.0237499,6.117185115814209,-7.283161640167236,1.6950948238372803,2.1514892578125,-5.615234375,1.9683837890625
2.0262499,6.107608318328857,-7.285555839538574,1.6927006244659424,1.9683837890625,-5.4473876953125,2.2430419921875
2.0287498999999998,6.098031520843506,-7.283161640167236,1.6903064250946045,1.983642578125,-5.2337646484375,2.3040771484375
2.0312499,6.088454723358154,-7.280767440795898,1.6831238269805908,1.8310546875,-5.035400390625,2.4566650390625
2.0337499,6.088454723358154,-7.280767440795898,1.6759412288665771,1.8310546875,-4.7607421875,2.8839111328125
2.0362499,6.090848922729492,-7.280767440795898,1.6663644313812256,1.5869140625,-4.4097900390625,3.265380859375
2.0387499,6.095637321472168,-7.275979042053223,1.6519991159439087,1.2359619140625,-4.058837890625,3.2196044921875
2.0412499,6.09324312210083,-7.273584842681885,1.6352397203445435,1.129150390625,-3.9520263671875,3.5400390625
2.0437499,6.086060523986816,-7.271190643310547,1.6112977266311646,1.007080078125,-3.6773681640625,3.9215087890625
2.0462499,6.069301128387451,-7.275979042053223,1.5849615335464478,0.5950927734375,-3.5400390625,4.0740966796875
2.0487499,6.052541732788086,-7.283161640167236,1.558625340461731,0.244140625,-3.2196044921875,4.5318603515625
2.0512498999999997,6.030993938446045,-7.295132637023926,1.53707754611969,-0.06103515625,-2.6397705078125,4.6844482421875
2.0537499,6.011840343475342,-7.297526836395264,1.525106430053711,-0.518798828125,-2.6702880859375,4.94384765625
2.0562499,5.995080947875977,-7.295132637023926,1.5203180313110352,-0.8087158203125,-2.4261474609375,5.2947998046875
2.0587499,5.985504150390625,-7.29034423828125,1.5131354331970215,-1.0833740234375,-1.9073486328125,5.584716796875
2.0612499,5.96874475479126,-7.283161640167236,1.501164436340332,-1.77001953125,-1.7547607421875,5.6915283203125
2.0637499,5.959167957305908,-7.2783732414245605,1.479616641998291,-2.3651123046875,-1.495361328125,5.7830810546875
2.0662499,5.942408561706543,-7.273584842681885,1.4484920501708984,-2.8076171875,-1.1138916015625,5.9661865234375
2.0687499,5.918466567993164,-7.264008045196533,1.41257905960083,-3.4027099609375,-0.91552734375,6.2408447265625
2.0712498999999998,5.892130374908447,-7.259219646453857,1.3694833517074585,-4.21142578125,-0.5950927734375,6.6070556640625
2.0737499,5.849034786224365,-7.242460250854492,1.290474772453308,-5.3863525390625,0.274658203125,6.6070556640625
2.0762499,5.834669589996338,-7.237671852111816,1.2617442607879639,-6.2713623046875,0.244140625,6.591796875
2.0787499,5.817910194396973,-7.2352776527404785,1.235408067703247,-7.049560546875,0.54931640625,6.8206787109375
2.0812499,5.805939197540283,-7.237671852111816,1.2090718746185303,-7.965087890625,1.068115234375,6.866455078125
2.0837499,5.796362400054932,-7.249642848968506,1.192312479019165,-8.8043212890625,1.251220703125,6.8359375
2.0862499,5.796362400054932,-7.264008045196533,1.1803414821624756,-9.5977783203125,1.678466796875,6.8817138671875
2.0887499,5.796362400054932,-7.287950038909912,1.173158884048462,-10.5438232421875,2.1820068359375,7.0648193359375
2.0912498999999998,5.796362400054932,-7.314286231994629,1.1683704853057861,-11.4898681640625,2.532958984375,7.2021484375
2.0937499,5.793968200683594,-7.347805023193359,1.1563993692398071,-12.2528076171875,3.0364990234375,7.293701171875
2.0962499,5.784391403198242,-7.376535415649414,1.139639973640442,-13.12255859375,3.570556640625,7.354736328125
2.0987499,5.767632007598877,-7.405265808105469,1.1228805780410767,-14.0228271484375,3.875732421875,7.5836181640625
2.1012499,5.750872611999512,-7.433996200561523,1.1085153818130493,-14.95361328125,4.4403076171875,7.75146484375
2.1037499,5.729324817657471,-7.467514991760254,1.0965443849563599,-15.7623291015625,5.035400390625,7.904052734375
2.1062499,5.70777702331543,-7.510610580444336,1.0821791887283325,-16.66259765625,5.67626953125,8.0718994140625
2.1087499,5.681440830230713,-7.553706169128418,1.0678139925003052,-17.39501953125,6.0272216796875,8.2855224609375
2.1112499,5.655104637145996,-7.601590633392334,1.0438719987869263,-17.9595947265625,6.683349609375,8.575439453125
2.1137498999999997,5.626373767852783,-7.649474620819092,1.0199298858642578,-18.6767578125,7.2784423828125,8.697509765625
2.1162499,5.5976433753967285,-7.692570209503174,0.9911994934082031,-19.287109375,7.6751708984375,8.819580078125
2.1187499,5.57370138168335,-7.723694801330566,0.9648633003234863,-19.95849609375,8.0718994140625,9.307861328125
2.1212499,5.547365188598633,-7.747636795043945,0.9409212470054626,-20.4315185546875,8.758544921875,9.490966796875
2.1237499,5.521028995513916,-7.766790390014648,0.9217676520347595,-21.270751953125,9.429931640625,9.70458984375
2.1262499,5.497087001800537,-7.783549785614014,0.9050082564353943,-22.0184326171875,10.3607177734375,10.040283203125
2.1287499,5.473145008087158,-7.800309181213379,0.8882488012313843,-22.308349609375,10.7879638671875,10.223388671875
2.1312499,5.442020416259766,-7.817068576812744,0.8690952062606812,-22.7813720703125,11.322021484375,10.25390625
2.1337498999999998,5.408501625061035,-7.826645374298096,0.8451532125473022,-23.193359375,12.14599609375,10.6201171875
2.1362499,5.372588634490967,-7.836222171783447,0.8140285611152649,-23.8037109375,12.7410888671875,10.8642578125
2.1387499,5.339069843292236,-7.838616371154785,0.7829039692878723,-24.444580078125,13.458251953125,11.3372802734375
2.1412499,5.315127849578857,-7.841010570526123,0.7469909191131592,-24.7039794921875,14.251708984375,11.6729736328125
2.1437499,5.2911858558654785,-7.843404769897461,0.7158663272857666,-25.1007080078125,14.923095703125,11.9171142578125
2.1462499,5.2696380615234375,-7.841010570526123,0.6847416758537292,-25.4364013671875,15.7318115234375,11.9171142578125
2.1487499,5.250484466552734,-7.838616371154785,0.6607996821403503,-25.8941650390625,16.448974609375,12.1917724609375
2.1512499,5.219359874725342,-7.836222171783447,0.6368576288223267,-26.1077880859375,16.998291015625,12.8021240234375
2.1537498999999998,5.188235282897949,-7.836222171783447,0.6033388376235962,-26.5960693359375,17.9443359375,13.1072998046875
2.1562499,5.147533416748047,-7.833827972412109,0.5674257874488831,-26.91650390625,18.9208984375,13.2293701171875
2.1587499,5.102043628692627,-7.843404769897461,0.5147533416748047,-27.2369384765625,19.71435546875,13.5650634765625
2.1612499,5.044582843780518,-7.850587368011475,0.4620809257030487,-27.40478515625,20.5535888671875,14.16015625
2.1637499,4.977545261383057,-7.857769966125488,0.40940847992897034,-27.40478515625,21.2860107421875,14.7857666015625
2.1662499,4.908113479614258,-7.862558364868164,0.3687070608139038,-27.52685546875,21.78955078125,15.411376953125
2.1687499,4.845864295959473,-7.8529815673828125,0.33518823981285095,-27.679443359375,22.4761962890625,16.1285400390625
2.1712499,4.795586109161377,-7.824251174926758,0.31124621629714966,-27.8472900390625,23.345947265625,16.754150390625
2.1737499,4.750096321105957,-7.7883381843566895,0.2849099934101105,-28.5797119140625,24.47509765625,17.3797607421875
2.1762499,4.707000732421875,-7.747636795043945,0.24660277366638184,-28.8238525390625,25.3448486328125,18.341064453125
2.1787499,4.651933670043945,-7.718906402587891,0.19871874153614044,-28.6865234375,26.2908935546875,19.22607421875
2.1812499,4.5825018882751465,-7.69735860824585,0.1412578970193863,-28.80859375,27.1759033203125,20.1568603515625
2.1837499,4.503493309020996,-7.682993412017822,0.07900865375995636,-28.80859375,27.984619140625,21.087646484375
2.1862499,4.417302131652832,-7.659051418304443,0.016759412363171577,-29.0985107421875,28.7933349609375,22.216796875
2.1887499,4.331110954284668,-7.615955829620361,-0.043095629662275314,-29.0069580078125,29.388427734375,23.1475830078125
2.1912499,4.256890773773193,-7.558494567871094,-0.10055647045373917,-29.4189453125,30.426025390625,24.261474609375
2.1937499,4.189853191375732,-7.484274387359619,-0.14844051003456116,-29.6630859375,31.1126708984375,25.6500244140625
2.1962498999999998,4.134786128997803,-7.395689010620117,-0.19632454216480255,-29.998779296875,31.79931640625,26.9775390625
2.1987499,4.086902141571045,-7.304709434509277,-0.2298433631658554,-30.21240234375,32.623291015625,28.045654296875
2.2012499,4.043806552886963,-7.204153060913086,-0.27054479718208313,-30.670166015625,33.4014892578125,29.3426513671875
2.2037499,3.998316764831543,-7.0988078117370605,-0.30885201692581177,-31.25,34.515380859375,30.975341796875
2.2062499,3.9480385780334473,-6.9910688400268555,-0.35673606395721436,-31.9061279296875,35.5987548828125,32.71484375
2.2087499,3.88818359375,-6.873753070831299,-0.4141969084739685,-32.4249267578125,36.7431640625,33.8592529296875
2.2112499,3.8139634132385254,-6.75883150100708,-0.47884035110473633,-33.1878662109375,37.7197265625,35.33935546875
2.2137499,3.734954595565796,-6.6391215324401855,-0.5530605912208557,-34.1644287109375,38.543701171875,37.2314453125
2.2162498999999998,3.6535518169403076,-6.521805286407471,-0.6224924325942993,-34.8358154296875,39.6728515625,38.818359375
2.2187499,3.576937437057495,-6.406883716583252,-0.6919242739677429,-35.82763671875,40.8782958984375,40.52734375
2.2212499,3.5027170181274414,-6.2847795486450195,-0.751779317855835,-36.92626953125,41.9158935546875,42.3431396484375
2.2237499,3.4356794357299805,-6.167463779449463,-0.811634361743927,-37.9180908203125,43.182373046875,44.3572998046875
2.2262499,3.380612850189209,-6.04775333404541,-0.8595184087753296,-39.0167236328125,44.4488525390625,46.356201171875
2.2287499,3.3207578659057617,-5.940014362335205,-0.9002198576927185,-40.10009765625,45.4864501953125,48.248291015625
2.2312499,3.270479440689087,-5.837063789367676,-0.9217676520347595,-41.2750244140625,46.844482421875,50.5523681640625
2.2337499,3.222595453262329,-5.74129581451416,-0.9361328482627869,-42.5262451171875,48.0804443359375,52.91748046875
2.2362499,3.1747114658355713,-5.65031623840332,-0.9433154463768005,-44.036865234375,49.49951171875,55.206298828125
2.2387499,3.1292216777801514,-5.556941986083984,-0.9457096457481384,-45.135498046875,50.9033203125,57.4951171875
2.2412499,3.0813376903533936,-5.463568210601807,-0.950498104095459,-46.173095703125,52.2308349609375,59.99755859375
2.2437499,3.028665065765381,-5.367800235748291,-0.9528923034667969,-47.3785400390625,53.8177490234375,62.3321533203125
2.2462499,2.959233283996582,-5.274426460266113,-0.9552865028381348,-48.492431640625,55.4656982421875,64.6209716796875
2.2487499,2.889801502227783,-5.1810526847839355,-0.9648633003234863,-49.591064453125,56.70166015625,66.986083984375
2.2512499,2.801215887069702,-5.092466831207275,-0.9648633003234863,-50.445556640625,57.9833984375,69.671630859375
2.2537499,2.7054479122161865,-5.003881454467773,-0.9720458984375,-51.544189453125,59.75341796875,72.0062255859375
2.2562499,2.58813214302063,-4.922478675842285,-0.9744400978088379,-52.490234375,61.1724853515625,74.64599609375
2.2587498999999998,2.456450939178467,-4.838681697845459,-0.9792284965515137,-53.070068359375,62.4847412109375,77.6214599609375
2.2612499,2.3127987384796143,-4.759673118591309,-0.9864110946655273,-53.5430908203125,63.720703125,80.5206298828125
2.2637499,2.1571757793426514,-4.69024133682251,-0.9864110946655273,-54.229736328125,65.0787353515625,83.404541015625
2.2662499,1.9847931861877441,-4.623203277587891,-0.9888052940368652,-54.7332763671875,66.3909912109375,86.2579345703125
2.2687499,1.8052281141281128,-4.568136692047119,-0.993593692779541,-55.0689697265625,68.023681640625,89.29443359375
2.2712499,1.6160861253738403,-4.520252704620361,-0.993593692779541,-55.1910400390625,69.3511962890625,92.803955078125
2.2737499,1.4269442558288574,-4.4939165115356445,-0.9888052940368652,-54.9774169921875,70.4193115234375,96.25244140625
2.2762499,1.2449848651885986,-4.474762916564941,-0.9672574996948242,-54.656982421875,71.746826171875,99.3499755859375
2.2787498999999998,1.0797849893569946,-4.477157115936279,-0.9265560507774353,-54.5501708984375,72.8607177734375,102.935791015625
2.2812499,0.9217676520347595,-4.479551315307617,-0.8786720037460327,-54.0008544921875,74.249267578125,106.5673828125
2.2837499,0.6488286852836609,-4.479551315307617,-0.7589619159698486,-52.154541015625,76.690673828125,113.7847900390625
2.2862499,0.5195417404174805,-4.46518611907959,-0.7038952708244324,-50.78125,77.8045654296875,117.401123046875
2.2887499,0.3926490843296051,-4.436455726623535,-0.6560112833976746,-49.49951171875,78.6895751953125,121.1395263671875
2.2912499,0.272938996553421,-4.405331134796143,-0.6177040338516235,-48.248291015625,80.01708984375,124.69482421875
2.2937499,0.15562310814857483,-4.367023944854736,-0.5793967843055725,-46.478271484375,81.298828125,128.35693359375
2.2962499,0.047884032130241394,-4.333505153656006,-0.5482721924781799,-44.4793701171875,81.9549560546875,132.14111328125
2.2987499,-0.05506663769483566,-4.309563159942627,-0.5123591423034668,-42.5872802734375,82.855224609375,136.0321044921875
2.3012499,-0.15322890877723694,-4.290409564971924,-0.47405192255973816,-40.0543212890625,83.8775634765625,139.83154296875
2.3037499,-0.2322375625371933,-4.285621166229248,-0.4213795065879822,-37.7349853515625,84.8236083984375,143.524169921875
2.3062499,-0.29209262132644653,-4.28322696685791,-0.35913026332855225,-35.2325439453125,85.63232421875,147.430419921875
2.3087499,-0.33279404044151306,-4.280832767486572,-0.2825157940387726,-32.53173828125,86.5936279296875,151.2908935546875
2.3112499,-0.35913026332855225,-4.2760443687438965,-0.19871874153614044,-29.8309326171875,87.70751953125,155.2886962890625
2.3137499,-0.3734954595565796,-4.266467571258545,-0.10773907601833344,-27.1148681640625,88.7298583984375,159.3017578125
2.3162499,-0.38307225704193115,-4.24970817565918,-0.011971008032560349,-24.200439453125,89.6759033203125,163.5589599609375
2.3187499,-0.38067805767059326,-4.228160381317139,0.08379705995321274,-21.3165283203125,90.9881591796875,167.266845703125
2.3212498999999998,-0.3687070608139038,-4.19224739074707,0.17717093229293823,-18.768310546875,92.59033203125,171.356201171875
2.3237499,-0.3447650372982025,-4.146757125854492,0.26575639843940735,-16.0980224609375,94.1009521484375,175.6439208984375
2.3262499,-0.30885201692581177,-4.089296340942383,0.3447650372982025,-13.153076171875,95.3216552734375,179.7637939453125
2.3287499,-0.26575639843940735,-4.027047157287598,0.42377370595932007,-10.5438232421875,96.74072265625,184.051513671875
2.3312499,-0.22266076505184174,-3.950432777404785,0.49799394607543945,-8.1787109375,98.388671875,188.0035400390625
2.3337499,-0.1843535304069519,-3.8786067962646484,0.5746083855628967,-5.8135986328125,100.2349853515625,192.169189453125
2.3362499,-0.15562310814857483,-3.804386615753174,0.6584054827690125,-3.4942626953125,101.654052734375,196.2432861328125
2.3387499,-0.1412578970193863,-3.734954595565796,0.7469909191131592,-1.434326171875,103.4088134765625,200.37841796875
2.3412498999999998,-0.1388636976480484,-3.6750996112823486,0.8331822156906128,0.6866455078125,105.194091796875,204.52880859375
2.3437499,-0.15083470940589905,-3.6128504276275635,0.9193734526634216,2.716064453125,107.1929931640625,208.9385986328125
2.3462499,-0.16998831927776337,-3.555389642715454,0.9959878921508789,4.7149658203125,109.06982421875,213.3026123046875
2.3487499,-0.2082955539226532,-3.5027170181274414,1.0654197931289673,6.317138671875,110.992431640625,217.6666259765625
2.3512499,-0.2537853717803955,-3.4572272300720215,1.1300631761550903,7.8125,113.22021484375,221.893310546875
2.3537499,-0.3064578175544739,-3.421314239501953,1.1899182796478271,9.4451904296875,115.2496337890625,226.2115478515625
2.3562499,-0.363918662071228,-3.3925838470458984,1.2521674633026123,10.5133056640625,117.1875,230.5450439453125
2.3587499,-0.4141969084739685,-3.3710360527038574,1.3215993642807007,11.1236572265625,119.232177734375,235.0921630859375
2.3612499,-0.45489832758903503,-3.359065055847168,1.3958195447921753,12.0086669921875,121.307373046875,239.471435546875
2.3637499,-0.48602294921875,-3.35667085647583,1.4844050407409668,12.7410888671875,123.6572265625,243.7744140625
2.3662499,-0.5147533416748047,-3.3494882583618164,1.5729905366897583,13.2598876953125,125.6561279296875,247.8790283203125
2.3687499,-0.5363011956214905,-3.3446998596191406,1.6639702320098877,13.4735107421875,127.5482177734375,251.6937255859375
2.3712499,-0.5674257874488831,-3.3279404640197754,1.7525556087493896,13.702392578125,129.241943359375,255.6304931640625
2.3737499,-0.5937620401382446,-3.313575267791748,1.8291701078414917,13.7481689453125,130.9356689453125,259.58251953125
2.3762499,-0.6248866319656372,-3.31118106842041,1.9033904075622559,13.2293701171875,132.8582763671875,263.1378173828125
2.3787499,-0.6799532771110535,-3.3303346633911133,1.965639591217041,12.9241943359375,134.1400146484375,266.5557861328125
2.3812499,-0.7469909191131592,-3.383007049560547,2.049436569213867,12.451171875,135.5743408203125,269.8974609375
2.3837498999999998,-0.8379706144332886,-3.4620156288146973,2.1475989818573,11.65771484375,136.7950439453125,273.040771484375
2.3862499,-0.9361328482627869,-3.579331636428833,2.27209734916687,10.68115234375,137.8021240234375,276.092529296875
2.3887499,-1.0319008827209473,-3.7229835987091064,2.4157495498657227,9.7503662109375,138.6566162109375,279.3121337890625
2.3912499,-1.1348515748977661,-3.8953661918640137,2.5713725090026855,8.5906982421875,139.7552490234375,281.8450927734375
2.3937499,-1.235408067703247,-4.0964789390563965,2.741360902786255,7.50732421875,140.5792236328125,284.6221923828125
2.3962499,-1.3455413579940796,-4.314351558685303,2.9328970909118652,6.500244140625,141.0675048828125,287.445068359375
2.3987499,-1.4532804489135742,-4.553771495819092,3.1459810733795166,5.5389404296875,141.4642333984375,289.8101806640625
2.4012499,-1.558625340461731,-4.800374507904053,3.375824451446533,4.2572021484375,141.998291015625,292.29736328125
2.4037498999999998,-1.6663644313812256,-5.037400245666504,3.6104562282562256,2.8839111328125,142.0135498046875,294.677734375
2.4062499,-1.766920804977417,-5.2672438621521,3.840299606323242,1.0223388671875,142.3492431640625,296.6156005859375
2.4087499,-1.8698714971542358,-5.48272180557251,4.065354347229004,-0.823974609375,142.2882080078125,298.4466552734375
2.4112499,-1.968033790588379,-5.686229228973389,4.268861770629883,-2.86865234375,141.937255859375,300.3082275390625
2.4137499,-2.0685901641845703,-5.8873419761657715,4.474762916564941,-5.0201416015625,141.6778564453125,302.0477294921875
2.4162499,-2.1739351749420166,-6.078877925872803,4.6734819412231445,-6.805419921875,141.4031982421875,303.0853271484375
2.4187499,-2.2840683460235596,-6.270414352416992,4.886565685272217,-8.6669921875,140.655517578125,303.9703369140625
2.4212499,-2.406172752380371,-6.4595561027526855,5.12119722366333,-11.016845703125,139.984130859375,305.0384521484375
2.4237499,-2.5258827209472656,-6.660669326782227,5.403713226318359,-13.427734375,138.763427734375,305.72509765625
2.4262499,-2.6431987285614014,-6.878541469573975,5.724536418914795,-15.56396484375,137.4969482421875,306.15234375
2.4287499,-2.7509377002716064,-7.129932880401611,6.090848922729492,-18.12744140625,136.0626220703125,306.549072265625
2.4312499,-2.8347349166870117,-7.424419403076172,6.478709697723389,-20.9808349609375,134.5367431640625,306.8389892578125
2.4337499,-2.8874073028564453,-7.754819393157959,6.864176273345947,-23.590087890625,132.99560546875,307.0220947265625
2.4362499,-2.918531894683838,-8.118738174438477,7.228095054626465,-26.0009765625,131.622314453125,307.098388671875
2.4387499,-2.9448680877685547,-8.506598472595215,7.556100368499756,-28.38134765625,129.8675537109375,306.70166015625
2.4412499,-2.964021682739258,-8.887276649475098,7.848193168640137,-30.5633544921875,128.0364990234375,306.45751953125
2.4437499,-2.9975404739379883,-9.275136947631836,8.121131896972656,-33.02001953125,126.03759765625,306.243896484375
2.4462498999999998,-3.0382418632507324,-9.670180320739746,8.394071578979492,-35.888671875,123.9166259765625,305.9234619140625
2.4487499,-3.0765492916107178,-10.098742485046387,8.69095230102539,-37.9180908203125,121.337890625,305.4962158203125
2.4512499,-3.1004912853240967,-10.591948509216309,9.042900085449219,-40.22216796875,118.6065673828125,304.74853515625
2.4537499,-3.098097085952759,-11.154585838317871,9.409213066101074,-41.68701171875,115.6005859375,304.13818359375
2.4562499,-3.050212860107422,-11.796232223510742,9.821015357971191,-42.938232421875,112.5640869140625,303.4515380859375
2.4587499,-2.9544448852539062,-12.48815631866455,10.225635528564453,-43.7469482421875,109.5428466796875,302.67333984375
2.4612499,-2.7988216876983643,-13.206416130065918,10.632649421691895,-43.76220703125,106.5826416015625,301.7578125
2.4637499,-2.585737943649292,-13.919888496398926,11.0300874710083,-43.670654296875,103.851318359375,300.689697265625
2.4662498999999998,-2.3247697353363037,-14.61420726776123,11.425130844116211,-42.9840087890625,100.860595703125,299.4232177734375
2.4687499,-2.008735179901123,-15.275007247924805,11.796232223510742,-41.3970947265625,97.7783203125,298.0804443359375
2.4712499,-1.6519991159439087,-15.91425895690918,12.18409252166748,-39.093017578125,94.78759765625,296.5545654296875
2.4737499,-1.2521674633026123,-16.541540145874023,12.591106414794922,-36.2548828125,91.61376953125,294.6624755859375
2.4762499,-0.8092401623725891,-17.159242630004883,13.038822174072266,-32.9742431640625,87.9058837890625,292.4346923828125
2.4787499,-0.3232172429561615,-17.784130096435547,13.541604995727539,-29.1290283203125,83.587646484375,289.886474609375
2.4812499,0.2059013396501541,-18.423381805419922,14.09466552734375,-25.177001953125,79.345703125,286.956787109375
2.4837499,0.7637503147125244,-19.088970184326172,14.681244850158691,-20.4315185546875,75.0274658203125,283.8287353515625
2.4862499,1.3311761617660522,-19.80244255065918,15.275007247924805,-14.5263671875,70.709228515625,280.2886962890625
2.4887499,1.8818424940109253,-20.559009552001953,15.863980293273926,-7.9193115234375,65.765380859375,276.2298583984375
2.4912499,2.408566951751709,-21.353885650634766,16.443376541137695,-0.244140625,60.089111328125,272.2930908203125
2.4937499,2.911349296569824,-22.16312599182129,16.979679107666016,8.2244873046875,53.985595703125,267.608642578125
2.4962499,3.9408559799194336,-23.784000396728516,17.93017578125,27.1759033203125,41.412353515625,256.3934326171875
2.4987499,4.474762916564941,-24.578874588012695,18.34197998046875,38.848876953125,34.027099609375,250.0457763671875
2.5012499,5.023035049438477,-25.356990814208984,18.70829200744629,50.7965087890625,26.031494140625,243.0419921875
2.5037499,5.57370138168335,-26.080039978027344,19.043479919433594,63.4765625,17.8375244140625,235.4736328125
2.5062499,6.124367713928223,-26.73604965209961,19.347543716430664,76.8585205078125,9.002685546875,227.630615234375
2.5087498999999998,6.655880928039551,-27.301082611083984,19.589357376098633,90.6219482421875,-0.213623046875,219.1925048828125
2.5112499,7.161057472229004,-27.755979537963867,19.780895233154297,104.9041748046875,-9.552001953125,210.02197265625
2.5137499,7.613561630249023,-28.098350524902344,19.919757843017578,119.2626953125,-19.3328857421875,200.531005859375
2.5162499,8.001421928405762,-28.31382942199707,20.013132095336914,133.6822509765625,-29.9072265625,190.460205078125
2.5187499,8.312667846679688,-28.423961639404297,20.077775955200195,147.5372314453125,-40.8935546875,179.962158203125
2.5212499,8.542511940002441,-28.450298309326172,20.147207260131836,160.7513427734375,-51.8798828125,169.0826416015625
2.5237499,8.700529098510742,-28.411991119384766,20.226215362548828,173.8128662109375,-63.29345703125,157.8216552734375
2.5262499,8.796297073364258,-28.342559814453125,20.35789680480957,185.6231689453125,-75.0274658203125,146.1944580078125
2.5287498999999998,8.83699893951416,-28.239608764648438,20.532672882080078,196.4263916015625,-86.9293212890625,134.5367431640625
2.5312499,8.846575736999512,-28.091169357299805,20.750545501708984,205.6732177734375,-99.18212890625,122.9705810546875
2.5337499,8.815450668334961,-27.878084182739258,20.982784271240234,213.0584716796875,-111.297607421875,111.236572265625
2.5362499,8.757989883422852,-27.600357055664062,21.226991653442383,218.6126708984375,-123.779296875,99.517822265625
2.5387499,8.669404029846191,-27.269956588745117,21.466411590576172,222.5799560546875,-136.444091796875,87.9058837890625
2.5412499,8.547300338745117,-26.92279815673828,21.722591400146484,224.7161865234375,-148.9715576171875,76.4617919921875
2.5437499,8.40843677520752,-26.5612735748291,21.99313735961914,225.1434326171875,-161.9720458984375,65.24658203125
2.5462499,8.26478385925293,-26.211719512939453,22.2948055267334,223.32763671875,-175.23193359375,53.8177490234375
2.5487499,8.130708694458008,-25.87174415588379,22.618022918701172,220.0775146484375,-188.2476806640625,42.4957275390625
2.5512499,8.022970199584961,-25.548526763916016,22.974760055541992,214.9200439453125,-201.35498046875,31.18896484375
2.5537499,7.936778545379639,-25.251646041870117,23.365015029907227,208.2366943359375,-214.447021484375,19.6533203125
2.5562499,7.879317760467529,-24.96912956237793,23.788787841796875,200.103759765625,-227.5238037109375,7.87353515625
2.5587499,7.833827972412109,-24.67224884033203,24.23650360107422,190.3533935546875,-240.753173828125,-4.1351318359375
2.5612499,7.783549785614014,-24.36579132080078,24.715343475341797,178.6041259765625,-253.7384033203125,-16.143798828125
2.5637499,7.69735860824585,-24.05693817138672,25.234886169433594,164.947509765625,-266.7083740234375,-28.2440185546875
2.5662499,7.560888767242432,-23.798364639282227,25.81667709350586,150.238037109375,-279.6783447265625,-40.9698486328125
2.5687499,7.359776020050049,-23.62358856201172,26.48944854736328,135.040283203125,-292.083740234375,-54.0313720703125
2.5712498999999998,7.094019412994385,-23.58049201965332,27.253198623657227,119.0338134765625,-304.473876953125,-67.68798828125
2.5737499,6.737283706665039,-23.6451358795166,28.112716674804688,103.2562255859375,-316.83349609375,-82.58056640625
2.5762499,6.268020153045654,-23.795970916748047,29.04166603088379,87.3870849609375,-329.0557861328125,-97.9461669921875
2.5787499,5.638344764709473,-24.025814056396484,30.030471801757812,70.7550048828125,-340.9576416015625,-114.68505859375
2.5812499,4.865017890930176,-24.353818893432617,31.05040168762207,53.8330078125,-353.08837890625,-132.415771484375
