# Time (seconds),Accel_X,Accel_Y,Accel_Z,Gyro_X,Gyro_Y,Gyro_Z
0.0012499,7.386112213134766,-5.3797712326049805,3.0526070594787598,-28.289794921875,-72.2198486328125,-130.3253173828125
0.0037499,7.3669586181640625,-5.243301868438721,3.0406360626220703,-25.7415771484375,-72.479248046875,-130.67626953125
0.0062499,7.357381820678711,-5.085284233093262,3.1052796840667725,-23.3154296875,-72.1435546875,-130.92041015625
0.0087499,7.383718013763428,-4.876988887786865,3.2393548488616943,-21.66748046875,-71.807861328125,-130.79833984375
0.0112499,7.465120792388916,-4.611232280731201,3.3877954483032227,-20.843505859375,-71.624755859375,-131.2408447265625
0.0137499,7.565677165985107,-4.280832767486572,3.4787750244140625,-20.050048828125,-71.0296630859375,-131.9427490234375
0.016249899999999998,7.6782050132751465,-3.5266590118408203,3.464409828186035,-21.0113525390625,-68.206787109375,-131.65283203125
0.0187499,7.6782050132751465,-3.5266590118408203,3.464409828186035,-21.0113525390625,-68.206787109375,-131.65283203125
0.021249900000000002,7.625532627105713,-2.7700912952423096,3.2393548488616943,-22.4609375,-68.1304931640625,-132.1868896484375
0.023749899999999997,7.625532627105713,-2.7700912952423096,3.2393548488616943,-22.4609375,-68.1304931640625,-132.1868896484375
0.0262499,7.630321025848389,-2.2673089504241943,3.00711727142334,-24.8565673828125,-66.9403076171875,-132.4310302734375
0.028749900000000002,7.630321025848389,-2.2673089504241943,3.00711727142334,-24.8565673828125,-66.9403076171875,-132.4310302734375
0.031249899999999997,7.6782050132751465,-2.070984363555908,2.8778305053710938,-25.299072265625,-65.948486328125,-132.4462890625
0.0337499,7.6782050132751465,-2.070984363555908,2.8778305053710938,-25.299072265625,-65.948486328125,-132.4462890625
0.0362499,7.709329605102539,-1.9033904075622559,2.7940332889556885,-29.6478271484375,-64.7430419921875,-131.744384765625
0.0387499,7.709329605102539,-1.9033904075622559,2.7940332889556885,-29.6478271484375,-64.7430419921875,-131.744384765625
0.0412499,7.773972988128662,-1.745373010635376,2.5689783096313477,-35.1409912109375,-63.5986328125,-129.8370361328125
0.0437499,7.773972988128662,-1.745373010635376,2.5689783096313477,-35.1409912109375,-63.5986328125,-129.8370361328125
0.0462499,7.879317760467529,-1.8195933103561401,2.2026655673980713,-39.703369140625,-62.1795654296875,-127.105712890625
0.0487499,7.879317760467529,-1.8195933103561401,2.2026655673980713,-39.703369140625,-62.1795654296875,-127.105712890625
0.0512499,8.020575523376465,-2.1547815799713135,1.900996208190918,-43.7469482421875,-61.1114501953125,-122.6654052734375
0.053749899999999996,8.020575523376465,-2.1547815799713135,1.900996208190918,-43.7469482421875,-61.1114501953125,-122.6654052734375
0.0562499,8.169015884399414,-2.454056739807129,1.8124107122421265,-46.1578369140625,-59.26513671875,-117.828369140625
0.0587499,8.169015884399414,-2.454056739807129,1.8124107122421265,-46.1578369140625,-59.26513671875,-117.828369140625
0.061249899999999996,8.192957878112793,-2.5306711196899414,1.8794482946395874,-50.048828125,-56.793212890625,-112.3046875
0.0637499,8.192957878112793,-2.5306711196899414,1.8794482946395874,-50.048828125,-56.793212890625,-112.3046875
0.0662499,8.068459510803223,-2.3726539611816406,2.032677173614502,-53.1005859375,-56.0455322265625,-107.36083984375
0.0687499,8.068459510803223,-2.3726539611816406,2.032677173614502,-53.1005859375,-56.0455322265625,-107.36083984375
0.0712499,7.970297336578369,-1.9297266006469727,2.1954829692840576,-57.647705078125,-54.7943115234375,-103.02734375
0.0737499,7.970297336578369,-1.9297266006469727,2.1954829692840576,-57.647705078125,-54.7943115234375,-103.02734375
0.0762499,8.042123794555664,-1.3287819623947144,2.298433542251587,-62.1490478515625,-53.466796875,-99.91455078125
0.0787499,8.042123794555664,-1.3287819623947144,2.298433542251587,-62.1490478515625,-53.466796875,-99.91455078125
0.0812499,8.226476669311523,-0.9026140570640564,2.3582887649536133,-66.680908203125,-50.9185791015625,-98.114013671875
0.0837499,8.226476669311523,-0.9026140570640564,2.3582887649536133,-66.680908203125,-50.9185791015625,-98.114013671875
0.0862499,8.367734909057617,-0.8858546018600464,2.3918075561523438,-68.695068359375,-48.583984375,-96.771240234375
0.0887499,8.367734909057617,-0.8858546018600464,2.3918075561523438,-68.695068359375,-48.583984375,-96.771240234375
0.0912499,8.434772491455078,-1.2617442607879639,2.343923568725586,-68.66455078125,-46.112060546875,-95.306396484375
0.0937499,8.434772491455078,-1.2617442607879639,2.343923568725586,-68.66455078125,-46.112060546875,-95.306396484375
0.0962499,8.473079681396484,-1.8722656965255737,2.1164743900299072,-66.0400390625,-43.5028076171875,-94.0399169921875
0.0987499,8.473079681396484,-1.8722656965255737,2.1164743900299072,-66.0400390625,-43.5028076171875,-94.0399169921875
0.1012499,8.489839553833008,-2.5905263423919678,1.7836803197860718,-61.370849609375,-40.771484375,-91.49169921875
0.1037499,8.489839553833008,-2.5905263423919678,1.7836803197860718,-61.370849609375,-40.771484375,-91.49169921875
0.1062499,8.487444877624512,-3.2609026432037354,1.5155296325683594,-54.5654296875,-39.4439697265625,-88.0889892578125
0.1087499,8.487444877624512,-3.2609026432037354,1.5155296325683594,-54.5654296875,-39.4439697265625,-88.0889892578125
0.1112499,8.370129585266113,-3.734954595565796,1.4101848602294922,-46.3104248046875,-38.39111328125,-83.892822265625
0.1137499,8.370129585266113,-3.734954595565796,1.4101848602294922,-46.3104248046875,-38.39111328125,-83.892822265625
0.1162499,8.40843677520752,-4.003105163574219,1.534683346748352,-38.970947265625,-38.75732421875,-78.2623291015625
0.1187499,8.40843677520752,-4.003105163574219,1.534683346748352,-38.970947265625,-38.75732421875,-78.2623291015625
0.1212499,8.746018409729004,-4.206612586975098,1.647210717201233,-31.7840576171875,-30.975341796875,-76.0498046875
0.1237499,8.746018409729004,-4.206612586975098,1.647210717201233,-31.7840576171875,-30.975341796875,-76.0498046875
0.1262499,8.741230010986328,-4.405331134796143,1.4245500564575195,-21.3470458984375,-29.937744140625,-71.8536376953125
0.1287499,8.741230010986328,-4.405331134796143,1.4245500564575195,-21.3470458984375,-29.937744140625,-71.8536376953125
0.1312499,8.537723541259766,-4.402936935424805,0.9864110946655273,-16.4337158203125,-29.11376953125,-66.619873046875
0.1337499,8.540117263793945,-4.3406877517700195,0.7589619159698486,-14.6942138671875,-27.3895263671875,-64.0106201171875
0.1362499,8.585607528686523,-4.290409564971924,0.5650315880775452,-12.8326416015625,-25.0701904296875,-61.309814453125
0.1387499,8.604761123657227,-4.278438568115234,0.40222588181495667,-9.4757080078125,-23.162841796875,-59.3719482421875
0.1412499,8.559270858764648,-4.264073371887207,0.3256114423274994,-5.8746337890625,-22.0184326171875,-57.403564453125
0.1437499,8.456320762634277,-4.206612586975098,0.31364041566848755,-3.2806396484375,-22.0184326171875,-54.6722412109375
0.1462499,8.341399192810059,-4.067748546600342,0.38546648621559143,-2.38037109375,-22.369384765625,-52.2308349609375
0.1487499,8.26239013671875,-3.8546648025512695,0.5219359993934631,-1.6326904296875,-22.0794677734375,-50.018310546875
0.1512499,8.248024940490723,-3.60566782951355,0.7038952708244324,-0.335693359375,-21.759033203125,-47.7447509765625
0.1537499,8.312667846679688,-3.3423056602478027,0.9050082564353943,0.7476806640625,-21.209716796875,-45.6695556640625
0.1562499,8.42040729522705,-3.098097085952759,1.0893617868423462,1.251220703125,-20.1568603515625,-44.0521240234375
0.1587499,8.540117263793945,-2.853888511657715,1.2258312702178955,2.105712890625,-18.7225341796875,-42.6025390625
0.1612499,8.62630844116211,-2.6144683361053467,1.316810965538025,2.99072265625,-17.730712890625,-41.07666015625
0.1637499,8.671798706054688,-2.363077163696289,1.3527239561080933,3.0059814453125,-16.9677734375,-39.6881103515625
0.1662499,8.669404029846191,-2.1308395862579346,1.3455413579940796,1.9378662109375,-16.082763671875,-38.87939453125
0.1687499,8.635885238647461,-1.9488801956176758,1.3072341680526733,1.3580322265625,-14.617919921875,-38.0859375
0.1712499,8.578424453735352,-1.8507179021835327,1.2401964664459229,1.373291015625,-13.00048828125,-37.0941162109375
0.1737499,8.513781547546387,-1.8555063009262085,1.137245774269104,0.8697509765625,-12.3748779296875,-36.31591796875
0.17624990000000001,8.453926086425781,-1.9488801956176758,1.0007762908935547,-0.030517578125,-11.3983154296875,-35.3240966796875
0.1787499,8.40843677520752,-2.1116859912872314,0.8475474119186401,-0.3814697265625,-10.2996826171875,-34.027099609375
0.1812499,8.382100105285645,-2.3127987384796143,0.667982280254364,-0.0762939453125,-9.5062255859375,-32.89794921875
0.1837499,8.367734909057617,-2.5282769203186035,0.4644751250743866,0.5950927734375,-8.7890625,-31.4788818359375
0.1862499,8.35336971282959,-2.736572504043579,0.272938996553421,0.5035400390625,-7.568359375,-29.693603515625
0.1887499,8.336610794067383,-2.940079689025879,0.06703764945268631,0.42724609375,-6.8359375,-28.228759765625
0.1912499,8.300697326660156,-3.1268274784088135,-0.11252748221158981,1.129150390625,-6.2255859375,-26.580810546875
0.1937499,8.269572257995605,-3.3063924312591553,-0.26336219906806946,1.8310546875,-5.79833984375,-24.383544921875
0.1962499,8.248024940490723,-3.445256233215332,-0.35913026332855225,2.25830078125,-5.767822265625,-22.3236083984375
0.1987499,8.26478385925293,-3.5482068061828613,-0.38546648621559143,2.3345947265625,-5.8746337890625,-20.08056640625
0.2012499,8.334216117858887,-3.622427225112915,-0.3280056416988373,2.4566650390625,-5.9814453125,-17.27294921875
0.2037499,8.422801971435547,-3.665522813796997,-0.15322890877723694,2.7313232421875,-5.0811767578125,-14.9078369140625
0.2062499,8.506598472595215,-3.6607344150543213,0.11013327538967133,3.3111572265625,-4.547119140625,-12.6800537109375
0.20874990000000002,8.53293514251709,-3.598485231399536,0.4644751250743866,3.570556640625,-5.035400390625,-10.31494140625
0.2112499,8.501810073852539,-3.4524388313293457,0.8667010068893433,2.960205078125,-5.340576171875,-7.9193115234375
0.2137499,8.446743965148926,-3.2369606494903564,1.2497732639312744,2.9754638671875,-5.43212890625,-5.4168701171875
0.2162499,8.425195693969727,-2.959233283996582,1.5682021379470825,3.2806396484375,-5.218505859375,-4.119873046875
0.2187499,8.473079681396484,-2.631227731704712,1.7549498081207275,3.326416015625,-4.241943359375,-3.5400390625
0.2212499,8.559270858764648,-2.2840683460235596,1.7932571172714233,2.5177001953125,-3.173828125,-2.7618408203125
0.2237499,8.633491516113281,-1.9800047874450684,1.7070658206939697,0.5035400390625,-2.197265625,-1.8310546875
0.2262499,8.647856712341309,-1.7860745191574097,1.558625340461731,-2.044677734375,-1.5106201171875,-0.9765625
0.2287499,8.592789649963379,-1.7381904125213623,1.41257905960083,-4.150390625,-1.495361328125,-0.152587890625
0.2312499,8.49941635131836,-1.821987509727478,1.316810965538025,-5.2642822265625,-1.5106201171875,0.396728515625
0.2337499,8.396465301513672,-1.968033790588379,1.3024457693099976,-6.40869140625,-1.6937255859375,1.190185546875
0.2362499,8.315062522888184,-2.121262788772583,1.3670891523361206,-8.2550048828125,-2.288818359375,2.01416015625
0.23874990000000001,8.305485725402832,-2.2673089504241943,1.4700398445129395,-10.3912353515625,-3.1585693359375,2.8839111328125
0.2412499,8.391676902770996,-2.4205379486083984,1.599326729774475,-12.420654296875,-3.47900390625,3.4332275390625
0.2437499,8.583212852478027,-2.58813214302063,1.6879122257232666,-13.3514404296875,-2.8228759765625,4.425048828125
0.2462499,8.848969459533691,-2.7748796939849854,1.680729627609253,-13.8397216796875,-1.89208984375,5.859375
0.2487499,9.095572471618652,-2.956839084625244,1.580173134803772,-15.289306640625,-0.946044921875,7.415771484375
0.2512499,9.265560150146484,-3.112462282180786,1.403002142906189,-16.998291015625,0.2288818359375,9.1552734375
0.25374990000000003,9.301473617553711,-3.2154128551483154,1.2210428714752197,-17.6849365234375,0.4425048828125,10.9710693359375
0.25624990000000003,9.215282440185547,-3.2297780513763428,1.091755986213684,-18.1884765625,-0.30517578125,12.451171875
0.25874990000000003,9.059659004211426,-3.1316158771514893,1.0558429956436157,-19.256591796875,-1.28173828125,14.0228271484375
0.26124990000000003,8.9064302444458,-2.935291290283203,1.1180921792984009,-20.8587646484375,-1.9989013671875,15.3045654296875
0.26374990000000004,8.810662269592285,-2.676717519760132,1.2306196689605713,-22.39990234375,-2.5177001953125,15.869140625
0.26624990000000004,8.796297073364258,-2.4229321479797363,1.359906554222107,-23.8800048828125,-2.7008056640625,16.0675048828125
0.26874990000000004,8.858546257019043,-2.2218191623687744,1.4676456451416016,-25.87890625,-2.593994140625,16.5252685546875
0.27124990000000004,8.951920509338379,-2.0901381969451904,1.525106430053711,-27.9083251953125,-2.01416015625,16.937255859375
0.27374990000000005,9.033323287963867,-2.051830768585205,1.5203180313110352,-30.2886962890625,-1.0528564453125,17.4102783203125
0.27624990000000005,9.069235801696777,-2.1068975925445557,1.4484920501708984,-32.6690673828125,-0.701904296875,17.6239013671875
0.27874990000000005,9.050082206726074,-2.255337953567505,1.3263877630233765,-34.3017578125,-0.6866455078125,17.7459716796875
0.28124990000000005,8.978256225585938,-2.449268341064453,1.161187767982483,-35.064697265625,-0.67138671875,18.4173583984375
0.28374990000000005,8.87291145324707,-2.647987127304077,0.9840168952941895,-35.82763671875,-0.946044921875,19.0277099609375
0.28624990000000006,8.767566680908203,-2.7916390895843506,0.8236053586006165,-36.9415283203125,-1.2359619140625,19.3634033203125
0.28874990000000006,8.667010307312012,-2.8562827110290527,0.6991068720817566,-38.360595703125,-1.556396484375,19.9432373046875
0.2912499,8.580819129943848,-2.846705913543701,0.6584054827690125,-39.85595703125,-1.64794921875,20.4315185546875
0.2937499,8.528146743774414,-2.786850690841675,0.689530074596405,-41.778564453125,-1.983642578125,20.6451416015625
0.2962499,8.518569946289062,-2.7030537128448486,0.7805097699165344,-43.426513671875,-2.62451171875,20.5078125
0.2987499,8.554482460021973,-2.6599581241607666,0.8882488012313843,-45.166015625,-3.0059814453125,20.5841064453125
0.3012499,8.638279914855957,-2.6791117191314697,0.9816226959228516,-46.539306640625,-2.777099609375,20.0347900390625
0.3037499,8.724471092224121,-2.7988216876983643,1.0749965906143188,-46.5545654296875,-2.38037109375,19.4854736328125
0.3062499,8.791508674621582,-3.00711727142334,1.192312479019165,-46.20361328125,-2.1514892578125,18.9666748046875
0.3087499,8.83939266204834,-3.268085241317749,1.357512354850769,-45.10498046875,-2.227783203125,18.6614990234375
0.3112499,8.880094528198242,-3.529053211212158,1.558625340461731,-43.5333251953125,-1.953125,18.096923828125
0.3137499,8.939949035644531,-3.751713991165161,1.764526605606079,-41.0308837890625,-1.373291015625,17.1051025390625
0.31624990000000003,9.026140213012695,-3.9240965843200684,1.9536685943603516,-38.39111328125,-0.823974609375,16.0369873046875
0.31874990000000003,9.14345645904541,-4.055777549743652,2.1045033931732178,-35.5682373046875,-0.0762939453125,14.6026611328125
0.32124990000000003,9.289502143859863,-4.19224739074707,2.2170307636260986,-31.9061279296875,0.7781982421875,12.939453125
0.32374990000000003,9.459490776062012,-4.393360137939453,2.276885747909546,-28.076171875,1.64794921875,11.1083984375
0.32624990000000004,9.624691009521484,-4.704606533050537,2.296039342880249,-23.4832763671875,2.2430419921875,9.9029541015625
0.32874990000000004,9.782708168029785,-5.116408824920654,2.2625205516815186,-18.1121826171875,3.11279296875,9.2926025390625
0.33124990000000004,9.904812812805176,-5.552153587341309,2.209848165512085,-12.1307373046875,3.8299560546875,9.429931640625
0.33374990000000004,9.96945571899414,-5.91128396987915,2.140416383743286,-6.3629150390625,4.364013671875,9.9029541015625
0.33624990000000005,9.983820915222168,-6.141127586364746,2.0590133666992188,-1.8157958984375,4.8980712890625,10.650634765625
0.33874990000000005,9.909601211547852,-6.258443355560303,1.987187385559082,1.6632080078125,5.6915283203125,10.7574462890625
0.34124990000000005,9.801861763000488,-6.313509941101074,1.9081788063049316,5.8441162109375,5.6304931640625,10.4522705078125
0.34374990000000005,9.710882186889648,-6.342240333557129,1.8052281141281128,11.3067626953125,4.7607421875,10.7421875
0.34624990000000005,9.694122314453125,-6.320692539215088,1.659181833267212,16.8304443359375,4.08935546875,10.772705078125
0.34874990000000006,9.785101890563965,-6.217741966247559,1.4508862495422363,21.3165283203125,4.425048828125,10.3759765625
0.35124990000000006,9.93354320526123,-6.0405707359313965,1.2018892765045166,24.3377685546875,5.645751953125,9.979248046875
0.3537499,10.074800491333008,-5.839457988739014,0.9409212470054626,27.4810791015625,6.2103271484375,9.6282958984375
0.3562499,10.158597946166992,-5.6670756340026855,0.7134721279144287,30.8685302734375,6.3323974609375,9.490966796875
0.3587499,10.177751541137695,-5.568912982940674,0.545877993106842,34.4390869140625,6.0272216796875,9.1400146484375
0.3612499,10.163386344909668,-5.549759387969971,0.45250412821769714,37.9486083984375,5.7373046875,8.6517333984375
0.3637499,10.132261276245117,-5.564124584197998,0.43335050344467163,40.9698486328125,6.0272216796875,8.4075927734375
0.3662499,10.096348762512207,-5.56173038482666,0.4812345504760742,43.609619140625,6.072998046875,7.7972412109375
0.3687499,10.04846477508545,-5.473145008087158,0.586579442024231,44.98291015625,6.103515625,7.4920654296875
0.3712499,9.983820915222168,-5.257667064666748,0.7110779285430908,44.6319580078125,5.7830810546875,7.0343017578125
0.3737499,9.916783332824707,-4.946420669555664,0.8355764150619507,43.7774658203125,5.79833984375,6.7596435546875
0.3762499,9.854534149169922,-4.587290287017822,0.9265560507774353,42.9229736328125,5.4779052734375,6.439208984375
0.37874990000000003,9.813833236694336,-4.23773717880249,0.9816226959228516,41.412353515625,5.2490234375,5.8441162109375
0.38124990000000003,9.785101890563965,-3.9384617805480957,0.9888052940368652,39.398193359375,5.1116943359375,5.615234375
0.38374990000000003,9.758766174316406,-3.6846764087677,0.9648633003234863,36.9873046875,5.2490234375,5.06591796875
0.38624990000000003,9.72285270690918,-3.4763808250427246,0.9097966551780701,34.1644287109375,5.0506591796875,4.2877197265625
0.38874990000000004,9.682151794433594,-3.3039982318878174,0.8403648138046265,30.9600830078125,4.8370361328125,3.90625
0.39124990000000004,9.639056205749512,-3.160346269607544,0.7661445140838623,27.7862548828125,4.547119140625,3.4332275390625
0.39374990000000004,9.59596061706543,-3.0526070594787598,0.6967126727104187,24.0478515625,4.1046142578125,2.838134765625
0.39624990000000004,9.5408935546875,-2.9688100814819336,0.6607996821403503,20.7061767578125,3.9825439453125,2.3651123046875
0.39874990000000005,9.466673851013184,-2.911349296569824,0.6631938815116882,17.27294921875,3.204345703125,1.7242431640625
0.40124990000000005,9.366117477416992,-2.8562827110290527,0.7110779285430908,13.946533203125,2.532958984375,0.91552734375
0.40374990000000005,9.260771751403809,-2.7988216876983643,0.7996633648872375,10.406494140625,1.953125,0.1068115234375
0.40624990000000005,9.169792175292969,-2.717418909072876,0.8978256583213806,6.9732666015625,1.251220703125,-0.701904296875
0.40874990000000005,9.119514465332031,-2.6216509342193604,0.9864110946655273,3.72314453125,0.8087158203125,-1.5411376953125
0.41124990000000006,9.105149269104004,-2.5306711196899414,1.0678139925003052,0.335693359375,0.2288818359375,-2.410888671875
0.41374990000000006,9.117119789123535,-2.456450939178467,1.1204863786697388,-3.0059814453125,-0.1068115234375,-3.326416015625
0.41624990000000006,9.138668060302734,-2.454056739807129,1.1635819673538208,-6.3629150390625,-0.54931640625,-3.875732421875
0.4187499,9.141061782836914,-2.542642116546631,1.194706678390503,-9.2010498046875,-0.7781982421875,-4.2572021484375
0.4212499,9.114726066589355,-2.715024709701538,1.216254472732544,-10.9405517578125,-1.556396484375,-5.0048828125
0.4237499,9.05487060546875,-2.9472622871398926,1.2449848651885986,-12.26806640625,-2.4261474609375,-5.1727294921875
0.4262499,8.983044624328613,-3.160346269607544,1.290474772453308,-14.0533447265625,-3.41796875,-4.9285888671875
0.4287499,8.911218643188477,-3.3207578659057617,1.3551181554794312,-15.7623291015625,-4.486083984375,-4.974365234375
0.4312499,8.87051773071289,-3.404554843902588,1.4413094520568848,-17.425537109375,-5.126953125,-4.8370361328125
0.4337499,8.856152534484863,-3.423708438873291,1.5275006294250488,-18.9971923828125,-5.8135986328125,-4.8065185546875
0.4362499,8.856152534484863,-3.4308910369873047,1.5945383310317993,-20.32470703125,-6.34765625,-4.730224609375
0.4387499,8.856152534484863,-3.464409828186035,1.623268723487854,-21.0418701171875,-6.89697265625,-4.8828125
0.44124990000000003,8.83699893951416,-3.555389642715454,1.5945383310317993,-20.904541015625,-7.476806640625,-5.096435546875
0.44374990000000003,8.801085472106934,-3.708618402481079,1.5131354331970215,-20.3857421875,-7.904052734375,-4.94384765625
0.44624990000000003,8.75080680847168,-3.907337188720703,1.3862427473068237,-19.59228515625,-8.3770751953125,-4.8828125
0.44874990000000003,8.69095230102539,-4.129997730255127,1.2521674633026123,-18.280029296875,-8.9263916015625,-4.6844482421875
0.45124990000000004,8.616731643676758,-4.3622355461120605,1.1180921792984009,-16.2811279296875,-9.6893310546875,-4.21142578125
0.45374990000000004,8.540117263793945,-4.575319290161133,1.015141487121582,-14.1143798828125,-10.4522705078125,-3.6163330078125
0.45624990000000004,8.470685958862305,-4.750096321105957,0.9433154463768005,-11.3677978515625,-11.505126953125,-3.23486328125
0.45874990000000004,8.427590370178223,-4.876988887786865,0.8978256583213806,-9.27734375,-12.359619140625,-2.8076171875
0.46124990000000005,8.427590370178223,-4.95120906829834,0.8643068075180054,-6.866455078125,-12.8021240234375,-2.166748046875
0.46374990000000005,8.449137687683105,-5.003881454467773,0.8451532125473022,-4.180908203125,-12.87841796875,-1.6937255859375
0.46624990000000005,8.473079681396484,-5.04218864440918,0.828393816947937,-1.1749267578125,-13.3819580078125,-0.8392333984375
0.46874990000000005,8.463502883911133,-5.07570743560791,0.8355764150619507,2.1820068359375,-13.916015625,-0.0762939453125
0.47124990000000005,8.437167167663574,-5.092466831207275,0.8523358106613159,5.43212890625,-14.4805908203125,0.6256103515625
0.47374990000000006,8.389283180236816,-5.073313236236572,0.8858546018600464,8.1024169921875,-14.8468017578125,1.129150390625
0.47624990000000006,8.355764389038086,-5.0254292488098145,0.9074024558067322,10.5133056640625,-15.167236328125,1.64794921875
0.47874990000000006,8.322244644165039,-4.948814868927002,0.9265560507774353,13.0462646484375,-15.411376953125,2.2430419921875
0.4812499,8.293514251708984,-4.869806289672852,0.9361328482627869,14.95361328125,-15.594482421875,2.777099609375
0.4837499,8.257601737976074,-4.790797710418701,0.9576807022094727,17.2882080078125,-15.9759521484375,2.99072265625
0.4862499,8.221688270568848,-4.707000732421875,0.993593692779541,19.1650390625,-16.1895751953125,3.5400390625
0.4887499,8.195352554321289,-4.606443881988525,1.05105459690094,20.4620361328125,-16.5863037109375,3.9215087890625
0.4912499,8.183381080627441,-4.491522312164307,1.1180921792984009,21.636962890625,-16.845703125,4.2266845703125
0.4937499,8.197746276855469,-4.350264549255371,1.1971008777618408,22.4761962890625,-16.6778564453125,4.21142578125
0.4962499,8.221688270568848,-4.20421838760376,1.2737152576446533,23.1170654296875,-16.571044921875,4.2724609375
0.4987499,8.248024940490723,-4.067748546600342,1.3479355573654175,23.01025390625,-16.448974609375,4.3792724609375
0.5012499,8.269572257995605,-3.957615375518799,1.414973258972168,22.9644775390625,-16.3421630859375,3.936767578125
0.5037499000000001,8.271966934204102,-3.883395195007324,1.4628572463989258,22.6593017578125,-16.41845703125,3.570556640625
0.5062499,8.26239013671875,-3.840299606323242,1.4844050407409668,22.674560546875,-16.2811279296875,3.35693359375
0.5087499000000001,8.245630264282227,-3.8139634132385254,1.4867992401123047,22.4609375,-16.143798828125,2.50244140625
0.5112499,8.233659744262695,-3.799597978591919,1.4724340438842773,21.6827392578125,-15.8538818359375,1.7547607421875
0.5137499,8.2312650680542,-3.8067808151245117,1.4460978507995605,21.0418701171875,-15.5487060546875,1.1444091796875
0.5162499,8.255207061767578,-3.8498764038085938,1.4053963422775269,19.8211669921875,-15.4571533203125,0.3814697265625
0.5187499,8.303091049194336,-3.9408559799194336,1.3503297567367554,18.85986328125,-15.07568359375,-0.2593994140625
0.5212499,8.370129585266113,-4.082113742828369,1.2761094570159912,18.524169921875,-14.4805908203125,-0.4119873046875
0.5237499,8.439560890197754,-4.264073371887207,1.2018892765045166,17.9443359375,-14.1143798828125,-0.42724609375
0.5262499,8.489839553833008,-4.443638324737549,1.1300631761550903,17.2882080078125,-13.6566162109375,-0.7171630859375
0.5287499,8.513781547546387,-4.599261283874512,1.0797849893569946,16.9830322265625,-13.702392578125,-0.6866455078125
0.5312499,8.518569946289062,-4.699818134307861,1.0534487962722778,16.2200927734375,-13.458251953125,-0.6866455078125
0.5337499,8.516175270080566,-4.750096321105957,1.0534487962722778,15.3045654296875,-13.2904052734375,-0.5950927734375
0.5362499000000001,8.530540466308594,-4.76924991607666,1.070208191871643,14.495849609375,-13.031005859375,-0.640869140625
0.5387499,8.561665534973145,-4.771644115447998,1.0845733880996704,13.85498046875,-12.4664306640625,-0.4425048828125
0.5412499000000001,8.604761123657227,-4.776432514190674,1.0869675874710083,13.275146484375,-11.77978515625,-0.30517578125
0.5437499,8.631096839904785,-4.774038314819336,1.0773907899856567,12.14599609375,-11.2152099609375,-0.1678466796875
0.5462499000000001,8.635885238647461,-4.754884719848633,1.0534487962722778,11.29150390625,-10.9405517578125,-0.152587890625
0.5487499,8.614337921142578,-4.72376012802124,1.0342950820922852,10.223388671875,-10.8795166015625,-0.1068115234375
0.5512499000000001,8.585607528686523,-4.6734819412231445,1.015141487121582,9.002685546875,-10.5438232421875,0.0762939453125
0.5537499,8.56884765625,-4.630385875701904,1.0055646896362305,7.904052734375,-10.1165771484375,0.030517578125
0.5562499000000001,8.571242332458496,-4.58968448638916,1.0007762908935547,6.6375732421875,-9.735107421875,-0.244140625
0.5587499,8.5903959274292,-4.570530891418457,0.9959878921508789,5.645751953125,-9.490966796875,-0.152587890625
0.5612499000000001,8.616731643676758,-4.577713489532471,0.9911994934082031,4.6844482421875,-9.1094970703125,-0.18310546875
0.5637499,8.638279914855957,-4.60165548324585,0.9864110946655273,3.6773681640625,-8.9569091796875,-0.2593994140625
0.5662499000000001,8.643068313598633,-4.642356872558594,0.9720458984375,3.0059814453125,-8.575439453125,0.274658203125
0.5687499,8.633491516113281,-4.675876140594482,0.9648633003234863,2.5787353515625,-8.30078125,0.5035400390625
0.5712499000000001,8.62391471862793,-4.6950297355651855,0.9600749015808105,1.9378662109375,-7.965087890625,0.6561279296875
0.5737499,8.616731643676758,-4.687847137451172,0.9720458984375,1.0986328125,-7.8887939453125,0.8697509765625
0.5762499000000001,8.616731643676758,-4.663905143737793,0.9983820915222168,0.48828125,-7.720947265625,1.1138916015625
0.5787499,8.609549522399902,-4.627991676330566,1.048660397529602,-0.152587890625,-7.354736328125,1.373291015625
0.5812499,8.559270858764648,-4.5825018882751465,1.1779472827911377,-0.8544921875,-7.4615478515625,1.251220703125
0.5837499,8.559270858764648,-4.5825018882751465,1.1779472827911377,-0.8544921875,-7.4615478515625,1.251220703125
0.5862499,8.501810073852539,-4.584896087646484,1.2976573705673218,-1.7852783203125,-7.26318359375,1.4801025390625
0.5887499,8.501810073852539,-4.584896087646484,1.2976573705673218,-1.7852783203125,-7.26318359375,1.4801025390625
0.5912499,8.506598472595215,-4.627991676330566,1.3694833517074585,-1.9073486328125,-7.1563720703125,2.044677734375
0.5937499,8.506598472595215,-4.627991676330566,1.3694833517074585,-1.9073486328125,-7.1563720703125,2.044677734375
0.5962499,8.523358345031738,-4.6734819412231445,1.3934253454208374,-2.0294189453125,-6.5460205078125,2.593994140625
0.5987499000000001,8.523358345031738,-4.6734819412231445,1.3934253454208374,-2.0294189453125,-6.5460205078125,2.593994140625
0.6012499,8.44195556640625,-4.659116744995117,1.403002142906189,-1.9683837890625,-6.4239501953125,2.99072265625
0.6037499000000001,8.44195556640625,-4.659116744995117,1.403002142906189,-1.9683837890625,-6.4239501953125,2.99072265625
0.6062499,8.312667846679688,-4.6040496826171875,1.4293384552001953,-2.0599365234375,-6.622314453125,2.99072265625
0.6087499000000001,8.312667846679688,-4.6040496826171875,1.4293384552001953,-2.0599365234375,-6.622314453125,2.99072265625
0.6112499,8.243236541748047,-4.570530891418457,1.4676456451416016,-2.25830078125,-6.7596435546875,2.7008056640625
0.6137499000000001,8.243236541748047,-4.570530891418457,1.4676456451416016,-2.25830078125,-6.7596435546875,2.7008056640625
0.6162499,8.214506149291992,-4.572925090789795,1.5155296325683594,-1.9683837890625,-6.6375732421875,2.685546875
0.6187499000000001,8.214506149291992,-4.572925090789795,1.5155296325683594,-1.9683837890625,-6.6375732421875,2.685546875
0.6212499,8.13789176940918,-4.577713489532471,1.5442601442337036,-1.5411376953125,-6.5765380859375,2.8839111328125
0.6237499000000001,8.13789176940918,-4.577713489532471,1.5442601442337036,-1.5411376953125,-6.5765380859375,2.8839111328125
0.6262499,8.051700592041016,-4.592078685760498,1.4221558570861816,-2.3040771484375,-6.0272216796875,2.8076171875
0.6287499000000001,8.051700592041016,-4.592078685760498,1.4221558570861816,-2.3040771484375,-6.0272216796875,2.8076171875
0.6312499,8.02536392211914,-4.654327869415283,1.0989385843276978,-2.99072265625,-5.9967041015625,3.0670166015625
0.6337499000000001,8.02536392211914,-4.654327869415283,1.0989385843276978,-2.99072265625,-5.9967041015625,3.0670166015625
0.6362499,8.003816604614258,-4.745307922363281,0.7757213711738586,-4.39453125,-6.378173828125,3.96728515625
0.6387499000000001,8.003816604614258,-4.745307922363281,0.7757213711738586,-4.39453125,-6.378173828125,3.96728515625
0.6412499,7.960720539093018,-4.831499099731445,0.6655880808830261,-5.3253173828125,-6.9580078125,4.7760009765625
0.6437499,7.960720539093018,-4.831499099731445,0.6655880808830261,-5.3253173828125,-6.9580078125,4.7760009765625
0.6462499,7.955932140350342,-4.850652694702148,0.8044517636299133,-6.5765380859375,-7.2479248046875,5.157470703125
0.6487499,7.955932140350342,-4.850652694702148,0.8044517636299133,-6.5765380859375,-7.2479248046875,5.157470703125
0.6512499,8.003816604614258,-4.78122091293335,1.1013327836990356,-8.4686279296875,-7.8125,5.4931640625
0.6537499,8.003816604614258,-4.78122091293335,1.1013327836990356,-8.4686279296875,-7.8125,5.4931640625
0.6562499,8.097189903259277,-4.721365928649902,1.3838485479354858,-9.9029541015625,-7.8887939453125,5.5999755859375
0.6587499,8.097189903259277,-4.721365928649902,1.3838485479354858,-9.9029541015625,-7.8887939453125,5.5999755859375
0.6612499000000001,8.238448143005371,-4.752490520477295,1.5275006294250488,-10.650634765625,-7.87353515625,5.0048828125
0.6637499,8.238448143005371,-4.752490520477295,1.5275006294250488,-10.650634765625,-7.87353515625,5.0048828125
0.6662499000000001,8.334216117858887,-4.8722004890441895,1.53707754611969,-10.467529296875,-7.476806640625,4.425048828125
0.6687499,8.334216117858887,-4.8722004890441895,1.53707754611969,-10.467529296875,-7.476806640625,4.425048828125
0.6712499000000001,8.341399192810059,-5.023035049438477,1.5131354331970215,-9.9029541015625,-7.87353515625,4.058837890625
0.6737499,8.341399192810059,-5.023035049438477,1.5131354331970215,-9.9029541015625,-7.87353515625,4.058837890625
0.6762499000000001,8.291120529174805,-5.178658485412598,1.5394717454910278,-8.4228515625,-7.598876953125,3.5400390625
0.6787499,8.291120529174805,-5.178658485412598,1.5394717454910278,-8.4228515625,-7.598876953125,3.5400390625
0.6812499000000001,8.243236541748047,-5.317522048950195,1.5634137392044067,-6.866455078125,-7.50732421875,3.7078857421875
0.6837499,8.243236541748047,-5.317522048950195,1.5634137392044067,-6.866455078125,-7.50732421875,3.7078857421875
0.6862499000000001,8.243236541748047,-5.442020416259766,1.4413094520568848,-4.9591064453125,-6.8206787109375,3.90625
0.6887499,8.243236541748047,-5.442020416259766,1.4413094520568848,-4.9591064453125,-6.8206787109375,3.90625
0.6912499000000001,8.274360656738281,-5.571307182312012,1.1324573755264282,-3.082275390625,-6.0272216796875,4.730224609375
0.6937499,8.283937454223633,-5.628767967224121,0.9409212470054626,-2.227783203125,-5.7525634765625,5.6610107421875
0.6962499000000001,8.26239013671875,-5.659893035888672,0.7541735172271729,-1.373291015625,-5.3253173828125,6.40869140625
0.6987499,8.212111473083496,-5.647922039031982,0.608127236366272,-0.7476806640625,-5.0048828125,7.049560546875
0.7012499000000001,8.130708694458008,-5.568912982940674,0.5315127968788147,-0.2593994140625,-4.94384765625,7.5225830078125
0.7037499,8.037335395812988,-5.408501625061035,0.5506663918495178,-0.1373291015625,-5.2032470703125,8.1634521484375
0.7062499,7.967903137207031,-5.188235282897949,0.6584054827690125,-0.5035400390625,-5.31005859375,8.056640625
0.7087499,7.931990146636963,-4.93923807144165,0.8236053586006165,-1.0833740234375,-4.7760009765625,7.720947265625
0.7112499,7.943961143493652,-4.711789131164551,1.0223240852355957,-1.983642578125,-4.4708251953125,7.232666015625
0.7137499,7.989450931549072,-4.5394062995910645,1.2066776752471924,-2.4871826171875,-4.5318603515625,6.866455078125
0.7162499,8.04691219329834,-4.448426723480225,1.3670891523361206,-3.2196044921875,-4.1046142578125,6.805419921875
0.7187499,8.121131896972656,-4.431667327880859,1.479616641998291,-3.9520263671875,-3.692626953125,6.3323974609375
0.7212499,8.192957878112793,-4.481945514678955,1.5466543436050415,-4.39453125,-3.173828125,6.2103271484375
0.7237499000000001,8.26478385925293,-4.587290287017822,1.5705963373184204,-4.608154296875,-2.86865234375,6.3934326171875
0.7262499,8.33182144165039,-4.714183330535889,1.5634137392044067,-4.69970703125,-2.5482177734375,6.3018798828125
0.7287499000000001,8.38449478149414,-4.833893299102783,1.5418659448623657,-4.638671875,-2.4871826171875,6.4239501953125
0.7312499,8.427590370178223,-4.917690277099609,1.5083470344543457,-4.3792724609375,-1.983642578125,6.3629150390625
0.7337499000000001,8.453926086425781,-4.953603267669678,1.4700398445129395,-4.5318603515625,-1.5869140625,6.561279296875
0.7362499,8.473079681396484,-4.955997467041016,1.4221558570861816,-4.852294921875,-1.15966796875,6.4544677734375
0.7387499000000001,8.480262756347656,-4.944026470184326,1.357512354850769,-4.69970703125,-0.79345703125,6.4849853515625
0.7412499,8.485051155090332,-4.946420669555664,1.2856862545013428,-4.4097900390625,-0.244140625,6.28662109375
0.7437499000000001,8.487444877624512,-4.972756862640381,1.213860273361206,-4.21142578125,0.1068115234375,6.40869140625
0.7462499,8.482656478881836,-5.015852451324463,1.1563993692398071,-3.570556640625,0.6561279296875,6.3018798828125
0.7487499000000001,8.473079681396484,-5.07570743560791,1.1180921792984009,-2.9144287109375,0.91552734375,6.317138671875
0.7512499,8.451532363891602,-5.140350818634033,1.115697979927063,-2.38037109375,1.3275146484375,6.5765380859375
0.7537499000000001,8.429984092712402,-5.195417881011963,1.1492167711257935,-1.6632080078125,1.5411376953125,6.9580078125
0.7562499,8.418013572692871,-5.238513469696045,1.2234370708465576,-0.762939453125,1.861572265625,7.2021484375
0.7587499000000001,8.425195693969727,-5.260061264038086,1.3192051649093628,0.18310546875,2.227783203125,7.26318359375
0.7612499,8.453926086425781,-5.252878665924072,1.414973258972168,0.91552734375,2.8228759765625,7.7972412109375
0.7637499000000001,8.487444877624512,-5.224148273468018,1.479616641998291,1.251220703125,3.753662109375,7.9498291015625
0.7662499,8.518569946289062,-5.171475887298584,1.50355863571167,1.7242431640625,3.8604736328125,7.9345703125
0.7687499000000001,8.53293514251709,-5.1116204261779785,1.4939818382263184,2.0904541015625,4.2266845703125,7.8277587890625
0.7712499,8.53293514251709,-5.054159641265869,1.45806884765625,2.44140625,4.5623779296875,8.148193359375
0.7737499,8.523358345031738,-5.011064052581787,1.4077905416488647,2.74658203125,4.8675537109375,8.026123046875
0.7762499,8.513781547546387,-4.9799394607543945,1.3527239561080933,2.5787353515625,4.9591064453125,8.148193359375
0.7787499,8.501810073852539,-4.965574264526367,1.2952631711959839,2.4261474609375,5.3863525390625,8.3770751953125
0.7812499,8.485051155090332,-4.977545261383057,1.237802267074585,2.4566650390625,5.828857421875,8.5296630859375
0.7837499,8.465897560119629,-4.99669885635376,1.192312479019165,2.44140625,6.1187744140625,8.3770751953125
0.7862499000000001,8.44195556640625,-5.0254292488098145,1.161187767982483,2.4566650390625,6.3629150390625,8.4228515625
0.7887499,8.429984092712402,-5.039794445037842,1.137245774269104,2.6702880859375,6.3934326171875,8.8958740234375
0.7912499000000001,8.432378768920898,-5.035006046295166,1.1252747774124146,2.593994140625,6.3934326171875,9.246826171875
0.7937499,8.453926086425781,-4.999093055725098,1.113303780555725,2.716064453125,6.591796875,9.307861328125
0.7962499000000001,8.492233276367188,-4.944026470184326,1.094150185585022,2.6397705078125,6.89697265625,9.3231201171875
0.7987499,8.53532886505127,-4.869806289672852,1.0678139925003052,2.3956298828125,7.232666015625,9.21630859375
0.8012499000000001,8.578424453735352,-4.797980308532715,1.0271124839782715,1.9683837890625,7.659912109375,8.9874267578125
0.8037499,8.59997272491455,-4.733336925506592,0.9840168952941895,1.556396484375,8.0718994140625,8.8653564453125
0.8062499000000001,8.60236644744873,-4.685452938079834,0.950498104095459,1.2054443359375,8.2550048828125,8.7432861328125
0.8087499,8.585607528686523,-4.666299343109131,0.933738648891449,0.7781982421875,8.2244873046875,8.8653564453125
0.8112499000000001,8.552088737487793,-4.67827033996582,0.9409212470054626,-0.030517578125,8.392333984375,9.002685546875
0.8137499,8.518569946289062,-4.733336925506592,0.9648633003234863,-0.6561279296875,8.5906982421875,9.033203125
0.8162499000000001,8.480262756347656,-4.819528102874756,1.0127472877502441,-0.7476806640625,8.4991455078125,8.9874267578125
0.8187499,8.439560890197754,-4.910507678985596,1.0773907899856567,-0.5035400390625,8.697509765625,9.1400146484375
0.8212499000000001,8.398859977722168,-4.965574264526367,1.1659762859344482,-0.274658203125,8.9263916015625,9.2315673828125
0.8237499,8.367734909057617,-4.944026470184326,1.256955862045288,0.1068115234375,8.9874267578125,9.1400146484375
0.8262499000000001,8.35097599029541,-4.829104900360107,1.338358759880066,-0.091552734375,9.368896484375,8.9111328125
0.8287499,8.35097599029541,-4.6471452713012695,1.3862427473068237,-0.67138671875,9.5672607421875,8.1634521484375
0.8312499000000001,8.360552787780762,-4.467580318450928,1.3886369466781616,-1.4801025390625,9.9945068359375,7.3699951171875
0.8337499,8.367734909057617,-4.347870349884033,1.3503297567367554,-1.7547607421875,10.3759765625,6.3323974609375
0.8362499,8.360552787780762,-4.343081951141357,1.2832920551300049,-1.678466796875,10.5133056640625,5.6610107421875
0.8387499,8.341399192810059,-4.443638324737549,1.2042834758758545,-1.129150390625,10.8489990234375,5.1727294921875
0.8412499,8.322244644165039,-4.6255974769592285,1.1300631761550903,-0.5340576171875,10.833740234375,4.974365234375
0.8437499,8.300697326660156,-4.841075897216797,1.0869675874710083,0.1678466796875,11.1236572265625,4.8370361328125
0.8462499,8.286332130432129,-5.0685248374938965,1.0797849893569946,1.0223388671875,11.3067626953125,4.791259765625
0.8487499000000001,8.269572257995605,-5.286397457122803,1.1085153818130493,1.922607421875,11.3983154296875,5.0506591796875
0.8512499,8.24084186553955,-5.48272180557251,1.1659762859344482,3.4027099609375,11.8560791015625,5.462646484375
0.8537499000000001,8.209717750549316,-5.635950565338135,1.2282254695892334,4.8980712890625,12.1917724609375,5.8746337890625
0.8562499,8.178592681884766,-5.729324817657471,1.2737152576446533,6.256103515625,12.3443603515625,6.195068359375
0.8587499000000001,8.159439086914062,-5.748478412628174,1.290474772453308,8.0718994140625,12.420654296875,6.591796875
0.8612499,8.152256965637207,-5.6910176277160645,1.278503656387329,9.8419189453125,12.7105712890625,7.110595703125
0.8637499000000001,8.159439086914062,-5.578489780426025,1.2401964664459229,10.8642578125,13.0767822265625,7.0953369140625
0.8662499,8.164227485656738,-5.439626216888428,1.192312479019165,11.9171142578125,13.5955810546875,7.4005126953125
0.8687499000000001,8.159439086914062,-5.295974254608154,1.1300631761550903,12.8631591796875,13.916015625,7.8277587890625
0.8712499,8.145073890686035,-5.173870086669922,1.0773907899856567,13.6260986328125,14.0533447265625,8.1329345703125
0.8737499000000001,8.11634349822998,-5.073313236236572,1.0342950820922852,14.2822265625,14.5416259765625,8.148193359375
0.8762499,8.087613105773926,-5.003881454467773,1.0295066833496094,15.0604248046875,14.6636962890625,8.36181640625
0.8787499000000001,8.066065788269043,-4.9368438720703125,1.0821791887283325,15.93017578125,14.892578125,8.7127685546875
0.8812499,8.056488990783691,-4.845864295959473,1.1851298809051514,16.7694091796875,14.83154296875,8.8958740234375
0.8837499000000001,8.070854187011719,-4.711789131164551,1.3215993642807007,16.998291015625,15.2435302734375,9.185791015625
0.8862499,8.111555099487305,-4.525041103363037,1.4437036514282227,16.8304443359375,15.9454345703125,8.72802734375
0.8887499000000001,8.176198959350586,-4.323928356170654,1.522712230682373,16.5557861328125,16.632080078125,7.87353515625
0.8912499,8.250418663024902,-4.165910720825195,1.5442601442337036,16.29638671875,16.876220703125,7.50732421875
0.8937499000000001,8.315062522888184,-4.079719543457031,1.5179238319396973,16.2200927734375,17.3187255859375,7.5531005859375
0.8962499,8.360552787780762,-4.0749311447143555,1.4772224426269531,16.3726806640625,17.4102783203125,7.32421875
0.8987499,8.38688850402832,-4.108449935913086,1.4484920501708984,16.4031982421875,17.2576904296875,7.3394775390625
0.9012499,8.413225173950195,-4.146757125854492,1.4484920501708984,16.0980224609375,17.1356201171875,7.537841796875
0.9037499,8.463502883911133,-4.168305397033691,1.482010841369629,15.167236328125,17.0440673828125,7.476806640625
0.9062499,8.552088737487793,-4.175487995147705,1.525106430053711,14.404296875,17.0745849609375,7.537841796875
0.9087499,8.676587104797363,-4.175487995147705,1.5658079385757446,13.7939453125,17.0745849609375,7.354736328125
0.9112499000000001,8.815450668334961,-4.175487995147705,1.599326729774475,13.36669921875,17.1356201171875,7.26318359375
0.9137499,8.951920509338379,-4.14915132522583,1.623268723487854,12.87841796875,16.9525146484375,7.3089599609375
0.9162499000000001,9.069235801696777,-4.086902141571045,1.6496049165725708,12.1002197265625,16.78466796875,7.4920654296875
0.9187499,9.172186851501465,-3.9815573692321777,1.6759412288665771,11.16943359375,16.4337158203125,7.1868896484375
0.9212499000000001,9.275136947631836,-3.8546648025512695,1.6759412288665771,10.0860595703125,16.448974609375,6.7138671875
0.9237499,9.368511199951172,-3.7397429943084717,1.6519991159439087,8.5601806640625,16.6168212890625,6.0882568359375
0.9262499000000001,9.452308654785156,-3.6774938106536865,1.6041151285171509,7.38525390625,16.3421630859375,5.5084228515625
0.9287499,9.514557838439941,-3.6750996112823486,1.5394717454910278,6.5460205078125,15.7012939453125,5.2642822265625
0.9312499000000001,9.5624418258667,-3.7229835987091064,1.4891934394836426,5.55419921875,15.2587890625,4.8828125
0.9337499,9.59835433959961,-3.8091750144958496,1.4532804489135742,4.5928955078125,14.892578125,4.669189453125
0.9362499000000001,9.63187313079834,-3.907337188720703,1.4437036514282227,3.4027099609375,14.3280029296875,4.21142578125
0.9387499,9.672574996948242,-4.01268196105957,1.4460978507995605,2.5177001953125,13.6566162109375,4.0283203125
0.9412499000000001,9.706093788146973,-4.110844135284424,1.4532804489135742,1.8463134765625,12.9241943359375,3.9825439453125
0.9437499,9.734824180603027,-4.201824188232422,1.4460978507995605,0.8087158203125,12.298583984375,4.0283203125
0.9462499000000001,9.751583099365234,-4.285621166229248,1.414973258972168,-0.3509521484375,11.9171142578125,4.1046142578125
0.9487499,9.749189376831055,-4.364629745483398,1.3479355573654175,-0.9613037109375,11.3677978515625,4.3487548828125
0.9512499000000001,9.742006301879883,-4.4532151222229,1.259350061416626,-1.2664794921875,10.711669921875,4.241943359375
0.9537499,9.730035781860352,-4.534617900848389,1.1540051698684692,-1.434326171875,10.0555419921875,4.119873046875
0.9562499000000001,9.708487510681152,-4.6255974769592285,1.05105459690094,-1.40380859375,9.46044921875,3.8604736328125
0.9587499,9.682151794433594,-4.716577529907227,0.9648633003234863,-1.6937255859375,8.8348388671875,4.119873046875
0.9612499,9.636661529541016,-4.817133903503418,0.9097966551780701,-1.8157958984375,8.11767578125,4.3182373046875
0.9637499,9.57441234588623,-4.934449672698975,0.8834604024887085,-1.800537109375,7.1563720703125,4.6234130859375
0.9662499,9.500192642211914,-5.0469770431518555,0.8834604024887085,-1.190185546875,6.16455078125,4.9285888671875
0.9687499,9.421183586120605,-5.149928092956543,0.9097966551780701,-0.42724609375,5.4473876953125,5.279541015625
0.9712499,9.346963882446289,-5.202600479125977,0.9481038451194763,0.0762939453125,4.39453125,5.6610107421875
0.9737499000000001,9.279925346374512,-5.197812080383301,0.993593692779541,0.2899169921875,3.662109375,5.92041015625
0.9762499,9.222464561462402,-5.135562419891357,1.039083480834961,0.54931640625,2.9754638671875,6.1798095703125
0.9787499000000001,9.157821655273438,-5.04218864440918,1.0678139925003052,0.823974609375,2.25830078125,6.4239501953125
0.9812499,9.083600997924805,-4.944026470184326,1.0869675874710083,0.762939453125,1.708984375,6.134033203125
0.9837499000000001,8.987833023071289,-4.8602294921875,1.0845733880996704,1.068115234375,0.91552734375,5.9051513671875
0.9862499,8.882488250732422,-4.809951305389404,1.070208191871643,1.3580322265625,-0.030517578125,5.92041015625
0.9887499000000001,8.78193187713623,-4.797980308532715,1.0534487962722778,1.4190673828125,-0.79345703125,5.7525634765625
0.9912499,8.686163902282715,-4.819528102874756,1.0534487962722778,1.7242431640625,-1.5411376953125,5.6304931640625
0.9937499000000001,8.59997272491455,-4.8602294921875,1.0749965906143188,2.50244140625,-2.50244140625,5.5999755859375
0.9962499,8.528146743774414,-4.898536682128906,1.1252747774124146,3.0517578125,-3.2501220703125,5.3558349609375
0.9987499000000001,8.461109161376953,-4.924872875213623,1.1994950771331787,3.23486328125,-3.9215087890625,4.913330078125
1.0012499,8.4108304977417,-4.920084476470947,1.2832920551300049,3.875732421875,-4.7454833984375,4.5318603515625
1.0037498999999999,8.379706382751465,-4.90571928024292,1.3670891523361206,4.425048828125,-5.5084228515625,4.2724609375
1.0062499,8.358158111572266,-4.8722004890441895,1.4484920501708984,4.730224609375,-6.3934326171875,3.9215087890625
1.0087499,8.346187591552734,-4.838681697845459,1.5179238319396973,5.31005859375,-7.1868896484375,3.6163330078125
1.0112499,8.327033042907715,-4.800374507904053,1.577778935432434,5.6304931640625,-7.9498291015625,3.3111572265625
1.0137498999999999,8.303091049194336,-4.752490520477295,1.6280571222305298,6.28662109375,-8.7432861328125,3.1890869140625
1.0162499,8.279149055480957,-4.685452938079834,1.6711528301239014,6.500244140625,-9.552001953125,2.7618408203125
1.0187499,8.259995460510254,-4.6040496826171875,1.6974890232086182,6.2713623046875,-10.0860595703125,2.044677734375
1.0212499,8.250418663024902,-4.517858505249023,1.721431016921997,5.9356689453125,-10.6201171875,1.5411376953125
1.0237498999999999,8.250418663024902,-4.448426723480225,1.7381904125213623,5.4931640625,-11.138916015625,1.068115234375
1.0262498999999998,8.248024940490723,-4.405331134796143,1.7501614093780518,5.18798828125,-11.688232421875,0.5340576171875
1.0287499,8.255207061767578,-4.405331134796143,1.7693150043487549,5.035400390625,-12.3138427734375,0.1373291015625
1.0312499,8.257601737976074,-4.438849925994873,1.7884687185287476,4.974365234375,-12.6495361328125,-0.030517578125
1.0337498999999999,8.271966934204102,-4.503493309020996,1.821987509727478,4.852294921875,-13.0615234375,-0.0457763671875
1.0362498999999998,8.29830265045166,-4.577713489532471,1.8555063009262085,4.8065185546875,-13.671875,-0.1068115234375
1.0387499,8.33182144165039,-4.644751071929932,1.9033904075622559,4.82177734375,-14.007568359375,-0.3204345703125
1.0412499,8.374917984008789,-4.699818134307861,1.944091796875,5.0811767578125,-14.312744140625,-0.30517578125
1.0437499,8.418013572692871,-4.726154327392578,1.9847931861877441,5.1116943359375,-14.4805908203125,-0.1373291015625
1.0462498999999998,8.451532363891602,-4.730942726135254,2.0183119773864746,5.218505859375,-14.7857666015625,-0.0457763671875
1.0487499,8.480262756347656,-4.707000732421875,2.0422539710998535,5.218505859375,-15.0299072265625,0.1373291015625
1.0512499,8.49941635131836,-4.666299343109131,2.054224967956543,4.9896240234375,-15.2740478515625,0.1678466796875
1.0537499,8.513781547546387,-4.618414878845215,2.0470423698425293,4.9285888671875,-15.350341796875,0.244140625
1.0562498999999999,8.520963668823242,-4.580107688903809,2.0374655723571777,4.7760009765625,-15.411376953125,0.4119873046875
1.0587499,8.525752067565918,-4.553771495819092,2.0183119773864746,4.669189453125,-15.5487060546875,0.518798828125
1.0612499,8.530540466308594,-4.5394062995910645,2.006340980529785,4.57763671875,-15.625,0.5035400390625
1.0637499,8.53293514251709,-4.525041103363037,2.0015525817871094,4.3182373046875,-15.5029296875,0.457763671875
1.0662498999999999,8.537723541259766,-4.49870491027832,2.011129379272461,4.241943359375,-15.655517578125,0.7476806640625
1.0687499,8.53532886505127,-4.469974517822266,2.032677173614502,4.1656494140625,-15.8538818359375,0.79345703125
1.0712499,8.528146743774414,-4.426878929138184,2.0590133666992188,3.570556640625,-15.716552734375,1.0223388671875
1.0737499,8.528146743774414,-4.3861775398254395,2.0853497982025146,2.8076171875,-15.5792236328125,0.946044921875
1.0762498999999999,8.516175270080566,-4.343081951141357,2.10210919380188,2.1514892578125,-15.7318115234375,0.9613037109375
1.0787499,8.508993148803711,-4.2975921630859375,2.1068975925445557,1.6937255859375,-15.7623291015625,1.03759765625
1.0812499,8.482656478881836,-4.240131378173828,2.1068975925445557,0.9002685546875,-15.655517578125,1.0986328125
1.0837499,8.453926086425781,-4.173093795776367,2.094926595687866,-0.2899169921875,-15.8843994140625,0.9765625
1.0862498999999999,8.415618896484375,-4.091690540313721,2.0829553604125977,-1.6021728515625,-16.082763671875,0.823974609375
1.0887499,8.391676902770996,-4.015076160430908,2.0661959648132324,-3.0364990234375,-15.9454345703125,0.79345703125
1.0912499,8.374917984008789,-3.955221176147461,2.0422539710998535,-4.3487548828125,-16.05224609375,0.8392333984375
1.0937499,8.372523307800293,-3.928884983062744,2.013523578643799,-5.828857421875,-16.204833984375,0.6866455078125
1.0962498999999999,8.374917984008789,-3.9384617805480957,1.987187385559082,-7.26318359375,-16.2811279296875,0.6561279296875
1.0987498999999998,8.367734909057617,-3.97916316986084,1.9823989868164062,-8.6822509765625,-16.265869140625,0.732421875
1.1012499,8.355764389038086,-4.041412353515625,2.0015525817871094,-10.07080078125,-16.2200927734375,1.03759765625
1.1037499,8.348581314086914,-4.113238334655762,2.049436569213867,-11.474609375,-16.082763671875,0.8697509765625
1.1062499,8.341399192810059,-4.197035789489746,2.1164743900299072,-12.4969482421875,-16.17431640625,0.91552734375
1.1087498999999998,8.348581314086914,-4.278438568115234,2.1811177730560303,-13.7481689453125,-16.0369873046875,0.91552734375
1.1112499,8.360552787780762,-4.371812343597412,2.2242133617401123,-14.5111083984375,-15.9454345703125,1.220703125
1.1137499,8.372523307800293,-4.460397720336914,2.2433669567108154,-14.862060546875,-15.7318115234375,1.1444091796875
1.1162499,8.374917984008789,-4.532223701477051,2.231395959854126,-14.862060546875,-15.5181884765625,0.885009765625
1.1187498999999999,8.360552787780762,-4.575319290161133,2.209848165512085,-14.70947265625,-15.380859375,0.7781982421875
1.1212499,8.334216117858887,-4.587290287017822,2.185906171798706,-14.556884765625,-15.3350830078125,0.579833984375
1.1237499,8.29830265045166,-4.577713489532471,2.1787235736846924,-14.495849609375,-15.0604248046875,-0.0457763671875
1.1262499,8.269572257995605,-4.55616569519043,2.1715409755706787,-14.2364501953125,-15.07568359375,-0.30517578125
1.1287498999999999,8.245630264282227,-4.548983097076416,2.1787235736846924,-14.0228271484375,-15.106201171875,-0.7171630859375
1.1312499,8.226476669311523,-4.55616569519043,2.1763293743133545,-13.4735107421875,-15.0299072265625,-1.220703125
1.1337499,8.209717750549316,-4.580107688903809,2.164358377456665,-13.1072998046875,-14.7857666015625,-1.7242431640625
1.1362499,8.197746276855469,-4.620809078216553,2.145204782485962,-12.8631591796875,-14.83154296875,-2.166748046875
1.1387498999999999,8.192957878112793,-4.671087741851807,2.1045033931732178,-13.00048828125,-14.7857666015625,-2.6092529296875
1.1412499,8.20492935180664,-4.728548526763916,2.049436569213867,-12.9547119140625,-14.617919921875,-2.685546875
1.1437499,8.2312650680542,-4.778826713562012,1.987187385559082,-13.214111328125,-14.434814453125,-2.777099609375
1.1462499,8.267178535461426,-4.807557106018066,1.9249382019042969,-13.641357421875,-14.312744140625,-2.960205078125
1.1487498999999999,8.305485725402832,-4.8051629066467285,1.8698714971542358,-14.3280029296875,-14.0228271484375,-3.0364990234375
1.1512499,8.343792915344238,-4.666299343109131,1.821987509727478,-16.7236328125,-14.007568359375,-3.11279296875
1.1537499,8.343792915344238,-4.666299343109131,1.821987509727478,-16.7236328125,-14.007568359375,-3.11279296875
1.1562499,8.317456245422363,-4.402936935424805,1.8291701078414917,-20.477294921875,-13.458251953125,-4.1656494140625
1.1587498999999999,8.317456245422363,-4.402936935424805,1.8291701078414917,-20.477294921875,-13.458251953125,-4.1656494140625
1.1612498999999998,8.281543731689453,-4.122815132141113,1.8171991109848022,-25.360107421875,-13.031005859375,-4.669189453125
1.1637499,8.281543731689453,-4.122815132141113,1.8171991109848022,-25.360107421875,-13.031005859375,-4.669189453125
1.1662499,8.274360656738281,-3.8498764038085938,1.7549498081207275,-31.402587890625,-12.39013671875,-5.645751953125
1.1687499,8.274360656738281,-3.8498764038085938,1.7549498081207275,-31.402587890625,-12.39013671875,-5.645751953125
1.1712498999999998,8.307879447937012,-3.5721490383148193,1.6424223184585571,-39.48974609375,-12.14599609375,-6.77490234375
1.1737499,8.307879447937012,-3.5721490383148193,1.6424223184585571,-39.48974609375,-12.14599609375,-6.77490234375
1.1762499,8.365341186523438,-3.5266590118408203,1.53707754611969,-47.8668212890625,-11.3677978515625,-7.965087890625
1.1787499,8.365341186523438,-3.5266590118408203,1.53707754611969,-47.8668212890625,-11.3677978515625,-7.965087890625
1.1812498999999999,8.379706382751465,-3.799597978591919,1.5394717454910278,-54.7943115234375,-10.498046875,-8.4075927734375
1.1837499,8.379706382751465,-3.799597978591919,1.5394717454910278,-54.7943115234375,-10.498046875,-8.4075927734375
1.1862499,8.317456245422363,-4.017470359802246,1.5610195398330688,-62.01171875,-10.2081298828125,-8.2855224609375
1.1887499,8.317456245422363,-4.017470359802246,1.5610195398330688,-62.01171875,-10.2081298828125,-8.2855224609375
1.1912498999999999,8.221688270568848,-3.952826976776123,1.50355863571167,-70.281982421875,-9.765625,-8.4686279296875
1.1937499,8.221688270568848,-3.952826976776123,1.50355863571167,-70.281982421875,-9.765625,-8.4686279296875
1.1962499,8.166622161865234,-3.7397429943084717,1.359906554222107,-78.7353515625,-9.796142578125,-9.0484619140625
1.1987499,8.166622161865234,-3.7397429943084717,1.359906554222107,-78.7353515625,-9.796142578125,-9.0484619140625
1.2012498999999999,8.166622161865234,-3.5649664402008057,1.1300631761550903,-87.921142578125,-9.4146728515625,-9.8114013671875
1.2037499,8.166622161865234,-3.5649664402008057,1.1300631761550903,-87.921142578125,-9.4146728515625,-9.8114013671875
1.2062499,8.233659744262695,-3.646369218826294,0.8068459630012512,-97.59521484375,-8.7127685546875,-11.138916015625
1.2087499,8.233659744262695,-3.646369218826294,0.8068459630012512,-97.59521484375,-8.7127685546875,-11.138916015625
1.2112498999999999,8.348581314086914,-4.271255970001221,0.5626373887062073,-102.9510498046875,-7.5531005859375,-11.6424560546875
1.2137499,8.348581314086914,-4.271255970001221,0.5626373887062073,-102.9510498046875,-7.5531005859375,-11.6424560546875
1.2162499,8.429984092712402,-5.329493045806885,0.4692635238170624,-102.3101806640625,-6.8817138671875,-10.6048583984375
1.2187499,8.429984092712402,-5.329493045806885,0.4692635238170624,-102.3101806640625,-6.8817138671875,-10.6048583984375
1.2212498999999999,8.429984092712402,-6.4595561027526855,0.3471592366695404,-98.358154296875,-6.0577392578125,-9.6435546875
1.2237498999999998,8.429984092712402,-6.4595561027526855,0.3471592366695404,-98.358154296875,-6.0577392578125,-9.6435546875
1.2262499,8.403648376464844,-7.560888767242432,0.15801730751991272,-89.4012451171875,-5.2032470703125,-7.781982421875
1.2287499,8.403648376464844,-7.560888767242432,0.15801730751991272,-89.4012451171875,-5.2032470703125,-7.781982421875
1.2312499,8.458714485168457,-8.489839553833008,0.040701430290937424,-75.86669921875,-4.08935546875,-5.767822265625
1.2337498999999998,8.458714485168457,-8.489839553833008,0.040701430290937424,-75.86669921875,-4.08935546875,-5.767822265625
1.2362499,8.588001251220703,-9.107542991638184,0.05027823522686958,-60.089111328125,-2.105712890625,-3.6468505859375
1.2387499,8.588001251220703,-9.107542991638184,0.05027823522686958,-60.089111328125,-2.105712890625,-3.6468505859375
1.2412499,8.760383605957031,-9.619902610778809,-0.016759412363171577,-41.3055419921875,1.0223388671875,-2.38037109375
1.2437498999999999,8.760383605957031,-9.619902610778809,-0.016759412363171577,-41.3055419921875,1.0223388671875,-2.38037109375
1.2462499,8.973467826843262,-10.496180534362793,-0.31124621629714966,-18.3258056640625,5.523681640625,-1.373291015625
1.2487499,8.973467826843262,-10.496180534362793,-0.31124621629714966,-18.3258056640625,5.523681640625,-1.373291015625
1.2512499,9.2033109664917,-12.030863761901855,-0.7230489253997803,12.87841796875,10.3912353515625,0.8087158203125
1.2537498999999999,9.2033109664917,-12.030863761901855,-0.7230489253997803,12.87841796875,10.3912353515625,0.8087158203125
1.2562499,9.361329078674316,-14.207192420959473,-1.158793568611145,53.2684326171875,16.1895751953125,4.2572021484375
1.2587499,9.361329078674316,-14.207192420959473,-1.158793568611145,53.2684326171875,16.1895751953125,4.2572021484375
1.2612499,9.423578262329102,-16.89348793029785,-1.5538369417190552,106.4605712890625,22.8729248046875,6.77490234375
1.2637498999999999,9.526528358459473,-18.006790161132812,-1.745373010635376,140.5181884765625,25.0091552734375,12.39013671875
1.2662499,9.636661529541016,-18.6053409576416,-1.8842366933822632,172.6531982421875,29.60205078125,16.2506103515625
1.2687499,9.742006301879883,-18.737022399902344,-1.9800047874450684,200.897216796875,35.09521484375,17.1356201171875
1.2712499,9.768342971801758,-18.734628677368164,-2.051830768585205,226.5777587890625,38.4674072265625,19.8211669921875
1.2737498999999999,9.706093788146973,-18.904617309570312,-2.1284453868865967,258.1634521484375,41.7633056640625,22.613525390625
1.2762499,9.63187313079834,-19.424158096313477,-2.315192937850952,297.210693359375,46.6156005859375,24.4293212890625
1.2787499,9.605537414550781,-20.16396713256836,-2.6360161304473877,338.3331298828125,51.9561767578125,27.008056640625
1.2812499,9.651026725769043,-20.808006286621094,-3.0837318897247314,378.8909912109375,57.5103759765625,29.8004150390625
1.2837498999999999,9.744400978088379,-21.0881290435791,-3.5913026332855225,417.41943359375,63.0340576171875,31.9976806640625
1.2862498999999998,9.801861763000488,-20.894197463989258,-4.1156325340271,453.8116455078125,68.78662109375,33.447265625
1.2887499,9.837775230407715,-20.197484970092773,-4.639962673187256,487.9302978515625,73.8677978515625,34.3475341796875
1.2912499,9.763554573059082,-18.990808486938477,-5.092466831207275,499.9847412109375,78.91845703125,32.8521728515625
1.2937499,9.66299819946289,-17.56625747680664,-5.501875400543213,499.9847412109375,83.2366943359375,29.6783447265625
1.2962498999999998,9.603142738342285,-16.062698364257812,-5.846640586853027,499.9847412109375,87.0513916015625,29.35791015625
1.2987499,9.66539192199707,-14.666879653930664,-6.160281181335449,499.9847412109375,91.8426513671875,28.99169921875
1.3012499,9.95748519897461,-13.508086204528809,-6.490680694580078,499.9847412109375,97.747802734375,28.0914306640625
1.3037499,10.505757331848145,-12.54561710357666,-6.866570472717285,499.9847412109375,105.16357421875,27.069091796875
1.3062498999999999,11.281478881835938,-11.719616889953613,-7.29034423828125,499.9847412109375,114.8223876953125,26.3214111328125
1.3087499,12.174515724182129,-11.0300874710083,-7.747636795043945,499.9847412109375,126.2664794921875,26.1688232421875
1.3112499,12.864046096801758,-10.38604736328125,-8.17141056060791,499.9847412109375,137.603759765625,26.1993408203125
1.3137499,12.971784591674805,-9.437943458557129,-8.51138687133789,499.9847412109375,146.759033203125,25.5889892578125
1.3162498999999999,12.461819648742676,-8.032546997070312,-8.69095230102539,499.9847412109375,149.871826171875,22.9644775390625
1.3187499,11.496956825256348,-6.265625953674316,-8.631096839904785,499.9847412109375,150.5584716796875,21.759033203125
1.3212499,10.287884712219238,-4.180276393890381,-8.334216117858887,499.9847412109375,153.25927734375,22.4609375
1.3237499,9.153033256530762,-2.006340980529785,-7.793126583099365,499.9847412109375,155.94482421875,22.0184326171875
1.3262498999999999,7.989450931549072,0.35434186458587646,-6.995857238769531,499.9847412109375,154.7088623046875,19.317626953125
1.3287499,6.75883150100708,2.9328970909118652,-6.011840343475342,499.9847412109375,149.0631103515625,14.7705078125
1.3312499,5.633556365966797,5.647922039031982,-4.884171485900879,499.9847412109375,140.0909423828125,11.138916015625
1.3337499,4.778826713562012,8.44434928894043,-3.648763418197632,499.9847412109375,131.2255859375,7.8125
1.3362498999999999,4.323928356170654,11.204863548278809,-2.3750481605529785,499.9847412109375,125.1678466796875,3.1280517578125
1.3387499,4.273650169372559,13.905523300170898,-1.0342950820922852,492.61474609375,119.842529296875,-1.46484375
1.3412499,4.426878929138184,16.560693740844727,0.35913026332855225,444.580078125,114.7308349609375,-5.615234375
1.3437499,4.654327869415283,18.993202209472656,1.7980455160140991,394.04296875,109.86328125,-9.5977783203125
1.3462498999999999,4.884171485900879,21.14319610595703,3.179499864578247,342.3919677734375,104.4769287109375,-13.8092041015625
1.3487498999999998,5.006275653839111,23.127988815307617,4.357447147369385,287.322998046875,99.5941162109375,-17.852783203125
1.3512499,5.027823448181152,25.03856086730957,5.243301868438721,224.2584228515625,93.719482421875,-21.2554931640625
1.3537499,4.934449672698975,26.941951751708984,5.789179801940918,152.587890625,87.0208740234375,-22.735595703125
1.3562499,4.764461517333984,28.79027557373047,6.042964935302734,78.4912109375,80.3375244140625,-24.810791015625
1.3587498999999998,4.661510944366455,30.401573181152344,6.110002517700195,2.9754638671875,73.6236572265625,-27.313232421875
1.3612499,4.6471452713012695,31.684865951538086,5.9974751472473145,-73.6846923828125,67.81005859375,-28.9154052734375
1.3637499,4.843470096588135,32.496498107910156,5.686229228973389,-151.763916015625,62.92724609375,-28.5186767578125
1.3662499,5.188235282897949,32.704795837402344,5.0876784324646,-230.010986328125,59.6160888671875,-27.2369384765625
1.3687498999999999,5.635950565338135,32.22834777832031,4.177882194519043,-304.87060546875,57.9986572265625,-25.970458984375
1.3712499,6.016628742218018,31.100679397583008,2.9903578758239746,-376.4801025390625,57.159423828125,-24.169921875
1.3737499,6.150704383850098,29.58036231994629,1.6160861253738403,-444.061279296875,55.8624267578125,-22.6287841796875
1.3762499,5.944802761077881,28.033708572387695,0.10773907601833344,-500,52.4749755859375,-21.0418701171875
1.3787498999999999,5.418078422546387,26.692955017089844,-1.482010841369629,-500,46.9207763671875,-18.524169921875
1.3812499,4.73573112487793,25.64668846130371,-3.157952070236206,-500,40.191650390625,-15.533447265625
1.3837499,4.098873138427734,24.78717041015625,-4.850652694702148,-500,33.538818359375,-11.5814208984375
1.3862499,3.6176388263702393,23.93004608154297,-6.528987884521484,-500,27.679443359375,-7.476806640625
1.3887498999999999,3.3734302520751953,22.993913650512695,-8.147468566894531,-500,21.4996337890625,-3.1890869140625
1.3912499,3.315969467163086,21.9979248046875,-9.720458984375,-500,16.1590576171875,-0.1220703125
1.3937499,3.3734302520751953,20.96841812133789,-11.243170738220215,-500,11.749267578125,2.0904541015625
1.3962499,3.466804027557373,19.977218627929688,-12.773066520690918,-500,7.4310302734375,3.448486328125
1.3987498999999999,3.576937437057495,19.062633514404297,-14.329297065734863,-500,3.2501220703125,3.4637451171875
1.4012499,3.550601005554199,18.126501083374023,-15.904682159423828,-500,1.251220703125,2.9449462890625
1.4037499,3.4117374420166016,17.130512237548828,-17.645265579223633,-500,-2.9144287109375,0.9918212890625
1.4062499,3.1699230670928955,15.91425895690918,-19.45288848876953,-500,-9.490966796875,-1.3580322265625
1.4087498999999999,2.9735984802246094,14.293384552001953,-21.380220413208008,-500,-14.9993896484375,-4.0740966796875
1.4112498999999998,2.980781078338623,12.071564674377441,-23.247697830200195,-500,-19.1650390625,-6.5765380859375
1.4137499,3.31118106842041,9.14585018157959,-24.906879425048828,-500,-21.3470458984375,-9.8419189453125
1.4162499,3.9624037742614746,5.518634796142578,-26.228479385375977,-500,-22.8271484375,-12.87841796875
1.4187499,4.795586109161377,1.479616641998291,-27.126304626464844,-500,-24.2919921875,-16.021728515625
1.4212498999999998,5.698200225830078,-2.6360161304473877,-27.655424118041992,-500,-26.2603759765625,-18.4783935546875
1.4237499,6.5912370681762695,-6.603208065032959,-27.849353790283203,-500,-29.388427734375,-20.4010009765625
1.4262499,7.453149795532227,-10.438719749450684,-27.83259391784668,-500,-31.5093994140625,-23.2696533203125
1.4287499,8.367734909057617,-14.355633735656738,-27.64345359802246,-500,-32.2418212890625,-25.32958984375
1.4312498999999999,9.318233489990234,-18.748992919921875,-27.241226196289062,-500,-30.45654296875,-26.153564453125
1.4337499,10.285490036010742,-23.903709411621094,-26.570850372314453,-500,-28.1829833984375,-26.18408203125
1.4362499,11.085153579711914,-30.061595916748047,-25.45754623413086,-500,-27.618408203125,-22.7203369140625
1.4387499,11.659762382507324,-37.16998291015625,-23.776817321777344,-500,-27.40478515625,-14.9383544921875
1.4412498999999999,11.884817123413086,-44.855369567871094,-21.468807220458984,-500,-28.01513671875,-4.5318603515625
1.4437499,11.896788597106934,-52.521602630615234,-18.53351593017578,-500,-28.8543701171875,8.5906982421875
1.4462499,11.78904914855957,-59.4935188293457,-15.121777534484863,-500,-28.3355712890625,24.9481201171875
1.4487499,11.652579307556152,-65.25396728515625,-11.370063781738281,-500,-26.4739990234375,42.4346923828125
1.4512498999999999,11.525687217712402,-69.4869155883789,-7.663839817047119,-435.6536865234375,-22.5830078125,59.6466064453125
1.4537499,11.386823654174805,-72.14208221435547,-4.321534156799316,-301.8798828125,-18.524169921875,76.446533203125
1.4562499,11.207258224487305,-73.10694885253906,-1.7764976024627686,-164.825439453125,-14.8773193359375,93.4906005859375
1.4587499,11.003750801086426,-72.26419067382812,-0.3687070608139038,-24.444580078125,-11.871337890625,108.70361328125
1.4612498999999999,10.939107894897461,-69.71196746826172,-0.2106897532939911,108.45947265625,-9.918212890625,123.2452392578125
1.4637499,11.08754825592041,-65.70647430419922,-1.1803414821624756,226.9439697265625,-5.9814453125,136.5966796875
1.4662499,11.528080940246582,-60.853424072265625,-2.920926094055176,332.7178955078125,0.823974609375,147.186279296875
1.4687499,12.203246116638184,-55.748985290527344,-5.015852451324463,431.21337890625,9.2315673828125,154.8309326171875
1.4712498999999999,12.94305419921875,-50.931854248046875,-7.062894821166992,499.9847412109375,19.500732421875,159.0118408203125
1.4737498999999998,13.591882705688477,-46.399627685546875,-8.935160636901855,499.9847412109375,30.7159423828125,160.8734130859375
1.4762499,13.955801963806152,-41.99908447265625,-10.606313705444336,499.9847412109375,42.78564453125,160.1409912109375
1.4787499,13.919888496398926,-37.46446990966797,-12.15057373046875,499.9847412109375,54.3060302734375,156.4483642578125
1.4812499,13.39316463470459,-32.72394943237305,-13.637372970581055,499.9847412109375,63.1866455078125,150.7568359375
1.4837498999999998,12.416330337524414,-28.01215934753418,-15.049951553344727,499.9847412109375,68.05419921875,144.3939208984375
1.4862499,11.152191162109375,-23.649925231933594,-16.390705108642578,499.9847412109375,69.27490234375,136.7645263671875
1.4887499,9.859322547912598,-19.9173641204834,-17.62132453918457,499.9847412109375,68.5882568359375,129.0283203125
1.4912499,8.789113998413086,-16.855180740356445,-18.71786880493164,499.9847412109375,67.352294921875,120.7733154296875
1.4937498999999999,8.078036308288574,-14.30774974822998,-19.668367385864258,499.9847412109375,66.741943359375,112.12158203125
1.4962499,7.733271598815918,-12.09311294555664,-20.384233474731445,499.9847412109375,66.6351318359375,103.515625
1.4987499,7.539340972900391,-9.964667320251465,-20.77688217163086,499.9847412109375,66.680908203125,95.2911376953125
1.5012499,7.314286231994629,-7.659051418304443,-20.688297271728516,499.9847412109375,65.032958984375,86.1663818359375
1.5037498999999999,7.007828235626221,-5.140350818634033,-20.080169677734375,499.9847412109375,60.394287109375,76.5533447265625
1.5062499,6.615179061889648,-2.365471363067627,-18.89025115966797,499.9847412109375,55.1910400390625,69.3817138671875
1.5087499,6.294356346130371,0.6368576288223267,-17.310077667236328,499.9847412109375,51.025390625,62.1490478515625
1.5112499,6.090848922729492,3.864241600036621,-15.342044830322266,499.9847412109375,47.66845703125,52.2003173828125
1.5137498999999999,5.990292549133301,7.232883453369141,-13.103466033935547,499.9847412109375,44.830322265625,40.58837890625
1.5162499,6.074089527130127,10.486603736877441,-10.606313705444336,499.9847412109375,41.961669921875,30.7159423828125
1.5187499,6.45476770401001,13.350069046020508,-7.905653953552246,499.9847412109375,39.764404296875,23.13232421875
1.5212499,7.158663272857666,15.708357810974121,-5.178658485412598,499.9847412109375,41.1529541015625,16.143798828125
1.5237498999999999,8.099584579467773,17.784130096435547,-2.647987127304077,499.9847412109375,45.3338623046875,9.1552734375
1.5262499,8.956708908081055,19.965248107910156,-0.4381389021873474,499.9847412109375,51.544189453125,2.01416015625
1.5287499,9.435548782348633,22.522254943847656,1.3263877630233765,499.9847412109375,55.84716796875,-5.3558349609375
1.5312499,9.27034854888916,25.488670349121094,2.829946517944336,499.9847412109375,56.8389892578125,-11.1236572265625
1.5337498999999999,8.520963668823242,28.56521987915039,4.094084739685059,499.9847412109375,53.5736083984375,-14.22119140625
1.5362499,7.3454108238220215,31.416715621948242,5.25527286529541,478.057861328125,45.989990234375,-15.93017578125
1.5387499,6.114790916442871,33.78458023071289,6.169857978820801,380.706787109375,36.712646484375,-16.9525146484375
1.5412499,5.212177276611328,35.50361633300781,6.854599475860596,281.890869140625,29.8919677734375,-16.29638671875
1.5437499,4.7405195236206055,36.60734558105469,7.151480674743652,180.72509765625,25.3143310546875,-14.892578125
1.5462498999999998,4.8051629066467285,37.19631576538086,7.252037048339844,79.7882080078125,20.294189453125,-12.420654296875
1.5487499,5.092466831207275,37.75416564941406,7.022193431854248,-18.8751220703125,16.3421630859375,-9.002685546875
1.5512499,5.509057998657227,38.13963317871094,6.497863292694092,-124.0692138671875,11.65771484375,-8.2550048828125
1.5537499,5.870582580566406,38.417362213134766,5.623979568481445,-231.62841796875,8.026123046875,-6.561279296875
1.5562498999999999,6.09324312210083,38.38862991333008,4.369418144226074,-329.7271728515625,5.5084228515625,-3.9825439453125
1.5587499,6.145915985107422,37.83317565917969,2.7964274883270264,-421.875,3.41796875,-1.2664794921875
1.5612499,6.057330131530762,36.75578308105469,0.9624691009521484,-500,1.068115234375,1.4801025390625
1.5637499,5.853823184967041,35.24983215332031,-1.1061211824417114,-500,-0.213623046875,4.3792724609375
1.5662498999999999,5.631162166595459,33.387142181396484,-3.397372245788574,-500,-0.54931640625,5.9967041015625
1.5687499,5.4659624099731445,31.213207244873047,-5.918466567993164,-500,-0.5950927734375,6.378173828125
1.5712499,5.410895824432373,28.67774772644043,-8.645462036132812,-500,-0.18310546875,5.31005859375
1.5737499,5.408501625061035,25.7496395111084,-11.429919242858887,-500,1.52587890625,2.0904541015625
1.5762498999999999,5.389348030090332,22.337902069091797,-14.053963661193848,-500,3.7078857421875,-3.2196044921875
1.5787499,5.276820659637451,18.485631942749023,-16.270994186401367,-500,4.3182373046875,-9.5672607421875
1.5812499,5.082890033721924,14.238317489624023,-17.841590881347656,-500,3.6468505859375,-16.2200927734375
1.5837499,4.69024133682251,9.749189376831055,-18.854337692260742,-500,0.30517578125,-22.9034423828125
1.5862498999999999,4.331110954284668,5.281609058380127,-19.333179473876953,-500,-8.0718994140625,-30.914306640625
1.5887499,4.086902141571045,0.8834604024887085,-19.400217056274414,-500,-16.5863037109375,-38.2080078125
1.5912499,4.129997730255127,-3.2082302570343018,-19.170373916625977,-500,-26.031494140625,-44.5404052734375
1.5937499,4.630385875701904,-6.856993675231934,-18.722658157348633,-500,-35.4461669921875,-49.31640625
1.5962498999999999,5.549759387969971,-10.0580415725708,-18.181568145751953,-500,-42.3583984375,-54.9468994140625
1.5987499,6.828263282775879,-12.911930084228516,-17.719486236572266,-500,-44.6014404296875,-61.859130859375
1.6012499,8.327033042907715,-15.835249900817871,-17.350780487060547,-500,-42.3583984375,-68.328857421875
1.6037499,9.890447616577148,-19.32599639892578,-17.061080932617188,-500,-36.2548828125,-73.66943359375
1.6062499,11.281478881835938,-23.910892486572266,-16.673221588134766,-500,-29.5562744140625,-75.8819580078125
1.6087498999999998,12.327744483947754,-29.874849319458008,-15.993267059326172,-500,-25.0396728515625,-73.42529296875
1.6112499,12.864046096801758,-37.050270080566406,-14.856021881103516,-500,-22.613525390625,-67.6727294921875
1.6137499,12.938265800476074,-44.91043472290039,-13.175292015075684,-500,-21.8963623046875,-58.5174560546875
1.6162499,12.69405746459961,-52.6508903503418,-11.018115997314453,-500,-22.15576171875,-46.69189453125
1.6187498999999999,12.318167686462402,-59.407325744628906,-8.530540466308594,-440.643310546875,-22.5982666015625,-32.9437255859375
1.6212499,11.980585098266602,-64.50936889648438,-5.961562156677246,-318.5577392578125,-22.1710205078125,-18.5699462890625
1.6237499,11.72201156616211,-67.59310150146484,-3.6296098232269287,-194.8089599609375,-20.01953125,-4.364013671875
1.6262499,11.468226432800293,-68.60345458984375,-1.8195933103561401,-72.8759765625,-16.7083740234375,9.2315673828125
1.6287498999999999,11.125855445861816,-67.82294464111328,-0.7541735172271729,44.403076171875,-14.34326171875,22.6287841796875
1.6312499,10.65898609161377,-65.74478149414062,-0.49799394607543945,155.9295654296875,-12.9547119140625,36.6058349609375
1.6337499,10.153809547424316,-62.890892028808594,-1.0007762908935547,264.0228271484375,-11.932373046875,50.384521484375
1.6362499,9.813833236694336,-59.66590118408203,-2.1332337856292725,370.5596923828125,-11.23046875,62.042236328125
1.6387498999999999,9.804255485534668,-56.246978759765625,-3.7158010005950928,472.83935546875,-8.880615234375,72.08251953125
1.6412499,10.158597946166992,-52.61497497558594,-5.592854976654053,499.9847412109375,-2.9754638671875,79.0252685546875
1.6437499,10.759542465209961,-48.61905288696289,-7.60637903213501,499.9847412109375,4.669189453125,83.9080810546875
1.6462499,11.314997673034668,-44.192176818847656,-9.59596061706543,499.9847412109375,12.359619140625,86.700439453125
1.6487498999999999,11.57357120513916,-39.29842758178711,-11.496956825256348,499.9847412109375,18.5089111328125,87.2955322265625
1.6512499,11.374852180480957,-34.04554748535156,-13.285425186157227,499.9847412109375,21.514892578125,86.3494873046875
1.6537499,10.769119262695312,-28.74717903137207,-14.94221305847168,499.9847412109375,22.186279296875,84.6405029296875
1.6562499,9.945513725280762,-23.74569320678711,-16.46971321105957,499.9847412109375,20.843505859375,82.2296142578125
1.6587498999999999,9.126696586608887,-19.337966918945312,-17.757793426513672,499.9847412109375,18.5546875,78.8421630859375
1.6612499,8.487444877624512,-15.612588882446289,-18.691532135009766,499.9847412109375,15.9759521484375,75.3021240234375
1.6637499,8.094796180725098,-12.39957046508789,-19.14643096923828,499.9847412109375,13.916015625,71.746826171875
1.6662499,7.9176249504089355,-9.363722801208496,-19.08418083190918,499.9847412109375,12.0697021484375,67.1844482421875
1.6687499,7.886500358581543,-6.19379997253418,-18.507179260253906,499.9847412109375,10.5743408203125,61.5692138671875
1.6712498999999998,7.888894557952881,-2.695871114730835,-17.44175910949707,499.9847412109375,9.796142578125,54.443359375
1.6737499,7.836222171783447,1.1252747774124146,-15.911864280700684,499.9847412109375,7.7362060546875,46.2799072265625
1.6762499,7.675810813903809,5.1331682205200195,-13.91270637512207,499.9847412109375,4.2724609375,36.9110107421875
1.6787499,7.240066051483154,9.332598686218262,-11.563994407653809,499.9847412109375,0.18310546875,26.458740234375
1.6812498999999999,7.194576263427734,12.971784591674805,-8.96389102935791,499.9847412109375,-5.859375,15.228271484375
1.6837499,7.254431247711182,16.419435501098633,-6.375759124755859,499.9847412109375,-3.1280517578125,8.5296630859375
1.6862499,7.568071365356445,19.522319793701172,-3.7900211811065674,499.9847412109375,3.4027099609375,-4.2572021484375
1.6887499,7.785943984985352,22.364238739013672,-1.4772224426269531,499.9847412109375,6.7901611328125,-17.333984375
1.6912498999999999,7.8960771560668945,25.02419662475586,0.5674257874488831,499.9847412109375,4.486083984375,-25.81787109375
1.6937499,7.726089000701904,27.195737838745117,2.1045033931732178,499.9847412109375,6.256103515625,-28.961181640625
1.6962499,7.539340972900391,28.706478118896484,3.2178070545196533,499.9847412109375,10.6201171875,-30.487060546875
1.6987499,7.105990409851074,29.84132957458496,3.7876269817352295,492.7825927734375,11.749267578125,-31.9366455078125
1.7012498999999999,6.325480937957764,31.184476852416992,3.9432501792907715,401.5045166015625,7.1258544921875,-35.919189453125
1.7037499,5.434837818145752,32.66170120239258,3.7038300037384033,298.8128662109375,-0.1373291015625,-38.421630859375
1.7062499,4.742913722991943,34.08625030517578,3.31118106842041,192.901611328125,-3.35693359375,-34.4390869140625
1.7087499,4.458003520965576,35.0870246887207,2.8850131034851074,97.564697265625,-3.5552978515625,-29.4342041015625
1.7112498999999999,4.4939165115356445,35.50840377807617,2.58813214302063,5.035400390625,-5.0811767578125,-26.0009765625
1.7137499,4.637568473815918,35.54671096801758,2.3965959548950195,-93.0328369140625,-9.6282958984375,-24.4140625
1.7162499,4.726154327392578,35.42939758300781,2.123656988143921,-191.650390625,-14.09912109375,-22.88818359375
1.7187499,4.752490520477295,35.22349548339844,1.6496049165725708,-283.9202880859375,-16.41845703125,-20.7977294921875
1.7212498999999999,4.611232280731201,34.2562370300293,-0.07661445438861847,-462.0208740234375,-23.2696533203125,-18.6004638671875
1.7237499,4.611232280731201,34.2562370300293,-0.07661445438861847,-462.0208740234375,-23.2696533203125,-18.6004638671875
1.7262499,4.216189384460449,31.991323471069336,-2.6791117191314697,-500,-32.1044921875,-19.6075439453125
1.7287499,4.216189384460449,31.991323471069336,-2.6791117191314697,-500,-32.1044921875,-19.6075439453125
1.7312499,4.261679172515869,27.698518753051758,-5.762843608856201,-500,-37.4908447265625,-22.76611328125
1.7337498999999998,4.261679172515869,27.698518753051758,-5.762843608856201,-500,-37.4908447265625,-22.76611328125
1.7362499,5.303156852722168,22.069751739501953,-9.332598686218262,-500,-34.942626953125,-31.0211181640625
1.7387499,5.303156852722168,22.069751739501953,-9.332598686218262,-500,-34.942626953125,-31.0211181640625
1.7412499,6.775590896606445,15.655684471130371,-12.828132629394531,-500,-22.0489501953125,-44.8455810546875
1.7437498999999999,6.775590896606445,15.655684471130371,-12.828132629394531,-500,-22.0489501953125,-44.8455810546875
1.7462499,7.175422668457031,8.243236541748047,-14.798561096191406,-500,-22.64404296875,-57.4188232421875
1.7487499,7.175422668457031,8.243236541748047,-14.798561096191406,-500,-22.64404296875,-57.4188232421875
1.7512499,6.950367450714111,0.768538773059845,-15.425841331481934,-500,-28.50341796875,-66.680908203125
1.7537498999999999,6.950367450714111,0.768538773059845,-15.425841331481934,-500,-28.50341796875,-66.680908203125
1.7562499,7.187393665313721,-5.789179801940918,-15.804125785827637,-500,-37.689208984375,-76.66015625
1.7587499,7.187393665313721,-5.789179801940918,-15.804125785827637,-500,-37.689208984375,-76.66015625
1.7612499,8.015787124633789,-11.726799964904785,-16.4074649810791,-500,-45.013427734375,-85.540771484375
1.7637498999999999,8.015787124633789,-11.726799964904785,-16.4074649810791,-500,-45.013427734375,-85.540771484375
1.7662499,9.624691009521484,-18.71068572998047,-17.053897857666016,-500,-40.8477783203125,-89.4317626953125
1.7687499,9.624691009521484,-18.71068572998047,-17.053897857666016,-500,-40.8477783203125,-89.4317626953125
1.7712499,11.05402946472168,-28.86928367614746,-16.376338958740234,-500,-35.4156494140625,-84.3048095703125
1.7737498999999999,11.05402946472168,-28.86928367614746,-16.376338958740234,-500,-35.4156494140625,-84.3048095703125
1.7762499,11.281478881835938,-41.42208480834961,-13.441048622131348,-500,-36.3311767578125,-67.56591796875
1.7787499,11.281478881835938,-41.42208480834961,-13.441048622131348,-500,-36.3311767578125,-67.56591796875
1.7812499,10.647014617919922,-52.08106994628906,-9.02135181427002,-461.1358642578125,-37.1551513671875,-41.93115234375
1.7837498999999999,10.647014617919922,-52.08106994628906,-9.02135181427002,-461.1358642578125,-37.1551513671875,-41.93115234375
1.7862499,9.96945571899414,-57.08974075317383,-4.517858505249023,-264.0838623046875,-36.041259765625,-15.7470703125
1.7887499,9.96945571899414,-57.08974075317383,-4.517858505249023,-264.0838623046875,-36.041259765625,-15.7470703125
1.7912499,9.421183586120605,-56.17515563964844,-1.3215993642807007,-66.71142578125,-32.1197509765625,6.0577392578125
1.7937499,9.421183586120605,-56.17515563964844,-1.3215993642807007,-66.71142578125,-32.1197509765625,6.0577392578125
1.7962498999999998,8.798690795898438,-51.44660568237305,-0.3256114423274994,114.105224609375,-29.205322265625,26.2603759765625
1.7987499,8.798690795898438,-51.44660568237305,-0.3256114423274994,114.105224609375,-29.205322265625,26.2603759765625
1.8012499,8.635885238647461,-45.394065856933594,-1.2545616626739502,280.6243896484375,-24.0936279296875,42.8466796875
1.8037499,8.635885238647461,-45.394065856933594,-1.2545616626739502,280.6243896484375,-24.0936279296875,42.8466796875
1.8062498999999999,9.196128845214844,-39.329551696777344,-3.141192674636841,427.9632568359375,-13.00048828125,53.2073974609375
1.8087499,9.196128845214844,-39.329551696777344,-3.141192674636841,427.9632568359375,-13.00048828125,53.2073974609375
1.8112499,9.516951560974121,-33.0304069519043,-5.142745018005371,499.9847412109375,-4.608154296875,57.43408203125
1.8137499,9.516951560974121,-33.0304069519043,-5.142745018005371,499.9847412109375,-4.608154296875,57.43408203125
1.8162498999999999,8.975862503051758,-26.12552833557129,-7.048529624938965,499.9847412109375,-0.640869140625,56.0760498046875
1.8187499,8.975862503051758,-26.12552833557129,-7.048529624938965,499.9847412109375,-0.640869140625,56.0760498046875
1.8212499,8.157045364379883,-19.476831436157227,-8.913613319396973,499.9847412109375,0.213623046875,52.6275634765625
1.8237499,8.157045364379883,-19.476831436157227,-8.913613319396973,499.9847412109375,0.213623046875,52.6275634765625
1.8262498999999999,7.841010570526123,-14.24071216583252,-10.491392135620117,499.9847412109375,0.9613037109375,46.9512939453125
1.8287499,7.841010570526123,-14.24071216583252,-10.491392135620117,499.9847412109375,0.9613037109375,46.9512939453125
1.8312499,8.090007781982422,-10.287884712219238,-11.36048698425293,499.9847412109375,3.5552978515625,40.1458740234375
1.8337499,8.26478385925293,-8.508993148803711,-11.446678161621094,499.9847412109375,5.1727294921875,36.041259765625
1.8362498999999999,8.379706382751465,-6.730101108551025,-11.279084205627441,499.9847412109375,6.6375732421875,31.646728515625
1.8387499,8.367734909057617,-4.908113479614258,-10.884040832519531,499.9847412109375,7.6751708984375,27.4200439453125
1.8412499,8.221688270568848,-3.026270866394043,-10.278307914733887,499.9847412109375,8.056640625,22.857666015625
1.8437499,7.965508937835693,-1.1037269830703735,-9.485827445983887,499.9847412109375,8.11767578125,18.00537109375
1.8462498999999999,7.532158374786377,0.8475474119186401,-8.513781547546387,499.9847412109375,7.4005126953125,12.8936767578125
1.8487499,7.048529624938965,2.7892448902130127,-7.376535415649414,499.9847412109375,4.9591064453125,5.79833984375
1.8512499,6.809109687805176,4.41969633102417,-6.169857978820801,499.9847412109375,1.1138916015625,0.7171630859375
1.8537499,6.648698329925537,6.246472358703613,-4.924872875213623,499.9847412109375,1.922607421875,-4.8370361328125
1.8562499,6.691793918609619,7.953537940979004,-3.7014358043670654,499.9847412109375,3.96728515625,-14.9993896484375
1.8587498999999998,6.744466304779053,9.655815124511719,-2.564189910888672,499.9847412109375,3.1280517578125,-22.3388671875
1.8612499,6.7277069091796875,11.192893028259277,-1.4317326545715332,499.9847412109375,-0.06103515625,-27.496337890625
1.8637499,6.677428722381592,12.342109680175781,-0.3998316824436188,499.9847412109375,-0.30517578125,-32.3638916015625
1.8662499,6.648698329925537,13.235146522521973,0.5530605912208557,499.9847412109375,1.89208984375,-37.567138671875
1.8687498999999999,6.742072105407715,13.958195686340332,1.3838485479354858,499.9847412109375,2.4261474609375,-43.45703125
1.8712499,6.897695064544678,14.61420726776123,2.0590133666992188,470.1080322265625,4.058837890625,-46.112060546875
1.8737499,7.084442615509033,15.152902603149414,2.6575639247894287,427.5665283203125,6.7138671875,-47.393798828125
1.8762499,7.223306655883789,15.550339698791504,3.201047658920288,383.544921875,8.2855224609375,-49.591064453125
1.8787498999999999,7.117961883544922,15.923835754394531,3.713406801223755,333.19091796875,7.110595703125,-51.7120361328125
1.8812499,6.732495307922363,16.393098831176758,4.180276393890381,276.85546875,2.9754638671875,-53.3447265625
1.8837499,6.172252178192139,16.936582565307617,4.565742492675781,219.1925048828125,-3.0975341796875,-54.74853515625
1.8862499,5.626373767852783,17.405845642089844,4.843470096588135,161.4990234375,-9.002685546875,-55.267333984375
1.8887498999999999,5.252878665924072,17.6332950592041,5.04218864440918,105.16357421875,-14.8162841796875,-54.595947265625
1.8912499,5.152322292327881,17.49443244934082,5.178658485412598,51.6510009765625,-20.263671875,-53.1005859375
1.8937499,5.305551052093506,17.003620147705078,5.274426460266113,0.3204345703125,-24.8870849609375,-51.422119140625
1.8962499,5.652710437774658,16.22311019897461,5.372588634490967,-49.7589111328125,-28.106689453125,-49.4232177734375
1.8987498999999999,6.110002517700195,15.306131362915039,5.468356609344482,-97.3052978515625,-30.6854248046875,-47.393798828125
1.9012499,6.560112476348877,14.403517723083496,5.537788391113281,-142.2576904296875,-32.928466796875,-45.41015625
1.9037499,6.931213855743408,13.623007774353027,5.518634796142578,-185.302734375,-34.9273681640625,-43.670654296875
1.9062499,7.180211067199707,13.017274856567383,5.315127849578857,-228.4698486328125,-36.529541015625,-42.05322265625
1.9087498999999999,7.304709434509277,12.538434028625488,4.876988887786865,-270.8892822265625,-38.3453369140625,-40.924072265625
1.9112499,7.331045627593994,12.030863761901855,4.218583583831787,-311.614990234375,-39.6270751953125,-40.34423828125
1.9137499,7.275979042053223,11.317391395568848,3.426102638244629,-348.8006591796875,-40.83251953125,-40.0238037109375
1.9162499,7.180211067199707,10.302249908447266,2.5785553455352783,-381.0577392578125,-42.083740234375,-39.886474609375
1.9187499,7.072471618652344,8.975862503051758,1.7764976024627686,-408.966064453125,-43.5028076171875,-38.9862060546875
1.9212498999999998,7.01979923248291,7.469909191131592,1.094150185585022,-432.647705078125,-44.98291015625,-38.8336181640625
1.9237499,6.998251438140869,5.889736175537109,0.5027823448181152,-453.5675048828125,-45.867919921875,-38.4979248046875
1.9262499,7.043741226196289,4.3861775398254395,0.035913024097681046,-471.49658203125,-47.2412109375,-38.238525390625
1.9287499,7.139509677886963,2.9712042808532715,-0.35913026332855225,-486.480712890625,-48.7213134765625,-38.421630859375
1.9312498999999999,7.275979042053223,1.644816517829895,-0.6823474764823914,-499.45068359375,-50.1708984375,-39.1387939453125
1.9337499,7.4555439949035645,0.363918662071228,-0.9217676520347595,-500,-51.1322021484375,-39.9322509765625
1.9362499,7.632715225219727,-0.9145850539207458,-1.0821791887283325,-500,-52.3223876953125,-40.496826171875
1.9387499,7.773972988128662,-2.209848165512085,-1.158793568611145,-500,-54.412841796875,-40.924072265625
1.9412498999999999,7.860164165496826,-3.529053211212158,-1.1851298809051514,-500,-56.7626953125,-41.2445068359375
1.9437499,7.931990146636963,-4.8482584953308105,-1.1851298809051514,-500,-58.8836669921875,-41.656494140625
1.9462499,8.032546997070312,-6.157886981964111,-1.2090718746185303,-500,-60.302734375,-41.9769287109375
1.9487499,8.20732307434082,-7.4316020011901855,-1.2713210582733154,-498.59619140625,-60.72998046875,-42.1295166015625
1.9512498999999999,8.439560890197754,-8.655038833618164,-1.3694833517074585,-487.2894287109375,-60.272216796875,-42.6025390625
1.9537499,8.686163902282715,-9.883264541625977,-1.4724340438842773,-474.212646484375,-59.14306640625,-43.121337890625
1.9562499,8.920795440673828,-11.168951034545898,-1.5514427423477173,-458.1298828125,-57.9681396484375,-42.938232421875
1.9587499,9.090784072875977,-12.571952819824219,-1.5682021379470825,-437.7593994140625,-56.5643310546875,-42.816162109375
1.9612498999999999,9.222464561462402,-14.087482452392578,-1.5059528350830078,-413.57421875,-55.5419921875,-42.572021484375
1.9637499,9.29189682006836,-15.672444343566895,-1.3407529592514038,-386.322021484375,-54.5501708984375,-41.6107177734375
1.9662499,9.315838813781738,-17.235858917236328,-1.0773907899856567,-356.536865234375,-53.1463623046875,-40.4815673828125
1.9687499,9.29189682006836,-18.701108932495117,-0.7015010714530945,-323.9288330078125,-51.81884765625,-38.909912109375
1.9712498999999999,9.222464561462402,-19.99397850036621,-0.24660277366638184,-288.9862060546875,-50.9490966796875,-37.1856689453125
1.9737499,9.141061782836914,-21.066579818725586,0.2561795711517334,-252.13623046875,-49.6826171875,-35.46142578125
1.9762499,9.05487060546875,-21.8806095123291,0.7565677165985107,-214.0350341796875,-48.370361328125,-33.50830078125
1.9787499,8.99740982055664,-22.443246841430664,1.1994950771331787,-175.384521484375,-46.9818115234375,-31.3873291015625
1.9812499,8.937555313110352,-22.771251678466797,1.5442601442337036,-136.7340087890625,-45.501708984375,-29.11376953125
1.9837499,8.935160636901855,-22.888568878173828,1.8100165128707886,-97.503662109375,-44.342041015625,-26.885986328125
1.9862499,8.951920509338379,-22.835895538330078,1.9800047874450684,-58.4259033203125,-42.29736328125,-24.47509765625
1.9887499,9.006986618041992,-22.625205993652344,2.097320795059204,-21.6827392578125,-40.34423828125,-22.0184326171875
1.9912499,9.062053680419922,-22.263681411743164,2.1739351749420166,14.6026611328125,-38.3453369140625,-19.7601318359375
1.9937498999999999,9.066842079162598,-21.770475387573242,2.190694570541382,49.8046875,-36.8194580078125,-17.7764892578125
1.9962499,9.011775016784668,-21.164743423461914,2.1547815799713135,83.3587646484375,-36.0870361328125,-15.625
1.9987499,8.93037223815918,-20.446481704711914,2.0374655723571777,115.7989501953125,-35.308837890625,-14.0380859375
2.0012499,8.856152534484863,-19.651607513427734,1.8387469053268433,146.1944580078125,-33.843994140625,-12.3291015625
2.0037499,8.832210540771484,-18.7849063873291,1.5682021379470825,174.6826171875,-31.67724609375,-10.6658935546875
2.0062499,8.846575736999512,-17.86553382873535,1.2545616626739502,201.9195556640625,-29.327392578125,-9.4451904296875
2.0087498999999998,8.863334655761719,-16.89827537536621,0.9193734526634216,226.837158203125,-26.885986328125,-8.575439453125
2.0112499,8.858546257019043,-15.885528564453125,0.586579442024231,249.2828369140625,-24.7344970703125,-7.659912109375
2.0137499,8.810662269592285,-14.834473609924316,0.26096799969673157,269.3634033203125,-23.1781005859375,-6.988525390625
2.0162499,8.724471092224121,-13.764266014099121,-0.043095629662275314,287.0635986328125,-22.0489501953125,-6.77490234375
2.0187499,8.616731643676758,-12.703634262084961,-0.3256114423274994,302.6580810546875,-21.0113525390625,-6.5460205078125
2.0212499,8.516175270080566,-11.674127578735352,-0.5770025849342346,316.0552978515625,-20.56884765625,-6.3934326171875
2.0237499,8.429984092712402,-10.69489860534668,-0.7805097699165344,327.4688720703125,-20.3857421875,-6.28662109375
2.0262499,8.38449478149414,-9.763554573059082,-0.9265560507774353,336.395263671875,-19.9127197265625,-6.1798095703125
2.0287498999999998,8.377311706542969,-8.875306129455566,-1.0031704902648926,343.597412109375,-19.0887451171875,-6.34765625
2.0312499,8.398859977722168,-8.022970199584961,-0.9959878921508789,349.0753173828125,-18.402099609375,-6.3934326171875
2.0337499,8.425195693969727,-7.196970462799072,-0.9169792532920837,352.1575927734375,-18.2037353515625,-6.5765380859375
2.0362499,8.446743965148926,-6.387730121612549,-0.7733271718025208,353.5308837890625,-17.63916015625,-7.0953369140625
2.0387499,8.446743965148926,-5.5976433753967285,-0.5817909836769104,353.607177734375,-17.3187255859375,-7.32421875
2.0412499,8.432378768920898,-4.819528102874756,-0.36152446269989014,351.9134521484375,-16.9830322265625,-7.5225830078125
2.0437499,8.415618896484375,-4.065354347229004,-0.1149216815829277,348.2513427734375,-16.6015625,-8.1024169921875
2.0462499,8.401253700256348,-3.3423056602478027,0.15083470940589905,343.0938720703125,-16.021728515625,-8.9111328125
2.0487499,8.382100105285645,-2.647987127304077,0.43095630407333374,337.0208740234375,-15.533447265625,-9.6435546875
2.0512498999999997,8.348581314086914,-1.9943699836730957,0.727837324142456,329.28466796875,-15.2740478515625,-10.68115234375
2.0537499,8.293514251708984,-1.3670891523361206,1.0319008827209473,320.8770751953125,-15.2435302734375,-11.383056640625
2.0562499,8.200140953063965,-0.768538773059845,1.3335703611373901,311.187744140625,-14.9993896484375,-12.2222900390625
2.0587499,8.109161376953125,-0.181959331035614,1.623268723487854,300.018310546875,-15.625,-13.12255859375
2.0612499,8.022970199584961,0.3758896589279175,1.886630892753601,287.2467041015625,-16.387939453125,-14.251708984375
2.0637499,7.987056732177734,0.9002198576927185,2.1164743900299072,274.4293212890625,-16.4642333984375,-14.8773193359375
2.0662499,7.960720539093018,1.4748282432556152,2.3032219409942627,260.43701171875,-16.7236328125,-16.2353515625
2.0687499,7.943961143493652,2.0231003761291504,2.451662540435791,243.2098388671875,-17.333984375,-18.096923828125
2.0712498999999998,7.936778545379639,2.537853717803955,2.580949544906616,224.8687744140625,-18.402099609375,-18.8446044921875
2.0737499,7.922413349151611,2.9472622871398926,2.691082715988159,207.82470703125,-19.1650390625,-19.500732421875
2.0762499,7.922413349151611,3.2082302570343018,2.8107926845550537,191.3604736328125,-19.805908203125,-20.111083984375
2.0787499,7.931990146636963,3.3662476539611816,2.940079689025879,173.2635498046875,-20.4925537109375,-20.751953125
2.0812499,7.924807548522949,3.488351821899414,3.069366693496704,154.022216796875,-21.514892578125,-21.209716796875
2.0837499,7.891288757324219,3.6080620288848877,3.1962592601776123,134.3536376953125,-22.7508544921875,-21.453857421875
2.0862499,7.85537576675415,3.711012601852417,3.292027235031128,114.44091796875,-24.0325927734375,-21.728515625
2.0887499,7.82185697555542,3.7900211811065674,3.335123062133789,94.451904296875,-25.115966796875,-21.7742919921875
2.0912498999999998,7.8098859786987305,3.8091750144958496,3.3279404640197754,74.3408203125,-26.1077880859375,-21.3165283203125
2.0937499,7.833827972412109,3.7636849880218506,3.265691041946411,54.5196533203125,-26.8096923828125,-20.7977294921875
2.0962499,7.886500358581543,3.646369218826294,3.1675288677215576,35.064697265625,-27.618408203125,-19.95849609375
2.0987499,7.965508937835693,3.4524388313293457,3.043030261993408,16.29638671875,-28.38134765625,-19.439697265625
2.1012499,8.056488990783691,3.1866824626922607,2.9161376953125,-2.105712890625,-28.7322998046875,-18.5394287109375
2.1037499,8.133103370666504,2.8658595085144043,2.7916390895843506,-19.8974609375,-28.86962890625,-17.669677734375
2.1062499,8.176198959350586,2.5091233253479004,2.691082715988159,-36.895751953125,-29.022216796875,-16.815185546875
2.1087499,8.169015884399414,2.1308395862579346,2.609679937362671,-53.131103515625,-29.327392578125,-15.93017578125
2.1112499,8.1139497756958,1.742978811264038,2.5474305152893066,-68.4356689453125,-29.541015625,-14.8773193359375
2.1137498999999997,8.034940719604492,1.3527239561080933,2.499546527862549,-82.8399658203125,-29.96826171875,-13.5345458984375
2.1162499,7.95832633972168,0.9457096457481384,2.4612393379211426,-96.1151123046875,-30.0445556640625,-12.451171875
2.1187499,7.898471355438232,0.5363011956214905,2.425326347351074,-108.6578369140625,-30.3955078125,-11.260986328125
2.1212499,7.8745293617248535,0.11013327538967133,2.3798365592956543,-119.9798583984375,-30.1666259765625,-10.162353515625
2.1237499,7.872135162353516,-0.3064578175544739,2.31758713722229,-130.035400390625,-30.1513671875,-9.2010498046875
2.1262499,7.893682956695557,-0.7134721279144287,2.229001760482788,-139.2974853515625,-29.72412109375,-8.36181640625
2.1287499,7.948749542236328,-1.1276689767837524,2.1164743900299072,-148.040771484375,-29.3731689453125,-7.7056884765625
2.1312499,8.042123794555664,-1.5514427423477173,1.9823989868164062,-155.76171875,-28.6712646484375,-7.0037841796875
2.1337498999999998,8.169015884399414,-2.013523578643799,1.8339585065841675,-161.6058349609375,-27.984619140625,-6.0272216796875
2.1362499,8.317456245422363,-2.518700122833252,1.6974890232086182,-165.557861328125,-26.885986328125,-5.6304931640625
2.1387499,8.439560890197754,-3.0550012588500977,1.5921441316604614,-167.877197265625,-25.4669189453125,-5.18798828125
2.1412499,8.482656478881836,-3.579331636428833,1.5610195398330688,-169.189453125,-23.98681640625,-4.852294921875
2.1437499,8.456320762634277,-4.0749311447143555,1.6160861253738403,-168.9605712890625,-23.0712890625,-4.4403076171875
2.1462499,8.358158111572266,-4.486733913421631,1.7597382068634033,-167.5262451171875,-22.491455078125,-4.4403076171875
2.1487499,8.238448143005371,-4.800374507904053,1.9608511924743652,-164.9932861328125,-22.1405029296875,-4.69970703125
2.1512499,8.128314971923828,-5.020640850067139,2.190694570541382,-161.834716796875,-21.7437744140625,-5.3558349609375
2.1537498999999998,8.066065788269043,-5.2049946784973145,2.3918075561523438,-157.9742431640625,-21.17919921875,-6.622314453125
2.1562499,8.022970199584961,-5.434837818145752,2.5522189140319824,-152.5115966796875,-20.782470703125,-8.8348388671875
2.1587499,8.032546997070312,-5.822698593139648,2.669534921646118,-145.660400390625,-20.599365234375,-10.955810546875
2.1612499,8.051700592041016,-6.414066314697266,2.734178304672241,-136.4593505859375,-20.6451416015625,-12.02392578125
2.1637499,8.075642585754395,-7.184999465942383,2.7748796939849854,-124.9847412109375,-20.599365234375,-12.786865234375
2.1662499,8.099584579467773,-8.027758598327637,2.8179752826690674,-112.030029296875,-20.6146240234375,-13.1072998046875
2.1687499,8.11634349822998,-8.832210540771484,2.873042106628418,-98.907470703125,-20.81298828125,-13.092041015625
2.1712499,8.149862289428711,-9.514557838439941,2.9664158821105957,-86.12060546875,-21.270751953125,-13.1072998046875
2.1737499,8.219294548034668,-10.050858497619629,3.0813376903533936,-73.516845703125,-20.904541015625,-13.1072998046875
2.1762499,8.334216117858887,-10.462661743164062,3.1890766620635986,-60.9130859375,-20.32470703125,-12.6190185546875
2.1787499,8.482656478881836,-10.769119262695312,3.2585084438323975,-47.637939453125,-19.0277099609375,-12.0086669921875
2.1812499,8.633491516113281,-10.99656867980957,3.270479440689087,-34.4390869140625,-17.4407958984375,-11.138916015625
2.1837499,8.760383605957031,-11.128249168395996,3.2106244564056396,-21.1944580078125,-16.3726806640625,-9.7503662109375
2.1862499,8.829815864562988,-11.15697956085205,3.0765492916107178,-8.0108642578125,-14.9383544921875,-8.636474609375
2.1887499,8.832210540771484,-11.068394660949707,2.873042106628418,4.1656494140625,-13.458251953125,-7.4615478515625
2.1912499,8.755595207214355,-10.857705116271973,2.6240451335906982,15.3656005859375,-12.3138427734375,-6.5765380859375
2.1937499,8.607154846191406,-10.532093048095703,2.360682964324951,26.0162353515625,-11.5509033203125,-5.4779052734375
2.1962498999999998,8.422801971435547,-10.101137161254883,2.1140801906585693,35.64453125,-11.3372802734375,-4.8065185546875
2.1987499,8.248024940490723,-9.581595420837402,1.9153614044189453,43.9605712890625,-11.2762451171875,-3.997802734375
2.2012499,8.125920295715332,-8.995016098022461,1.7549498081207275,51.1474609375,-10.955810546875,-3.35693359375
2.2037499,8.085219383239746,-8.38688850402832,1.6352397203445435,57.4493408203125,-10.3912353515625,-2.716064453125
2.2062499,8.130708694458008,-7.805097579956055,1.5514427423477173,63.018798828125,-9.613037109375,-2.227783203125
2.2087499,8.2312650680542,-7.287950038909912,1.4891934394836426,68.023681640625,-8.1787109375,-1.8463134765625
2.2112499,8.35336971282959,-6.833051681518555,1.4532804489135742,72.4639892578125,-6.8817138671875,-1.8463134765625
2.2137499,8.451532363891602,-6.445190906524658,1.4389152526855469,75.68359375,-5.9967041015625,-1.8310546875
2.2162498999999998,8.508993148803711,-6.102819919586182,1.4317326545715332,77.9876708984375,-5.0811767578125,-1.7242431640625
2.2187499,8.523358345031738,-5.810727596282959,1.4293384552001953,79.6966552734375,-4.4097900390625,-1.739501953125
2.2212499,8.494627952575684,-5.568912982940674,1.4389152526855469,81.23779296875,-3.35693359375,-1.5106201171875
2.2237499,8.434772491455078,-5.360617637634277,1.4652514457702637,81.878662109375,-2.4566650390625,-1.373291015625
2.2262499,8.341399192810059,-5.161899089813232,1.5059528350830078,81.817626953125,-1.46484375,-1.0528564453125
2.2287499,8.245630264282227,-4.941632270812988,1.558625340461731,81.085205078125,-1.1749267578125,-0.7171630859375
2.2312499,8.152256965637207,-4.687847137451172,1.6160861253738403,79.7119140625,-0.701904296875,-0.54931640625
2.2337499,8.092401504516602,-4.400542736053467,1.678335428237915,77.606201171875,-0.1983642578125,-0.30517578125
2.2362499,8.04691219329834,-4.079719543457031,1.764526605606079,75.3326416015625,-0.091552734375,-0.06103515625
2.2387499,8.015787124633789,-3.7445313930511475,1.8794482946395874,71.929931640625,0.030517578125,0.18310546875
2.2412499,7.994239330291748,-3.397372245788574,2.011129379272461,67.962646484375,0.152587890625,0.4119873046875
2.2437499,7.967903137207031,-3.047818660736084,2.140416383743286,63.90380859375,0.335693359375,0.152587890625
2.2462499,7.960720539093018,-2.7102363109588623,2.2673089504241943,59.1888427734375,0.30517578125,-0.2288818359375
2.2487499,7.951143741607666,-2.38462495803833,2.38462495803833,54.046630859375,0.5035400390625,-0.5645751953125
2.2512499,7.965508937835693,-2.0829553604125977,2.5067291259765625,48.583984375,0.213623046875,-0.6256103515625
2.2537499,7.994239330291748,-1.802833914756775,2.63362193107605,42.938232421875,0.3204345703125,-1.0528564453125
2.2562499,8.054094314575195,-1.5538369417190552,2.7485435009002686,36.62109375,0.7171630859375,-1.6632080078125
2.2587498999999998,8.130708694458008,-1.3670891523361206,2.8395233154296875,30.029296875,1.3275146484375,-1.9683837890625
2.2612499,8.178592681884766,-1.2761094570159912,2.894589900970459,23.2696533203125,2.2430419921875,-2.8076171875
2.2637499,8.166622161865234,-1.2880805730819702,2.9328970909118652,16.7999267578125,2.716064453125,-3.11279296875
2.2662499,8.094796180725098,-1.414973258972168,2.959233283996582,10.5743408203125,2.25830078125,-3.3111572265625
2.2687499,7.975085735321045,-1.625662922859192,2.980781078338623,4.8370361328125,1.434326171875,-3.4637451171875
2.2712499,7.862558364868164,-1.8746598958969116,2.9951462745666504,-0.8697509765625,1.2054443359375,-3.47900390625
2.2737499,7.790732383728027,-2.1547815799713135,3.002328872680664,-5.8135986328125,0.9002685546875,-3.4027099609375
2.2762499,7.766790390014648,-2.4444799423217773,2.999934673309326,-10.6048583984375,0.732421875,-3.1280517578125
2.2787498999999998,7.781155586242676,-2.7269957065582275,2.9951462745666504,-14.5416259765625,0.5340576171875,-2.899169921875
2.2812499,7.833827972412109,-2.9759926795959473,2.9664158821105957,-18.0511474609375,0.3814697265625,-2.716064453125
2.2837499,7.8960771560668945,-3.2106244564056396,2.9257144927978516,-21.514892578125,0.79345703125,-2.349853515625
2.2862499,7.936778545379639,-3.423708438873291,2.846705913543701,-24.505615234375,1.220703125,-2.716064453125
2.2887499,7.9415669441223145,-3.6511576175689697,2.7700912952423096,-26.1077880859375,1.46484375,-3.0517578125
2.2912499,7.898471355438232,-3.907337188720703,2.7030537128448486,-27.130126953125,0.8392333984375,-3.021240234375
2.2937499,7.836222171783447,-4.165910720825195,2.6575639247894287,-27.77099609375,0.335693359375,-3.11279296875
2.2962499,7.750030994415283,-4.606443881988525,2.612074136734009,-29.266357421875,-0.2899169921875,-2.838134765625
2.2987499,7.750030994415283,-4.606443881988525,2.612074136734009,-29.266357421875,-0.2899169921875,-2.838134765625
2.3012499,7.783549785614014,-4.900930881500244,2.580949544906616,-29.998779296875,-0.0762939453125,-2.9144287109375
2.3037499,7.783549785614014,-4.900930881500244,2.580949544906616,-29.998779296875,-0.0762939453125,-2.9144287109375
2.3062499,7.898471355438232,-5.106832027435303,2.5737667083740234,-30.242919921875,-0.18310546875,-2.7618408203125
2.3087499,7.898471355438232,-5.106832027435303,2.5737667083740234,-30.242919921875,-0.18310546875,-2.7618408203125
2.3112499,8.018181800842285,-5.281609058380127,2.609679937362671,-28.99169921875,-0.0457763671875,-3.204345703125
2.3137499,8.018181800842285,-5.281609058380127,2.609679937362671,-28.99169921875,-0.0457763671875,-3.204345703125
2.3162499,8.106766700744629,-5.439626216888428,2.669534921646118,-27.740478515625,-0.152587890625,-2.960205078125
2.3187499,8.106766700744629,-5.439626216888428,2.669534921646118,-27.740478515625,-0.152587890625,-2.960205078125
2.3212498999999998,8.159439086914062,-5.547365188598633,2.719813108444214,-25.970458984375,0,-3.2501220703125
2.3237499,8.159439086914062,-5.547365188598633,2.719813108444214,-25.970458984375,0,-3.2501220703125
2.3262499,8.157045364379883,-5.583278179168701,2.8179752826690674,-24.0478515625,-0.2899169921875,-3.5400390625
2.3287499,8.157045364379883,-5.583278179168701,2.8179752826690674,-24.0478515625,-0.2899169921875,-3.5400390625
2.3312499,8.135497093200684,-5.504269599914551,2.9879636764526367,-22.613525390625,-0.4730224609375,-4.180908203125
2.3337499,8.135497093200684,-5.504269599914551,2.9879636764526367,-22.613525390625,-0.4730224609375,-4.180908203125
2.3362499,8.195352554321289,-5.336675643920898,3.1196448802948,-22.064208984375,-0.3509521484375,-4.6844482421875
2.3387499,8.195352554321289,-5.336675643920898,3.1196448802948,-22.064208984375,-0.3509521484375,-4.6844482421875
2.3412498999999998,8.315062522888184,-5.195417881011963,3.141192674636841,-21.0418701171875,0.274658203125,-5.55419921875
2.3437499,8.315062522888184,-5.195417881011963,3.141192674636841,-21.0418701171875,0.274658203125,-5.55419921875
2.3462499,8.355764389038086,-5.070919036865234,3.1076738834381104,-20.2178955078125,0.244140625,-6.5765380859375
2.3487499,8.355764389038086,-5.070919036865234,3.1076738834381104,-20.2178955078125,0.244140625,-6.5765380859375
2.3512499,8.35097599029541,-4.934449672698975,3.0358476638793945,-20.5535888671875,0.6561279296875,-7.4310302734375
2.3537499,8.35097599029541,-4.934449672698975,3.0358476638793945,-20.5535888671875,0.6561279296875,-7.4310302734375
2.3562499,8.339004516601562,-4.898536682128906,2.889801502227783,-20.538330078125,0.6866455078125,-8.819580078125
2.3587499,8.339004516601562,-4.898536682128906,2.889801502227783,-20.538330078125,0.6866455078125,-8.819580078125
2.3612499,8.288725852966309,-4.924872875213623,2.762908697128296,-19.6990966796875,0.2288818359375,-9.246826171875
2.3637499,8.288725852966309,-4.924872875213623,2.762908697128296,-19.6990966796875,0.2288818359375,-9.246826171875
2.3662499,8.305485725402832,-4.865017890930176,2.7054479122161865,-20.660400390625,0.4730224609375,-9.979248046875
2.3687499,8.305485725402832,-4.865017890930176,2.7054479122161865,-20.660400390625,0.4730224609375,-9.979248046875
2.3712499,8.391676902770996,-4.766855716705322,2.6431987285614014,-20.8740234375,0.91552734375,-10.162353515625
2.3737499,8.391676902770996,-4.766855716705322,2.6431987285614014,-20.8740234375,0.91552734375,-10.162353515625
2.3762499,8.446743965148926,-4.730942726135254,2.5689783096313477,-21.0418701171875,1.129150390625,-10.6658935546875
2.3787499,8.446743965148926,-4.730942726135254,2.5689783096313477,-21.0418701171875,1.129150390625,-10.6658935546875
2.3812499,8.434772491455078,-4.754884719848633,2.5498247146606445,-21.1181640625,0.762939453125,-9.7503662109375
2.3837498999999998,8.434772491455078,-4.754884719848633,2.5498247146606445,-21.1181640625,0.762939453125,-9.7503662109375
2.3862499,8.396465301513672,-4.745307922363281,2.5977089405059814,-21.6217041015625,0.1068115234375,-9.58251953125
2.3887499,8.396465301513672,-4.745307922363281,2.5977089405059814,-21.6217041015625,0.1068115234375,-9.58251953125
2.3912499,8.415618896484375,-4.661510944366455,2.6599581241607666,-22.4456787109375,-0.335693359375,-8.6669921875
2.3937499,8.415618896484375,-4.661510944366455,2.6599581241607666,-22.4456787109375,-0.335693359375,-8.6669921875
2.3962499,8.485051155090332,-4.546588897705078,2.7054479122161865,-23.6053466796875,-0.823974609375,-7.6904296875
2.3987499,8.485051155090332,-4.546588897705078,2.7054479122161865,-23.6053466796875,-0.823974609375,-7.6904296875
2.4012499,8.540117263793945,-4.424484729766846,2.738966703414917,-24.3988037109375,-1.5716552734375,-6.3629150390625
2.4037498999999998,8.540117263793945,-4.424484729766846,2.738966703414917,-24.3988037109375,-1.5716552734375,-6.3629150390625
2.4062499,8.528146743774414,-4.355052947998047,2.7509377002716064,-25.3143310546875,-1.4801025390625,-6.103515625
2.4087499,8.497021675109863,-4.321534156799316,2.7676970958709717,-24.993896484375,-1.7547607421875,-5.462646484375
2.4112499,8.461109161376953,-4.266467571258545,2.7940332889556885,-25.7110595703125,-2.1209716796875,-5.2337646484375
2.4137499,8.427590370178223,-4.20421838760376,2.829946517944336,-27.2064208984375,-2.44140625,-5.157470703125
2.4162499,8.406042098999023,-4.163516521453857,2.8634653091430664,-28.25927734375,-2.777099609375,-5.06591796875
2.4187499,8.394071578979492,-4.168305397033691,2.894589900970459,-28.9764404296875,-3.0059814453125,-5.1727294921875
2.4212499,8.372523307800293,-4.216189384460449,2.9161376953125,-29.2205810546875,-3.2806396484375,-4.6539306640625
2.4237499,8.360552787780762,-4.285621166229248,2.9281086921691895,-29.72412109375,-3.1585693359375,-4.5318603515625
2.4262499,8.341399192810059,-4.343081951141357,2.9281086921691895,-29.876708984375,-3.4332275390625,-4.8980712890625
2.4287499,8.334216117858887,-4.37420654296875,2.8993782997131348,-30.09033203125,-3.60107421875,-4.9896240234375
2.4312499,8.343792915344238,-4.37420654296875,2.849100112915039,-30.45654296875,-3.9520263671875,-4.791259765625
2.4337499,8.372523307800293,-4.357447147369385,2.7748796939849854,-31.25,-4.21142578125,-5.18798828125
2.4362499,8.401253700256348,-4.350264549255371,2.6862943172454834,-32.2723388671875,-4.45556640625,-5.4931640625
2.4387499,8.439560890197754,-4.395754337310791,2.5929205417633057,-32.745361328125,-4.6539306640625,-5.4931640625
2.4412499,8.44434928894043,-4.486733913421631,2.513911724090576,-32.318115234375,-5.1116943359375,-5.9356689453125
2.4437499,8.437167167663574,-4.613626480102539,2.4636335372924805,-31.92138671875,-5.645751953125,-5.8746337890625
2.4462498999999998,8.425195693969727,-4.742913722991943,2.4468741416931152,-31.8145751953125,-6.103515625,-5.9051513671875
2.4487499,8.418013572692871,-4.862623691558838,2.4660277366638184,-32.2113037109375,-6.591796875,-5.79833984375
2.4512499,8.432378768920898,-4.967968463897705,2.5115175247192383,-32.012939453125,-7.1563720703125,-5.92041015625
2.4537499,8.453926086425781,-5.0685248374938965,2.557007312774658,-31.5399169921875,-7.6446533203125,-5.5084228515625
2.4562499,8.501810073852539,-5.17626428604126,2.583343744277954,-30.6396484375,-7.7667236328125,-5.035400390625
2.4587499,8.530540466308594,-5.2696380615234375,2.5953147411346436,-29.5867919921875,-7.8125,-5.18798828125
2.4612499,8.556877136230469,-5.341464042663574,2.5905263423919678,-27.923583984375,-7.781982421875,-5.1727294921875
2.4637499,8.56884765625,-5.384559631347656,2.5785553455352783,-27.008056640625,-8.0718994140625,-4.5166015625
2.4662498999999998,8.571242332458496,-5.386953830718994,2.559401512145996,-26.4434814453125,-8.4381103515625,-3.936767578125
2.4687499,8.583212852478027,-5.360617637634277,2.52109432220459,-25.7568359375,-8.6669921875,-4.058837890625
2.4712499,8.59997272491455,-5.310339450836182,2.4612393379211426,-24.566650390625,-8.270263671875,-3.692626953125
2.4737499,8.611943244934082,-5.250484466552734,2.382230758666992,-23.345947265625,-8.1634521484375,-3.814697265625
2.4762499,8.607154846191406,-5.16429328918457,2.3104045391082764,-22.491455078125,-8.575439453125,-3.6773681640625
2.4787499,8.592789649963379,-5.054159641265869,2.248155355453491,-21.8963623046875,-8.8348388671875,-3.90625
2.4812499,8.573636054992676,-4.932055473327637,2.1978771686553955,-21.78955078125,-8.7738037109375,-4.0435791015625
2.4837499,8.564059257507324,-4.8051629066467285,2.1595699787139893,-21.8353271484375,-9.2010498046875,-3.6468505859375
2.4862499,8.56645393371582,-4.699818134307861,2.118868589401245,-21.9573974609375,-9.09423828125,-3.5858154296875
2.4887499,8.576030731201172,-4.618414878845215,2.0805611610412598,-22.216796875,-9.1705322265625,-3.5247802734375
2.4912499,8.5903959274292,-4.565742492675781,2.0207061767578125,-22.369384765625,-9.33837890625,-3.11279296875
2.4937499,8.59997272491455,-4.54419469833374,1.9536685943603516,-22.430419921875,-8.97216796875,-2.99072265625
2.4962499,8.60236644744873,-4.541800498962402,1.86508309841156,-22.52197265625,-8.9569091796875,-3.0975341796875
2.4987499,8.5903959274292,-4.568136692047119,1.7812861204147339,-22.6898193359375,-9.1094970703125,-2.9296875
2.5012499,8.561665534973145,-4.608838081359863,1.7118542194366455,-22.9949951171875,-8.9569091796875,-2.7618408203125
2.5037499,8.518569946289062,-4.649539470672607,1.6759412288665771,-22.918701171875,-9.3536376953125,-2.4871826171875
2.5062499,8.482656478881836,-4.675876140594482,1.680729627609253,-23.0712890625,-9.33837890625,-2.2430419921875
2.5087498999999998,8.446743965148926,-4.680664539337158,1.723825216293335,-23.1781005859375,-9.429931640625,-2.2735595703125
2.5112499,8.427590370178223,-4.666299343109131,1.802833914756775,-23.4527587890625,-9.521484375,-2.13623046875
2.5137499,8.415618896484375,-4.637568473815918,1.9033904075622559,-23.4375,-9.6893310546875,-2.13623046875
2.5162499,8.401253700256348,-4.608838081359863,1.98958158493042,-23.4832763671875,-9.552001953125,-1.9073486328125
2.5187499,8.406042098999023,-4.6040496826171875,2.054224967956543,-23.6358642578125,-9.0484619140625,-1.556396484375
2.5212499,8.396465301513672,-4.616020679473877,2.0829553604125977,-23.3001708984375,-8.758544921875,-1.77001953125
2.5237499,8.401253700256348,-4.656722068786621,2.078166961669922,-22.6593017578125,-8.453369140625,-1.8463134765625
2.5262499,8.394071578979492,-4.714183330535889,2.0661959648132324,-22.0184326171875,-8.209228515625,-1.708984375
2.5287498999999998,8.379706382751465,-4.7836151123046875,2.049436569213867,-21.4080810546875,-8.026123046875,-1.556396484375
2.5312499,8.346187591552734,-4.850652694702148,2.0446481704711914,-20.7672119140625,-7.6446533203125,-1.3580322265625
2.5337499,8.307879447937012,-4.9152960777282715,2.0470423698425293,-20.1416015625,-7.354736328125,-1.2664794921875
2.5362499,8.274360656738281,-4.989516258239746,2.054224967956543,-19.5465087890625,-7.14111328125,-1.1749267578125
2.5387499,8.245630264282227,-5.0685248374938965,2.0590133666992188,-18.8751220703125,-6.7596435546875,-0.91552734375
2.5412499,8.236053466796875,-5.147533416748047,2.0590133666992188,-17.2882080078125,-6.7138671875,-0.6866455078125
2.5437499,8.2312650680542,-5.22175407409668,2.0614075660705566,-16.0369873046875,-6.5460205078125,-0.335693359375
2.5462499,8.216899871826172,-5.2696380615234375,2.0661959648132324,-14.6636962890625,-6.744384765625,0.2288818359375
2.5487499,8.221688270568848,-5.307945251464844,2.075772762298584,-13.24462890625,-6.4239501953125,0.732421875
2.5512499,8.216899871826172,-5.317522048950195,2.094926595687866,-11.810302734375,-5.8441162109375,0.7781982421875
2.5537499,8.224082946777344,-5.322310447692871,2.1140801906585693,-10.162353515625,-5.340576171875,0.885009765625
2.5562499,8.216899871826172,-5.3127336502075195,2.1380221843719482,-8.9263916015625,-5.340576171875,1.373291015625
2.5587499,8.202534675598145,-5.295974254608154,2.1523873805999756,-7.354736328125,-5.1116943359375,1.983642578125
2.5612499,8.166622161865234,-5.260061264038086,2.164358377456665,-5.8441162109375,-5.096435546875,2.2125244140625
2.5637499,8.123526573181152,-5.224148273468018,2.164358377456665,-4.6844482421875,-4.9591064453125,2.685546875
2.5662499,8.090007781982422,-5.169081687927246,2.1523873805999756,-3.6163330078125,-4.791259765625,2.86865234375
2.5687499,8.073247909545898,-5.1116204261779785,2.1284453868865967,-2.6397705078125,-4.5623779296875,3.0670166015625
2.5712498999999998,8.073247909545898,-5.032611846923828,2.099714994430542,-1.64794921875,-3.90625,3.41796875
2.5737499,8.087613105773926,-4.941632270812988,2.0614075660705566,-0.7476806640625,-3.60107421875,3.509521484375
