# Time (seconds),Accel_X,Accel_Y,Accel_Z,Gyro_X,Gyro_Y,Gyro_Z
0.0012499,9.138720946940651,-3.650998694113199,0.5908554699544128,3.782388902168934,-0.9408685823144808,-9.919246123064465
0.0112499,9.117583707836733,-3.782906344551366,0.5660888117862746,-4.21706601939215,-1.327292422890131,-11.51302883484836
0.0212499,9.095411874937598,-4.103064750623592,0.6336560505817073,-9.95934641797829,-2.4841221251684775,-11.830334595716815
0.0312498999999999,9.1086400760538,-4.367656265622694,0.7948926371860006,-12.119181775033354,-4.376821323991636,-11.252441625471402
0.0412499,9.142989124127062,-4.429127782239764,0.9610624936542709,-11.508347907016645,-6.099454895211727,-10.570240495108049
0.0512499,9.199765390692379,-4.467444019220423,1.0451619853841165,-9.551326289263882,-7.748304014882944,-9.922011244459839
0.0612498999999999,9.328074241912516,-4.52755880066159,1.1017006046894815,-7.142792925526755,-8.914631317615486,-9.491013461984737
0.0712499,9.42874372284697,-4.535792278980411,1.2046926370570432,-5.087112075901242,-9.384748888101385,-8.984847777519281
0.0812499,9.383380065271352,-4.379871950866691,1.2295062587370502,-4.109835488373025,-9.748360443174263,-8.310294392949244
0.0912499,9.288196637361027,-4.194496733346152,1.1659977797561196,-3.8569331190445757,-10.026412950980795,-8.116938609613946
0.1012499,9.300183190086159,-4.081871140060599,1.1498552610559218,-4.377053798509267,-9.942842315966155,-7.96324539483845
0.1112499,9.309705995421464,-3.922523848326541,1.2204751982173327,-6.152487885603866,-9.26610632878236,-7.48656814992041
0.1212499,9.221814175398196,-3.702876623464493,1.292425300981193,-8.752985737558639,-8.37446081030267,-7.334197529156168
0.1312499,9.180268218034746,-3.5320533586800917,1.2717296932859206,-11.459851212670882,-7.702525911731508,-7.697732659355904
0.1412499,9.236355896767742,-3.4551797395788744,1.2088779404318153,-13.712588618316488,-7.197157057745738,-8.09002253087197
0.1512499,9.265968791059237,-3.462202885887811,1.1838234388788924,-15.102435753292852,-6.230920497267828,-8.464793468717078
0.1612499,9.220910299976255,-3.491245362196597,1.125592284069981,-15.304559000596011,-5.207322434459375,-9.127554324467095
0.1712499,9.305878541299597,-3.5420672807834466,1.0674378771133923,-14.736565005401616,-4.764607653872375,-10.016834636771913
0.1812499,9.448438893617555,-3.632705139388645,1.1093599604659388,-13.438174342700986,-4.532205075594746,-10.3856733324314
0.1912499,9.4462302259242,-3.671318757604853,1.1417481159866016,-12.059334502105004,-3.9272005140798583,-10.252867872812045
0.2012499,9.336744135826429,-3.62956182641867,1.0502572880318983,-11.075301147245357,-3.543376229629607,-9.79369607763293
0.2112499,9.219520692765004,-3.616810882580537,0.963998312691089,-10.38403940448873,-3.3569623690825687,-8.961232335038993
0.2212499,9.138837722171612,-3.639672778645198,0.93070009341976,-10.042076944755372,-3.318003737127838,-8.320741734836888
0.2312499,9.044121483329393,-3.6080979045965886,0.9250362184159729,-9.76291540032315,-3.561056402166523,-8.157299176826623
0.2412499,8.977493629775063,-3.525872015062512,0.9571243530965321,-10.104309557199427,-3.904818759945287,-8.161658462442176
0.2512499,8.952359012879965,-3.5453120462784242,0.9884880813104149,-10.613669082042582,-4.218468621915115,-8.36514621116653
0.2612499,8.897780647978934,-3.606346787702805,1.0260084257707773,-10.6582887355655,-4.600231451190588,-8.539821887512355
0.2712499,8.886397301456974,-3.594916465491394,1.0341201744267372,-10.679178064108667,-4.63331792008847,-8.630362992868541
0.2812499,8.84423756103363,-3.5536315613060045,0.9786997488135263,-10.60418943148527,-4.475504448532718,-8.982175042738891
0.2912499,8.754221783784741,-3.5530562525241365,0.9515064602411921,-10.320345950129001,-4.6320590444107825,-9.674355318449186
0.3012499,8.713725618396,-3.6230069877360522,0.9576311488857646,-9.967681652159186,-4.818343197126646,-10.133737207873917
0.3112499,8.664337412463347,-3.637079907887848,0.9038987286242013,-9.855275207216001,-4.661746295125137,-10.129099071907687
0.3212499,8.60167831075619,-3.5791220126230843,0.836583746169222,-9.669360236070927,-4.451792224805478,-10.017252012211467
0.3312499,8.56760315186604,-3.5574985853739203,0.7705983579452652,-9.063570712235482,-4.397989343924382,-9.829320791390561
0.3412499,8.582265753345155,-3.5734750660300847,0.717175960256037,-8.341258573330988,-4.2937733217683265,-9.261638610019634
0.3512499,8.64087750053847,-3.565475810335722,0.6672962409853238,-7.571427281397415,-3.9413292052771536,-7.8996901588657105
0.3612499,8.678967470876257,-3.479587472270573,0.5897163051917625,-6.911891057851119,-3.617802159122598,-5.970939884999181
0.3712499,8.729039635455045,-3.3538830371505086,0.5849065021605339,-6.614599400094829,-3.346360671148909,-4.408502780255405
0.3812499,8.810300762088563,-3.263074245037834,0.595183708325189,-6.075186051061273,-2.9871901810636357,-3.186495249447412
0.3912499,8.8708711046293,-3.1768384421285223,0.48994752889533677,-5.6309408218531845,-2.6830194035413926,-1.5535394885621039
0.4012499,8.872029511468524,-3.1019667937393414,0.33852697987625785,-6.042491005768859,-2.420901362704598,0.13414280513546428
0.4112499,8.841300310115018,-3.1376888378976506,0.29318178953763935,-6.250973716421604,-2.2204699640646712,1.5889387691225225
0.4212499,8.868602203043922,-3.172827157395027,0.34373863292158263,-6.176814328464188,-1.8973395303984126,3.0660797199399252
0.4312499,8.93576782254332,-3.176249365672236,0.3540084324142767,-6.217172302687864,-1.277751358537981,4.501734520296598
0.4412499,8.990491070304117,-3.250568087540883,0.33537369395373495,-5.958954482503595,-0.3838526519608802,5.703158584965914
0.4512499,9.09217735306473,-3.3417218886255813,0.4062502120362958,-5.529346344883716,0.498145554341394,6.691094503230422
0.4612499,9.212777448247857,-3.4266452263373974,0.4889103556797412,-4.831412122211223,1.5989040343522216,7.3512443311522695
0.4712499,9.233691747433227,-3.5688267882712648,0.5216250635810449,-3.352011185479585,2.5791190471609897,7.788637710323238
0.4812499,9.171486776158263,-3.7423127220068375,0.5660750323134531,-1.276814649963869,3.2908908351153157,8.426265166951605
0.4912499,9.049116628612152,-3.8729586471132045,0.6094899394723411,1.0622831995171118,3.924415924290115,9.097946031517376
0.5012499,9.008480329132134,-3.906955607702704,0.6221391312808981,3.599186251007887,4.147182772063839,9.271041443714696
0.5112499,9.135356899970606,-3.9341012315726878,0.6805876934633933,6.489189106320121,4.177593598617292,8.947364505166705
0.5212499,9.20463542176005,-4.013017728216467,0.7986754499513959,9.250165221900318,4.167912184955036,8.679283782130119
0.5312499,9.178603021699375,-4.032343860337377,0.8366870322870891,11.07617432173587,4.063494905811389,8.552275169873358
0.5412499000000001,9.145817720519414,-3.987370779099427,0.7942636196517404,12.051685489347582,3.777961380961577,8.280201777766917
0.5512499000000001,9.126089673407892,-3.9260397898285024,0.818722981268927,12.467204058242762,3.5208579952811214,7.647848601178155
0.5612499000000001,9.134803811953015,-3.879922148886594,0.9170253436597074,12.483417197389667,3.2627954641739745,6.603124495054668
0.5712499000000001,9.110266168966673,-3.879088546202061,0.9677688865161169,12.280283383451447,2.9054619082336686,5.436153319828403
0.5812499,9.038605760838655,-3.935020146836571,0.9748676076001638,12.343378774041243,2.2283702310966524,4.546059368570598
0.5912499,8.99903164227943,-3.9600848549106944,0.9751591091362622,12.436762373789835,1.4801017119711306,3.947752591868214
0.6012499,8.966834020531126,-3.933029406360814,0.9612519292146625,12.387198397160393,0.6446140784727022,3.3808659476555634
0.6112499,8.913337105194945,-3.8973891570222934,1.0133353997720667,12.16821171753143,-0.14661423319314232,3.0073297454805887
0.6212499,8.8889290824491,-3.8493699418011906,1.075649931506107,11.497461753653582,-0.805400288369367,2.858207226537795
0.6312499,8.887478333369835,-3.791311117205551,1.0472488203336556,10.058159872363092,-1.2087693400003532,3.0077077635312652
0.6412499,8.838770558172243,-3.7327687449635167,0.9913119723308647,8.423623415814594,-1.5446854987454546,3.4865952393523534
0.6512499,8.811382935593606,-3.70863360108058,0.9672963830754002,6.896109130502407,-2.0126346544764946,4.281621085217381
0.6612499000000001,8.806528670875029,-3.737671202375626,0.9485674420565336,5.979420884974628,-2.3928491688978935,5.0882529049132925
0.6712499000000001,8.730446619416107,-3.7584264380747037,0.912480316868275,5.956252289678297,-2.7841564085573025,6.083304871457165
0.6812499000000001,8.643164144377597,-3.790080372719745,0.8489118163775148,6.116319143340744,-3.5025278636101884,7.2818656121141165
0.6912499000000001,8.569534029108512,-3.839742143359915,0.7936811168349963,6.507124316136998,-4.301526320167472,8.612370830628478
0.7012499000000001,8.5178824262449,-3.84472936795336,0.8096731735278203,7.074976272483807,-4.763965289450398,9.892840656023653
0.7112499,8.532135267129194,-3.831509559580219,0.8594669247454877,7.39952113709879,-5.239460194453299,11.33597225598231
0.7212499,8.527798925855048,-3.851303382774527,0.8732523872413057,7.803487135921884,-5.690181296319605,12.687473851781007
0.7312499,8.513224520443297,-3.903579203992138,0.8777116173981432,8.492952747395346,-5.841100158403276,13.831327070064065
0.7412499,8.545380110130573,-3.9475636157125233,0.887758468171177,9.26503429233655,-5.889202873860421,14.98125157330174
0.7512499,8.605390906434739,-3.990036283539273,0.8703520406351473,10.017749774177727,-5.885268568567188,16.35474530243041
0.7612499,8.628086474893072,-3.9913059812632117,0.8628985781003866,10.498249821764652,-5.856301359634173,17.751315326264884
0.7712499,8.65760964251508,-3.919001353302422,0.8922397931185324,10.11508919132329,-5.71638112535946,18.861236308512424
0.7812499,8.697853300099494,-3.8867029115390657,0.8687749464095893,9.18725428713399,-5.249653212240107,19.907310759030878
0.7912499000000001,8.696923220704695,-3.8948479601940007,0.8076702332861304,7.88875199569637,-4.783161373654892,20.83344221642999
0.8012499000000001,8.693628696533773,-3.903810337025294,0.7957350103305116,6.524086920413525,-4.208566425794239,21.515299584636015
0.8112499000000001,8.664726371861823,-3.9368593933438993,0.7986592821107106,5.48650242432625,-4.029620853823108,22.232465881720685
0.8212499000000001,8.628330142107322,-4.008686986915085,0.8144955928356856,5.114048689605144,-4.2139550544525815,23.485074527134824
0.8312499000000001,8.597317398548725,-4.079246010822816,0.8274127679193318,5.004574099858462,-4.586295905864999,24.888715745056825
0.8412499,8.613625773747328,-4.137804912905378,0.8173464876931091,5.236732487231805,-4.9788089346004085,26.08124150585428
0.8512499,8.640198174937375,-4.152445451527998,0.7743028816718498,5.983261170229295,-5.424195949829537,27.195684196690333
0.8612499,8.647831255191246,-4.123833903277468,0.6866514355446132,6.526208507515979,-5.924865463342802,28.08432306714099
0.8712499,8.650821632382163,-4.110016134462803,0.6685176149466545,6.284181733575411,-6.127017715764621,28.809635917853974
0.8812499,8.671323377979226,-4.0802041651129715,0.6710435190530059,5.239748003207004,-5.896653063831716,29.418007331934366
0.8912499,8.726727050261443,-4.071909988998711,0.6733433947097979,3.7264713331616486,-5.563552904007191,30.219423307947245
0.9012499,8.733655046067675,-4.108966823066794,0.689673180381989,2.03488164327677,-5.379488096910259,31.040582254151662
0.9112499,8.708414627411141,-4.157059543297922,0.6363735850036595,0.4407919375902089,-5.321461920547437,31.462499599698617
0.9212499,8.715776615445494,-4.191292922159714,0.5918371846861884,-1.0388596566680146,-5.2585785339294535,32.02422808797833
0.9312499,8.739361594961348,-4.189475453539558,0.6127907652201612,-2.8217708834322446,-4.932984385901173,32.656494215834606
0.9412499,8.772092386561205,-4.202863140710349,0.6172651440550685,-4.536733434540851,-4.436069036153803,32.678573397033226
0.9512499,8.828658132120786,-4.24482104696073,0.5646873249961308,-5.899267201382401,-3.901398677146677,32.41219852917448
0.9612499,8.867218175415138,-4.328764525825129,0.5859019075324503,-7.191415588375526,-3.2894959766068363,32.31941258751456
0.9712499,8.819877446407027,-4.474264180593168,0.7873141172072716,-8.037531819946459,-2.432451973758065,32.39131212876939
0.9812499,8.780752213219296,-4.5740566494370345,0.9360730712681933,-8.48449089029344,-1.1127534547414992,32.34598299080466
0.9912499,8.773102612924134,-4.681119728356881,0.9518754898102336,-8.521353803262702,0.2921498082093451,32.262733827036364
1.0012499,8.677398568876258,-4.92288222207545,1.0604852284288062,-7.860350128742522,1.4493292274797906,32.496671083524966
1.0112499,8.54515873376006,-5.074477479558541,1.2648437355984299,-7.10092158387615,2.494293424990108,32.794204974785636
1.0212499,8.433640961028829,-5.096919709518709,1.3315071395657678,-6.40890769769278,3.068199388313226,32.94971847025266
1.0312499,8.251917176744623,-5.173461968220171,1.2338083274494154,-5.37378172100666,3.024430428074546,33.011442612789885
1.0412499,8.024437366640285,-5.179416291358872,1.1412666237376672,-5.110505291485766,2.5914781023715685,33.00786787965856
1.0512499,7.922129247346238,-5.034262424313396,1.1062859472598388,-6.351911669289714,1.9368881622520702,32.73100209213955
1.0612499,7.884308748635858,-4.815765892645526,0.9998015710637129,-9.778041211173404,0.8296794410709488,31.81089430105172
1.0712499,7.893880255593772,-4.628747859776679,0.8631604047512424,-16.275779017829436,-0.25875907954406085,30.757767759497455
1.0812499,7.9566117917632555,-4.51356160167994,0.874415799830909,-24.78028349042209,-0.8634810130177385,30.526397967086787
1.0912499,7.988978627011167,-4.379392486914086,0.8821765437813748,-35.19545829435282,-1.616753175331979,30.186272981255527
1.1012499,8.028819552860492,-4.311372817283215,0.7680216781565363,-46.264722425782075,-2.2911452516303386,29.005298053972123
1.1112499,8.07614621326423,-4.481190347158951,0.6967654104058407,-55.38049170217006,-2.9596801561645076,27.329868073426102
1.1212499,8.118206493700411,-4.808387498624453,0.7026469549984211,-62.20660507543014,-3.5795612805026797,25.75763451028598
1.1312499,8.171167833967324,-5.231853530190287,0.6872596926163452,-66.65396475940182,-3.8169595596908197,25.100541841403505
1.1412499,8.093715406235965,-5.637883007574761,0.6362951559167457,-68.97493276313948,-4.167259674435779,25.8309664795442
1.1512499,7.833915540157024,-5.896656266484365,0.531109647714641,-69.71648758918109,-5.241195063037455,27.784687863825916
1.1612498999999998,7.515385419519766,-6.003995936914741,0.3268090307075955,-69.26013781617915,-7.514230588908711,30.56989444699511
1.1712498999999998,7.1947741608286435,-6.019561668697524,0.013866764155502717,-67.45930989423248,-10.972143900590053,33.85482395948287
1.1812499,6.967840590045139,-5.966016009343056,-0.3392592296908127,-64.6636250636478,-15.608845207103052,37.695413521290035
1.1912499,6.931785292645705,-5.7972124077260565,-0.6135972910447139,-62.080863451974245,-21.18367323466994,42.138697141388334
1.2012499,7.005442583146519,-5.620224232062919,-0.736860409478728,-59.95184391928005,-26.84018727162733,47.27153973904908
1.2112499,7.058583196240406,-5.4700653540350554,-0.8473392244901538,-59.5401986004203,-32.2063329811631,53.27776393895549
1.2212499,7.157367014807326,-5.26370791832584,-1.104950955613793,-61.06636504674273,-37.31018274494579,59.76918794903547
1.2312499,7.265209606081898,-4.982994212038076,-1.3954413057566155,-64.5912560108411,-42.71007064641099,66.11353299633197
1.2412499,7.303232628036502,-4.712773800113565,-1.6064757998030366,-70.07845300043653,-48.34314787258778,72.25954889023758
1.2512499,7.287297848961504,-4.504512943137917,-1.7999060616603673,-76.52938123408636,-54.07997565537913,77.61203825097581
1.2612499,7.302870668455828,-4.288296907939653,-1.9629799215528585,-82.82300498072695,-60.05881067343182,81.49542402603207
1.2712499,7.427733285869985,-4.233292404210381,-2.0439804702653244,-88.43147349910346,-66.58480638107571,84.26674676070559
1.2812499,7.594729179475742,-4.454664444542341,-2.155730587834651,-92.2794688942576,-73.24595149624555,86.86873474876326
1.2912499,7.817969320011816,-4.671311751722814,-2.375532882839929,-93.79176615394006,-79.22675288560802,90.1071185660039
1.3012499,8.263755728424435,-4.703872365378721,-2.6005471352657756,-94.68664792775954,-85.37044289274982,94.1007660836957
1.3112499,8.940268757479718,-4.653186102913581,-2.6715497976244738,-95.12344352203866,-91.67715257094544,98.09584677169754
1.3212499,9.877567398713015,-4.594318161523862,-2.676933874793163,-94.94078254265823,-98.11497554204512,101.75577066778312
1.3312499,11.26487846910267,-4.596003050467775,-2.706393962168625,-94.43267930322507,-104.70053421415238,104.8816395274765
1.3412499,13.207082573015335,-4.616174259749714,-2.7268564976365055,-94.39850371450645,-111.65316539740411,107.5312071928402
1.3512499,15.69571337585718,-4.432552057000194,-2.8118974154092746,-96.67664450624612,-120.7009741601164,108.89241494939158
1.3612499,18.661975394955697,-4.080514619319596,-3.081669389179656,-102.97446335410186,-133.1699651552087,107.30435629397154
1.3712499,21.91854941783622,-3.2797193866939818,-3.79250996849647,-115.74723260806952,-148.95316109362906,102.62679598751862
1.3812499,25.96343208543279,-1.5613488378546037,-4.7871775465609945,-135.3858863109844,-164.32451561015742,94.39551788783163
1.3912499,31.46831325955487,0.5315123786463976,-5.237836704034157,-163.31468146005082,-173.04482232303118,85.10110374212753
1.4012499,37.062642710636,1.534357099478638,-4.532536160401925,-201.8162380499536,-176.12109271863054,80.30868476187474
1.4112498999999998,39.437686902752176,1.3160743143240468,-3.295286912400642,-245.84658501859897,-177.55032932199066,82.80924061792011
1.4212498999999998,37.24890179953319,1.1357501568640973,-2.6373903539238626,-291.47585267885825,-179.29872096793665,92.81832731742469
1.4312499,33.19633290041872,2.328406718789792,-2.9006655877508636,-342.98123515812495,-176.30861108785658,108.1615176437224
1.4412499,29.335429821528486,4.379584835684019,-3.9927797966970098,-399.21899309012036,-166.74404862296683,126.08950323634473
1.4512499,24.492850439889864,4.657911326322068,-5.560382044342243,-455.95917439896465,-158.008556927146,151.3884942684613
1.4612499,16.079066331972985,3.1158675710013632,-7.4617846919258595,-495.89548874105975,-162.57907054870645,189.92355958092398
1.4712499,2.2560991791901004,0.7199413377653254,-10.394325913230384,-501.7606611908136,-187.39272882940665,245.60215315026372
1.4812499,-16.855005622360807,-2.3097853450913703,-13.918262561483617,-498.56474465037223,-225.3108198177596,322.3346669511043
1.4912499,-35.60372031501171,-5.840671981080256,-15.038742818033581,-500.8403747708961,-251.1841770628912,390.0710584373977
1.5012499,-52.49739908481234,-10.409634659956886,-16.341292717997916,-500.60732049066127,-245.68084954339542,431.37441855470655
1.5112499,-62.35318968054634,-13.403672038684586,-19.630589802320653,-449.9193680319781,-195.1978426636916,436.01670348403036
1.5212499,-53.532050177192986,-10.381060409097145,-17.198064035049548,-356.8894567346839,-98.04366983269368,377.2103813448982
1.5312499,-31.60515057992044,-7.155292253198086,-4.726876978175987,-254.90305687839373,20.386433268956832,254.36526428922843
1.5412499,-18.39808393883269,-9.496971892819918,7.452030248965166,-128.0217061201465,101.03371293435269,97.3817765404447
1.5512499,-13.917262819425133,-12.466293688982507,7.227252702631607,28.784329956448104,129.71406244489268,-63.710884445342955
1.5612499,-13.461975898740723,-12.126623150361702,-1.5430695213238843,194.73545207331068,138.25837706390823,-195.69535853571892
1.5712499,-21.517943308936818,-9.933171211719134,-8.677725157074661,319.83632298460697,135.89866925971535,-263.10897131789903
1.5812499,-28.16726383860036,-4.8812816294060655,-10.305852632499656,371.4711575892816,126.48562765971401,-274.53449387038773
1.5912499,-25.867468501195,2.3876435734647417,-9.318987012046708,359.66224303527184,115.36273532591117,-269.62741961157866
1.6012499,-20.172974586998034,8.28120195633892,-8.820327952659166,302.9674143296749,106.35633742445269,-268.18491990980397
1.6112499,-15.92464674020914,9.857317175006926,-8.976273767544999,225.50914432922946,102.23975006553243,-264.573902905
1.6212499,-12.568172126454032,7.8793175860298685,-8.949957980799047,149.35054116770593,100.64421148966785,-250.3023115609478
1.6312499,-8.335570179998204,5.276728173491472,-8.482899008259846,84.0420385449513,99.45726334751016,-226.34121163354462
1.6412499,-4.140786375094414,3.464663225231128,-7.941408518545323,34.467208716634126,98.24336180507032,-200.62146854842834
1.6512499,-1.361335473038662,1.791317831689496,-7.760329309379328,6.49653023812122,95.67592616170892,-178.1375519172979
1.6612499,1.2329009520296843,-0.36089674704375696,-7.620782599405135,1.2775515116231047,91.84767998016575,-156.63495247438829
1.6712498999999998,4.30992153459305,-2.6796607262627776,-7.128951480729946,14.709329595633838,85.23421278942068,-133.4547048286843
1.6812499,6.8093581163655665,-4.249025767078835,-6.675197188028408,40.30831428447385,75.52712146964147,-109.10045166844994
1.6912499,9.017117059714238,-5.229527279677518,-6.455885971122945,78.74569160819273,71.53004687582857,-81.47863303738006
1.7012499,10.530321567454614,-5.557650943879846,-6.5496799795756955,113.33479136826465,72.23138779844358,-53.08349092175882
1.7112499,11.556263434448045,-5.125842136943581,-6.905623649254426,138.05792196215336,77.13714207886488,-29.683804469280055
1.7212499,12.195503991657631,-4.622037906751144,-7.139245503502484,159.07712048971197,85.16867691672675,-12.902917613364199
1.7312499,12.493235196207939,-4.4161759421701765,-7.121647470860712,174.69355083658434,91.61836918014559,-3.1250218147527478
1.7412499,12.797262217118549,-4.595893617577035,-7.376738271802302,189.2512455432687,95.10519893117286,0.9966099309005315
1.7512499,12.795428418134811,-4.673022215449508,-8.060790820746252,202.49812834390633,98.25441247503207,0.9190714789803234
1.7612499,12.305616603174295,-4.386000855426311,-8.566322680721884,209.62531527492845,102.04691918284806,-2.2672693556369503
1.7712499,11.647629770806498,-4.080045548010969,-8.757905713094582,211.39350239260446,105.75637760265889,-8.322117147426786
1.7812499,10.989051207827854,-3.9431054533524983,-8.901076215881986,210.05173297028017,109.92386878089573,-16.742181289551404
1.7912499,10.573536014055607,-3.788231301593898,-8.8268811017482,204.67728693197697,115.38537092367669,-26.591796962649706
1.8012499,10.803238349418566,-3.747462934793496,-8.414937821522924,196.41692133263453,122.48228785494305,-36.70172448760029
1.8112499,11.146772714937667,-3.8362918928044656,-7.691878731489053,187.72156502981034,129.8003003231665,-46.353438266803145
1.8212499,11.055695502595848,-4.036838308067524,-6.827899100392777,180.5730081340599,135.7497732074575,-55.43318803987206
1.8312499,10.840685585142786,-4.484057328724325,-6.294109214269713,176.03854988376438,139.78852780536909,-62.449893317419395
1.8412499,10.562972242052345,-4.619988790911335,-6.283243405519559,172.74971239514056,140.55615027526497,-66.50141245858623
1.8512499,10.028828109574311,-4.309905127232791,-6.322046326075299,169.60095768689808,137.80237703094136,-69.17324807976001
1.8612499,9.24469657244233,-3.945514025943135,-6.095837475609323,166.17495478599815,134.28568035298304,-72.17400973273159
1.8712499,8.40198297062822,-3.5598864207490535,-5.718736069033103,162.42079978588794,130.94300540600696,-76.08078650417005
1.8812499,8.023247728129235,-3.5251273527045894,-5.266640996250399,159.370093845113,127.77714771465148,-79.30159381131621
1.8912499,7.988259545393747,-4.23996796688125,-4.7722737408527385,160.24181680691484,124.77171652559892,-80.79844842223463
1.9012499,7.75759267179358,-5.185803478583351,-4.235248306209143,164.18023353867144,120.51503475957858,-81.12957142295735
1.9112499,7.717660613389107,-5.320523150414278,-3.781883639936213,165.14278526694943,117.07474370784233,-79.54440274514266
1.9212499,8.000239811001785,-4.797355261784922,-3.596718174614012,163.51641582606058,115.67452867961273,-78.20604137669685
1.9312499,8.149704941098149,-4.265914252974437,-3.3910214088129385,159.66680233152692,114.58502299638421,-78.62652289538278
1.9412499,8.125424784752509,-4.157768573071259,-3.046318309568911,153.35981895075014,113.54725390711349,-79.27400706790945
1.9512499,8.11390902387666,-4.297588700623652,-2.9532025717501424,145.13670862177165,112.50828010203632,-78.34589375234914
1.9612499,8.204364021129923,-4.415717771709183,-2.8727541721036896,135.96288329403316,111.40130954024931,-76.20938112611597
1.9712499,8.192396630553318,-4.615876081437811,-2.4758282129200913,128.49103113498055,109.56768836588341,-74.0387816039543
1.9812499,7.956030419707455,-4.705635708306075,-2.05298330300274,123.60243660657088,105.58276031153626,-72.71798150664074
1.9912499,7.62713249736613,-4.608944050866548,-1.8075578219302075,119.98004697431824,98.12068060703479,-72.18000248194939
2.0012499,7.50689613759592,-4.858308550775529,-1.6548667029794146,119.03528913017719,88.3875945003639,-70.21990257061871
2.0112499,7.5032583612795785,-5.222837498237673,-1.6571276280937433,119.30275606349721,77.43178093438578,-64.80807248343575
2.0212499,7.557391646536263,-5.115549651821334,-1.790996286474893,116.8283365266742,65.86735117963494,-56.00451351088412
2.0312499,7.80187302491129,-4.687184270054682,-1.787726116895979,109.91674311646815,54.33866638135845,-46.24972939075824
2.0412499,8.136684944905271,-4.166725900353032,-1.5995970810944289,99.34030479554438,43.298959268878384,-37.833640655310866
2.0512499,8.313808328899562,-3.5015763213276547,-1.33233037995435,85.96678317278622,33.60554755554923,-32.26147467769395
2.0612499,8.231046180476465,-3.023618434008712,-0.9305567511888742,70.00523809750516,24.735422666442805,-28.96638578501671
2.0712499,8.156521083164572,-3.0924863346119817,-0.560925857219483,53.45067692655184,16.962589395792286,-26.57440181585561
2.0812499,8.116302897979004,-3.317043688197648,-0.38670124834402325,36.25931153907022,10.332504269697944,-24.20676538531532
2.0912499,8.0143790255471,-3.4184143836596372,-0.3194771964605121,18.963529576316272,5.12682693556121,-22.229920477543285
2.1012499,7.967289493014951,-3.3936769355420386,-0.25806737092249976,2.2311806273659314,0.9795356012401895,-21.1433396304487
2.1112499,8.039432018197896,-3.2935389619010316,-0.04052034881007287,-15.044362814596157,-2.7971951062109435,-21.0529118682413
2.1212499,8.098854668854116,-3.44587792713862,0.29495133552170333,-27.562518372813482,-5.242068619299754,-21.761934998021527
2.1312499,8.147102049514588,-3.8011377315641495,0.5743950508510519,-34.6102142371862,-6.386973470246111,-22.1806515856801
2.1412499,8.190952969263106,-4.1729690268464665,0.7156832936425565,-37.63981792273756,-7.0361162588797495,-21.34645788926536
2.1512499,8.327646876171423,-4.562056067006872,0.8795833219494645,-36.21839577230792,-7.010475821202626,-19.165787086841803
2.1612499,8.549118377687012,-4.816223393960468,1.1180320789377116,-31.56456448474728,-6.061611733377189,-16.137008604783027
2.1712499,8.734398164592282,-4.777843657918912,1.2602054079560694,-25.192919328958123,-4.240274654068108,-12.955475460706921
2.1812499,8.872889420379247,-4.564745288207028,1.2946686618214833,-18.29339497846186,-2.21353377423513,-10.24604686372796
2.1912499,8.909745158568214,-4.340337537715478,1.3836050207723922,-11.528294837585536,-0.7416467066067305,-8.08079594615827
2.2012499,8.85575080603978,-4.161313732522623,1.3951400624242298,-5.395823206043799,0.5708537006927209,-6.7570398512177245
2.2112499,8.840110682479544,-4.002296290214222,1.2115988220422194,-0.7902134024733782,1.744971149515891,-5.949882246496428
2.2212499,8.777780668544542,-3.8118481218969755,1.0295363228299081,1.1324850843452638,2.051066863845847,-4.870675825224848
2.2312499,8.72345161270014,-3.6116177884523437,0.904362195115497,-0.33005273974784705,2.1152777975561974,-3.8570601910902793
2.2412499,8.793931582141148,-3.4746441707575286,0.846558212727464,-4.479450021988306,2.3676174211752197,-3.367251335962914
2.2512499,8.846612561748394,-3.4809362839515297,0.8354716265472633,-9.653150196703624,2.181121742645933,-3.130942629912723
2.2612499,8.8270396134909,-3.578130053662176,0.802089133671152,-14.72744858452364,1.5469286087206047,-3.16263095771204
2.2712499,8.826359137634624,-3.7922842784249653,0.7614907649209253,-18.253441504624647,0.9588190638087984,-3.3203958318011724
2.2812499,8.78198358613804,-4.115543703912057,0.7284149877733176,-19.79711983737378,-0.2844014393299933,-2.974720611815044
2.2912499,8.647613768092594,-4.367919816778871,0.5999880404588113,-19.475361564438778,-2.026172606232503,-2.5649186346056925
2.3012499,8.571830279794906,-4.533162832595554,0.3798510981016615,-17.731359340966968,-3.8964618663190205,-1.9120877505744764
2.3112499,8.636123029398584,-4.658719877527014,0.22068731032896696,-15.116123760140944,-5.688586780346457,-0.7854869466001124
2.3212499,8.758863376147934,-4.681333010749228,0.1653578913590625,-12.168657022082245,-7.414102129277728,0.18238468379120162
2.3312499,8.917880046998024,-4.565772189095365,0.16087285536831486,-10.702180617236301,-8.325953975027693,0.6651050623834176
2.3412499,9.042158366857585,-4.467157453025144,0.15926553043286568,-10.551361124947242,-8.605549675691362,0.8531375471267155
2.3512499,9.015168832894297,-4.421975570550034,0.0626525764628079,-11.30183435871167,-8.662714853738658,0.8851230572510134
2.3612499,8.922573547129613,-4.383666879655078,-0.061607549394799045,-12.660176376377432,-8.605334106441154,0.7528931358903921
2.3712499,8.881873723565356,-4.387702177299213,-0.10843719466726996,-14.116255628517733,-8.470096314146993,0.5876404063806104
2.3812499,8.908591331127234,-4.4010779336978105,-0.10058031268307177,-15.701240234432733,-8.093296482862204,0.518954648487245
2.3912499,8.940755776276823,-4.423623045644882,-0.06784051223765661,-16.499130937178514,-7.439505901080759,0.3072170521549287
2.4012499,8.851110835763182,-4.486430008553339,-0.03214056724537623,-16.414914328672157,-6.866385808682883,0.1626138823287931
2.4112499,8.731321921752636,-4.58346171792872,0.00622524749228486,-15.306428750565964,-6.8477669825335985,0.4283138394037681
2.4212499,8.67434090178873,-4.688455580125384,0.020466070948835374,-12.705329011004103,-7.082261507633015,1.266592584375696
2.4312499,8.583144979627189,-4.736140264107783,-0.012015690976758026,-9.636390902089888,-7.526759269898385,2.629794616839631
2.4412499,8.516986160570156,-4.689137101880681,-0.024465200051259618,-6.743990167571174,-8.1348988808721,3.8103405834693516
2.4512499,8.534226586028728,-4.5550255927243875,-0.025412670791497633,-4.679434463376207,-8.433959633760416,4.6443931985308415
2.4612499,8.571859135818471,-4.369939122838833,-0.015041658944748426,-4.2694938521274,-8.60318492042469,5.216729335301449
2.4712499,8.660710757233815,-4.228363497258941,-0.00540110337005648,-5.191509480308223,-8.36967615502782,5.697760568169172
2.4812499,8.690139080865489,-4.079147088564876,-0.051956957623886475,-7.417791475637508,-7.964777802790468,6.216912714456983
2.4912499,8.59862540939474,-3.914742654918709,-0.1254015603666715,-10.736795800032851,-7.480231610488034,6.3780440134481
2.5012499,8.528532620049813,-3.879692177412552,-0.16097900586640587,-13.751298812152793,-7.078505149459475,6.286236188584458
2.5112499,8.48955241513697,-3.992568924731311,-0.15726633124894968,-15.937074341201864,-6.825893103059447,6.450105837037092
2.5212499,8.478229685751685,-4.140467285450404,-0.19105870364952496,-17.483413236120604,-6.016126222160223,6.872355976492017
2.5312499,8.551065615997377,-4.204229871270215,-0.21129170308570924,-18.21806373897236,-4.686395368853133,7.357988437207558
2.5412499,8.657787263852502,-4.231418735896654,-0.1330063900416615,-18.362009846316166,-3.1937539289439747,7.281350944486811
2.5512499,8.739079278809433,-4.305301295500325,-0.03699707190859856,-17.927335053292385,-1.3172095777442425,7.117305774750117
2.5612499,8.750235142896193,-4.396074307499177,0.0021247758741135673,-16.46557848614144,0.6361142976669532,7.120236370196442
2.5712499,8.695887044675176,-4.528120337328505,-0.0001956151375931349,-13.719199590639125,1.9971146835457918,7.346196560766147
2.5812499,8.664974572969033,-4.671931967774402,0.05379135292203148,-10.002018459108779,3.0192498097637626,7.650941976386413
2.5912499,8.64749481050021,-4.761817069497232,0.0758044769144264,-5.31569581853823,4.10904349445667,8.054459719132437
2.6012499,8.585402381208208,-4.7294558771290935,-0.03255087537362494,-0.3979073498529633,4.620687251285157,8.454944097810326
2.6112499,8.557732808485591,-4.674450244427173,-0.1024137867859887,4.038548804079359,4.442099057034329,8.901536218695801
2.6212499,8.582992089120696,-4.658670871863731,-0.10921186672199666,7.39702008917459,3.6724577902793936,9.64769373472073
2.6312499,8.58447031340037,-4.592997763381777,-0.13287989693049942,9.38193204016582,2.8520946596349495,10.76189153327727
2.6412499,8.56514016117225,-4.4622856153322195,-0.17672318951012478,9.568627146676176,1.8955337854215268,11.92023794664019
2.6512499,8.564204290582564,-4.31935102484401,-0.2393575045091409,7.96215179345714,0.7071951440225176,12.73460343041769
2.6612499,8.626419754433154,-4.151233111456602,-0.28428597805348094,4.9355110107541575,-0.38353984074513264,12.931232093644148
2.6712499,8.72127839254251,-4.061837380167869,-0.3419514641341765,1.3298002390821235,-1.3703957261543447,12.712148381211168
2.6812499,8.75354629191755,-4.181944660125541,-0.3777990669976028,-2.304275328335313,-2.189844926182379,12.570465874960835
2.6912499,8.742446418873087,-4.388315356455077,-0.38123819168450923,-5.73861278101999,-2.872067469707133,12.738920489136841
2.7012499,8.7240459818445,-4.556717299540426,-0.4149325025932386,-8.468663934909621,-3.4892034052852487,13.27780049885743
2.7112499,8.675821624492576,-4.671791460432686,-0.42496933998502573,-10.417808575867555,-4.166557481237362,13.794992436690361
2.7212499,8.627333437028598,-4.7967737345062895,-0.4090642512545053,-11.720903644740902,-4.5634697710200385,14.169172462243786
2.7312499,8.59149345855863,-4.9342515582011615,-0.42674149954993745,-12.475944291062309,-4.784375454763466,14.396952645560756
2.7412499,8.587054195226438,-5.018349188118669,-0.4413795938844367,-12.50317827208075,-5.040613150109529,14.754254622801762
2.7512499,8.527848836299208,-5.072972655003958,-0.42538136507584773,-12.236175228491254,-5.497055496745026,15.414738503700947
2.7612499,8.466576989806507,-5.115298632354787,-0.4300742978735414,-12.026116983463478,-5.518610000554967,16.06914837334918
2.7712499,8.453338811140881,-5.116533007624575,-0.4918075420571609,-11.791929524202148,-5.345253173987939,16.76330655764308
2.7812499,8.374821774175436,-5.025111199087122,-0.554047309806531,-12.17630021254514,-5.563193436944615,17.31095938259818
2.7912499,8.263190297961652,-4.871204636858573,-0.5464618763837921,-13.108829741249572,-5.984991037406998,17.48570764338195
2.8012499,8.15590430787269,-4.772320647146491,-0.5366078892716192,-14.227490440029799,-6.60345195106328,17.693615970911683
2.8112499,7.956659841232604,-4.749557239431291,-0.584695827611056,-15.279419130959528,-8.115652135699708,18.308398363348093
2.8212499,7.76356983796024,-4.782515423756476,-0.654402692278662,-15.879953878233529,-10.198024222479297,19.622171333321127
2.8312499,7.6930689701915425,-4.787490351735486,-0.7402742344271642,-16.35980516557759,-12.594887097143248,21.713763657203856
2.8412499,7.763480471347587,-4.731750845276733,-0.7752132118935025,-16.773527340033464,-15.592177414559345,24.17733429107612
2.8512499,7.942867689259931,-4.613693836619809,-0.6961997488931073,-17.569127108550067,-18.18407005676372,26.654381777238655
2.8612499,8.101247932710066,-4.4790410247071515,-0.5873806651611778,-19.3050998381313,-20.14918487140125,29.03464582598363
2.8712499,8.213360537185178,-4.463043546971979,-0.5316812237163073,-21.742093681007834,-21.73497330096108,31.394553112181715
2.8812499,8.269889101833726,-4.5030783612425305,-0.5789387493937166,-24.606059095146435,-23.387098941373115,33.888442226406426
2.8912499,8.246423518237455,-4.445398950005973,-0.6550352359066107,-27.605873963700883,-25.51145500617578,36.040524182817855
2.9012499,8.182635694990848,-4.435429028422007,-0.683456691115072,-30.46783063234965,-27.700894747070294,37.68155169023627
2.9112499,8.07825461473812,-4.495838228483936,-0.7671424618818917,-32.97179345462552,-30.162640356196466,39.25252848482194
2.9212499,7.952333020453603,-4.472588842261322,-0.9305887590353119,-35.2237597347982,-33.017195337248026,40.60190164097733
2.9312499,7.756365191017781,-4.427710135780471,-1.1235039505612592,-37.33747936452736,-36.29425902426882,42.129186269765604
2.9412499,7.614561867033629,-4.406276249336125,-1.3713219989201153,-40.14653458805572,-40.51836357932735,44.47904918125855
2.9512499,7.633886053157487,-4.351459742489064,-1.5722981370130455,-43.20100481094407,-44.719993744635374,47.1206721110162
2.9612499,7.6038046191730455,-4.318413164379878,-1.6366886557181286,-46.20452730210269,-48.66709631550662,49.86307389585955
2.9712499,7.516537607516506,-4.311899726792175,-1.70190709221508,-49.89360397785138,-52.5602931688558,53.14790000545646
2.9812499,7.5335072526227576,-4.2391239692920575,-1.8488514143814523,-54.11119225064623,-56.10094973092718,56.61821485030097
2.9912499,7.609890625586867,-4.175756585230891,-1.9799189708333673,-58.060711027165965,-60.209240557280864,60.152869777981486
3.0012499,7.6696429034006295,-4.127741903630429,-2.085923562767416,-62.09867031839095,-64.65682078352032,63.94454829279945
3.0112499,7.765258256160854,-4.039305718119778,-2.21624692022361,-65.93383621528704,-69.28950991344409,67.69440484893077
3.0212499,8.12304917806076,-3.8952896133316512,-2.3380022114226486,-69.66724290859462,-74.46599297022205,71.11505456091518
3.0312499,8.632771927842255,-3.7423239536685813,-2.418557203111818,-73.04686843256195,-80.1738987693482,74.12317689630541
3.0412499,9.037230939967573,-3.5683140345538455,-2.489187555944056,-76.73243560012017,-86.69240729259846,76.79170282920128
3.0512499,9.811859689008251,-3.2486870767950187,-2.6161344243218205,-81.51929488023877,-94.7156997239929,78.57666515191684
3.0612499,11.250428449546755,-2.7053391941210223,-2.8178656858862166,-87.43223657158339,-104.44144847805448,78.06473801427835
3.0712499,13.093830710480143,-2.112734487217734,-2.983268007636565,-94.9476333039231,-116.08964041736847,74.90331340312065
3.0812499,15.607392075360558,-1.3771973771153565,-3.1873362723022827,-105.95846957539149,-128.8688551151674,68.97923654604128
3.0912499,19.20889813160768,-0.16665582993670414,-3.644664095452778,-122.96852599711656,-142.67329322673626,59.47620865457305
3.1012499,23.72394417110483,1.3549803565635574,-4.091036520000135,-146.33898277068164,-157.58229738656436,46.33121346818191
3.1112499,28.64198543204037,2.5136752544482146,-4.2361126837964385,-173.7341175450009,-169.4426232967386,30.392255399428485
3.1212499,32.714011617412396,2.7556656375562802,-3.8764156140701544,-204.56423646478316,-174.31898103877913,19.322830589039217
3.1312499,34.516984453890686,2.1747850019346444,-2.990293983787723,-238.99435355816067,-173.29742659600552,21.431595286048474
3.1412499,34.07361681006213,1.9160448871072724,-2.7468266641671093,-276.44482820468505,-171.04154478887654,38.34548972878544
3.1512499,32.353350330688635,3.313535864526985,-3.5466024520585098,-317.02506889786946,-165.0790385138419,70.80983411403326
3.1612499,29.37349236288592,5.673300436801018,-4.182725125640652,-353.0323206082531,-158.5704759831155,107.06324573098834
3.1712499,24.169002866211983,6.704060819377272,-4.311581671017047,-382.9534798567786,-158.48360439073267,146.30930381822358
3.1812499,15.320137739214802,5.7534073681723505,-4.657170942909224,-417.10607591085164,-169.38100850968075,200.84595080834083
3.1912499,3.306818116215984,4.48609155947918,-6.311690365822091,-457.24763485866464,-196.3909003459918,265.79214754552254
3.2012499,-9.630847829827067,3.246820948876975,-9.281070109353614,-487.80688567654954,-235.5019847328158,325.4373145919603
3.2112499,-22.739256002332354,0.3603884285885534,-11.434861401376075,-491.0772663180977,-277.37059823887444,373.79512998872076
3.2212499,-39.257507977876934,-4.642175860195871,-12.493241971306297,-474.1040701162823,-320.9108916573221,414.3698742757185
3.2312499,-57.463704484762744,-10.227862338441001,-17.301372423557975,-438.88626818968083,-342.4528971050811,437.8080385771891
3.2412499,-63.97225769347989,-13.238192309522635,-24.17384359506959,-373.6836532768043,-292.9692000712147,410.8567278712473
3.2512499,-48.76279547899994,-13.276771292644082,-20.314946005197463,-287.291041524072,-174.6657726341184,317.9625719400311
3.2612499,-24.346936979988207,-11.515718410975095,-6.726925228575402,-207.1713897979738,-45.152537751290375,175.77816935079832
3.2712499,-11.690184209840915,-9.620769551367808,0.24019132889531009,-122.93895406289022,52.62859651917601,10.523026525151097
3.2812499,-9.452329495307144,-9.484803331839233,-2.9059558360905675,-8.895208069287255,125.46353126436335,-141.1126251797103
3.2912499,-13.91992088183443,-10.98407650180183,-7.593056324630283,113.49652219608116,168.61084213281072,-234.52621247660113
3.3012499,-20.348686434032157,-9.442924153950058,-10.458316996811856,205.9276108665992,184.87254652366246,-263.7470252029457
3.3112499,-22.036851911039207,-2.8609555402390496,-12.61444645687103,245.32403726682205,190.5536907909092,-261.805613602647
3.3212499,-20.00766437209493,3.992204352107989,-13.27625242917871,236.35305674191403,187.1590878269283,-256.5032712251738
3.3312499,-16.52864967077031,6.911285444719264,-11.84293648165664,199.81094421076844,179.78180929582462,-249.9258734182665
3.3412499,-13.157752751529248,6.439546832475621,-9.973758500173837,156.4910619806904,174.26326752196346,-236.28980565523796
3.3512499,-9.939790832571664,4.202744691610235,-8.678834187662233,121.33356356290948,170.23186939525198,-214.75252699481305
3.3612499,-6.112930315936433,0.9526131191504017,-7.025848253026141,99.48442355535252,165.58375906430715,-183.47825066894615
3.3712499,-2.9339112545055452,-0.6874983417842673,-5.778914518118861,91.37084452208813,158.49757901548915,-149.58129229963967
3.3812499,-0.19861224425269866,-0.3100591222610147,-5.63414440225129,93.9079428945347,148.56133206793743,-122.57639566330802
3.3912499,2.7296654574525863,-0.3011427198717473,-5.680320577526677,104.73686710317925,139.76722902794896,-101.68406761029289
3.4012499,5.186950346177854,-1.0954202467152052,-5.567176504668145,122.02244337081932,130.91199918163517,-81.388152571003
3.4112499,7.071285407698123,-1.8959839925675654,-5.351495593278075,141.08582190518803,121.30106532006612,-58.645326200829814
3.4212499,9.025594989255074,-2.3959654746640835,-5.005075286187173,159.60872330157127,117.38955897017418,-35.25960858929717
3.4312499,10.120729999244409,-2.8263408199062754,-4.715846256609304,178.83991489038218,116.2189043728083,-15.225105189557004
3.4412499,10.281374330489678,-3.204809870113554,-4.527935114894976,197.10745936599787,115.04472522213092,-0.5165940682373964
3.4512499,10.836142181042318,-3.632084081480725,-4.70487115331493,214.11692098980856,110.97423305657114,7.202157209380847
3.4612499,11.991091586256468,-4.4845799800565285,-5.1377792804858835,232.97373682775842,102.80777989343058,9.085369133788085
3.4712499,12.465811000081496,-5.1920521608962185,-5.627619202183308,248.6821775058426,93.8263332833546,8.822340828642295
3.4812499,12.084017908029578,-5.03879900441657,-6.305560709982583,253.64142539151206,89.26951506470492,7.554709553270161
3.4912499,11.631831999259113,-4.08445585504583,-6.923432187584383,245.83638683006342,91.19858757990782,4.577953430365257
3.5012499,11.21388125933321,-2.9377480982822815,-7.115572872203649,227.83495769524612,98.40028786458889,-1.613672010564119
3.5112499,10.844787484975463,-2.26237642722136,-6.9614854858755475,204.20466563203505,110.47482584783096,-9.782729765969362
3.5212499,10.926352201125924,-2.2608041422361995,-6.66800317430297,179.46400219009533,125.07454898337477,-17.2883557855713
3.5312499,11.324254535120351,-2.7524730999650933,-6.082693130161064,158.1590472850129,136.78553337572032,-23.82749172004363
3.5412499,11.537887504666484,-3.417154056495466,-5.264544597382286,144.48310834115557,142.49932003631204,-30.21560787105005
3.5512499,11.291111699100954,-4.088936197343473,-4.68959561029361,139.65360912068448,142.21986602862427,-36.25212147183174
3.5612499,10.570663599800058,-4.608020098102156,-4.6834293335735415,141.72334396426479,135.5120698294571,-42.28539837981518
3.5712499,9.904836864408848,-4.90213679876951,-4.79083748118194,147.50807816999622,125.89791447281362,-48.70627660347321
3.5812499,9.41063529463061,-5.099314287499576,-4.474239229727388,152.45058860779022,118.36515405537867,-52.24825262519818
3.5912499,8.901130605030444,-4.961064618454446,-4.179128673802824,155.61134645452952,112.26644140451906,-52.78779787821061
3.6012499,8.476628247848247,-4.706759603687392,-3.943099643250985,158.26048761960507,106.51768183009878,-52.69601167586656
3.6112499,8.400813117302292,-4.563751070451746,-3.517975054704702,159.86790852142468,101.99067065880519,-52.75567570013558
3.6212499,8.781233377762499,-4.431744998081335,-3.208139390862413,161.09161700042466,98.75026090647751,-51.722450961321094
3.6312499,9.239471444351036,-4.399153586056274,-3.0596386421726156,162.00850017357973,95.2809268160646,-49.0254321574635
3.6412499,9.344033168619877,-4.2738217626410755,-2.857066193891563,159.84844256827537,90.83698619634131,-45.48524562642309
3.6512499,9.338392501543758,-4.1005356852696435,-2.686074582131714,154.2449364939467,86.37871979285894,-41.789285242125445
3.6612499,9.360342158842295,-4.176755251926414,-2.5066212232983114,147.5570228482022,82.6400617344112,-38.775359471706665
3.6712499,9.25109477200011,-4.415671775304464,-2.252411567723186,141.4340239475122,79.5126255250082,-37.24182758286668
3.6812499,9.021267216404393,-4.640605768447706,-2.040749928978224,137.05665341718097,76.55226723400493,-36.99702895839214
3.6912499,8.687062252567143,-4.714874649847098,-1.765547905171209,134.8349889606445,73.01269636524184,-37.36496577859407
3.7012499,8.387963623518713,-4.724336558445841,-1.3513313010841688,134.67863902217633,68.83371598342124,-38.76170097747002
3.7112499,8.20041943028737,-4.9207021711908725,-0.9813884050027041,135.586971334029,63.921503866667365,-39.714522027445014
3.7212499,8.2046015634614,-5.365882586478629,-0.7696679235780155,136.70813161708804,58.76135704852668,-37.57659547705031
3.7312499,8.085236494283555,-5.651119944090358,-0.5999384797262582,135.961783147524,51.93863252815912,-31.710585949124315
3.7412499,7.900074058385552,-5.523181314272301,-0.4435177477801127,132.4286111141031,43.73198448390197,-23.526228961810396
3.7512499,8.013969888394167,-5.2525999383827315,-0.4673578771864746,126.86513012910058,35.71616257283729,-15.87584388551241
3.7612499,8.138147159127138,-4.683069826117712,-0.7183150929868831,118.76862689575563,27.324145571825962,-10.841594946970389
3.7712499,8.293339091816335,-3.884542840970516,-0.8922560037344072,106.15961898172604,18.4316376230168,-9.89523408326072
3.7812499,8.50961692619643,-3.3016382526168884,-0.7939070487437822,88.54191787437576,9.71933595960726,-13.155799603701904
3.7912499,8.59112574618715,-3.126349165844979,-0.7537107486298774,70.51630372456668,3.224984178618892,-17.485073910924868
3.8012499,8.655471465881016,-3.1206023208808715,-0.7479054823098897,52.52830169358377,-1.8772398610663361,-21.21170614648656
3.8112499,8.850672280649494,-3.3472939041778234,-0.5460265085686923,34.74116374336687,-5.789086547305882,-23.507922344581715
3.8212499,9.092084901249436,-3.5875977516233855,-0.321677549068159,16.86007416580393,-7.2933701947542335,-23.06891187861387
3.8312499,9.270174915180196,-3.533772461779571,-0.2365557700506832,-1.6541823354369873,-7.19782422471877,-20.840541739869757
3.8412499,9.422647600112402,-3.51884910465329,-0.21491286674492568,-18.399851806104135,-6.229182833416836,-18.51022389028206
3.8512499,9.40273588010775,-3.7651340406533516,-0.20962639961358182,-30.733867284389806,-4.631496354172876,-16.69732990754513
3.8612499,9.201904261563364,-4.114120576934724,-0.12612692658797922,-37.94715892145315,-3.06885697102819,-15.1281301245211
3.8712499,9.009510908706174,-4.517184470735373,0.1285005484408947,-39.9744187293947,-1.9780012155304834,-13.862522431738588
3.8812499,8.849337810989768,-4.942751572057574,0.43756460074082615,-37.09257141326712,-1.4877180638960223,-12.900059614251726
3.8912499,8.621594959696745,-5.254865661367161,0.7290479967169523,-30.394587612090003,-1.4174884574455582,-12.625311491854882
3.9012499,8.4341822731905,-5.550574737572779,0.9061306870371807,-21.20859351154721,-0.8687799310569843,-12.947120454821533
3.9112499,8.331762893915558,-5.96272597633858,0.9339202994396761,-10.086078816064589,-0.6509518301270284,-12.325131308523606
3.9212499,8.22776812885455,-6.149546956373183,0.9295160576009981,1.1092062714954198,-0.9006625159418491,-10.586069870278488
3.9312499,8.11495008350284,-5.976433787660536,0.9111468402792019,9.529635966617608,-0.6717135668293335,-8.321366405462443
3.9412499,8.041647667499623,-5.5354310338403625,0.8428566521037639,13.555509222786508,-0.34052813318222147,-6.351155301884103
3.9512499,8.050667349232606,-4.998589590347174,0.6767811491366602,13.715464211166319,0.015471502640111837,-5.204895740910305
3.9612499,8.025591044898455,-4.609456355042355,0.4542742816859977,11.304633672138705,-0.1855798169120848,-4.8620248104257975
3.9712499,7.949061764288448,-4.408559801770176,0.3824694032560034,7.359083261525076,-0.966587680694066,-4.3284938677223845
3.9812499,7.936323688977747,-4.165963544158718,0.4010247801556541,0.9002351926517604,-1.5209418831662682,-3.583177481501281
3.9912499,7.976057843774873,-3.941864848546682,0.3543586379564872,-6.745939752841171,-1.966836592349158,-3.1526412622716755
4.0012499,8.046893690858061,-4.018571741981384,0.3186781945913892,-12.24861550023928,-2.438678047314583,-2.8605971198836913
4.0112499,8.1885487097275,-4.352535955607057,0.34487889158934837,-15.589778347158044,-2.577882643405049,-2.0316394501156454
4.021249900000001,8.304748128216291,-4.721173895725526,0.4102523244641819,-16.718480088882313,-2.6752615409564995,-0.6646152048361877
4.031249900000001,8.357190292943386,-4.96168101857555,0.4961544295143579,-15.620810488290294,-2.558052180587757,0.5682612104894613
4.0412499,8.39032409656123,-5.125288822381432,0.48581954483668405,-12.946116709922464,-2.214257734897941,1.3788825100099222
4.0512499,8.423637978264669,-5.265540513486043,0.36630253725972345,-9.788366100630153,-2.0404194354680225,1.9682959480954108
4.061249900000001,8.406302281884692,-5.385339337027487,0.2972382468397074,-6.972222111934221,-2.1631273234393817,2.508794977160284
4.071249900000001,8.365803248801624,-5.508480249929747,0.3909291951802808,-4.545278753790623,-2.1243189089052033,3.0405662044349313
4.0812499,8.41180657018479,-5.599317827522961,0.5085617269405166,-2.3266260111245955,-1.5938533259674323,3.0706084840603936
4.0912499,8.424936847401522,-5.660264276174301,0.4452430802610679,-0.07622560435492393,-1.3102934283646093,2.42478846317359
4.1012499,8.423353370450933,-5.677107788133438,0.2826662508355474,2.1135551359906186,-1.6112597679953617,1.8305755063566587
4.111249900000001,8.457423433250497,-5.506751736272548,0.14806136460501704,2.839553605889451,-1.9925548914659932,1.0757630242860086
4.1212499000000005,8.484469546112175,-5.28508083372582,0.08236805912554668,1.798145831399487,-2.3269709556045806,-0.042379577751542
4.1312499,8.511512147138328,-5.193852322571847,0.05215613978746503,-0.2965456387715196,-2.5948489911903048,-1.0966600340773947
4.1412499,8.471276929290715,-5.131631030646473,0.03340924554774119,-2.691987032492859,-3.1177533000080784,-1.8619468747696222
4.151249900000001,8.38195200142196,-5.1504511571408145,0.08785636644955416,-4.391739474571998,-4.016639313542584,-2.442461923757328
4.1612499000000005,8.346749456882804,-5.265940189291567,0.10623304020904367,-4.844994292414214,-4.451276562999607,-2.6805422603577376
4.1712499,8.340956826534727,-5.2780871913676135,-0.03029797474714122,-4.722933374609065,-5.050490882777762,-2.2331912999862964
4.1812499,8.357948039778007,-5.145908231576655,-0.15601938640673577,-4.7907751413733015,-5.969303370065552,-1.3491322437670672
4.191249900000001,8.380074735604815,-4.990388919009773,-0.13987327635284938,-5.734374643430123,-6.4398332689399576,-0.48351518338913874
4.2012499000000005,8.376814206120581,-4.862731510437545,-0.09327030154766633,-7.924755286116417,-6.306442357675549,0.005291792011509575
4.2112499,8.424865029107199,-4.8471676415628835,-0.12119352162755509,-10.030452591246977,-5.7725283283995825,0.3041082552757954
4.2212499,8.433173998129876,-4.8914539755237305,-0.16443026836482652,-11.249359703977143,-5.221122622671146,0.4829810940582352
4.231249900000001,8.381387171820684,-4.942616455502479,-0.161327408195613,-11.650209826840939,-4.761705804893339,0.6186567606960668
4.241249900000001,8.309649748328598,-5.020137766631175,-0.13012529750460305,-11.402641116674245,-4.378556654805272,0.9464354606048164
4.2512499,8.242943383312621,-5.082892201297734,-0.0898643823969559,-10.62402110173534,-4.086139843027554,1.376233240523944
4.2612499,8.229069441124961,-5.102846696441901,-0.07720793903249142,-9.574436495791081,-3.934436832296439,1.8943134652261955
4.271249900000001,8.231765641190261,-5.066142238201628,-0.0865665043731401,-8.55231554856346,-3.899834713556278,2.2321347153470055
4.281249900000001,8.254571587716004,-5.01530747356577,-0.08223425769515519,-7.969709962180261,-3.864128078826149,2.48175434835954
4.2912499,8.325384075211277,-4.890863363693514,-0.08834259775828898,-8.367914634559439,-3.4242563392306096,2.742258046220212
4.3012499,8.414688584238982,-4.725017661830615,-0.09187402303447291,-9.687620814639923,-2.44257908298813,2.7936189928269544
4.311249900000001,8.418301564070864,-4.541531891314521,-0.0943040244194864,-12.11009590988894,-1.4948317842321162,2.8545076606878785
4.321249900000001,8.415486125703447,-4.374055349249783,-0.12003422918312769,-14.827205060575201,-0.9364590028794715,2.827978511063852
4.3312499,8.485937821907687,-4.361904369119048,-0.07687749666896465,-16.766470531910592,-0.39687962817175515,2.9428731066753535
4.3412499,8.499157005692766,-4.412706459757936,0.03478066431496667,-18.52123971933257,-0.14252757980337935,3.6303916586998306
4.351249900000001,8.492829984266802,-4.440876194293172,0.035400791935607294,-19.662915600599234,-0.5602165124781755,4.686093747557157
4.361249900000001,8.495546977306205,-4.4798974714453745,-0.0145094247130806,-19.801004313569408,-1.2644433636752321,5.627543298852508
4.3712499000000005,8.443422958060532,-4.547287431876157,-0.0052710710605275175,-19.199690363746537,-2.5299525242542495,6.653382378816422
4.3812499,8.372547796833263,-4.611533517828334,0.02060381988704479,-18.654308444867937,-4.118404788304122,8.336652412922929
4.3912499,8.278864810748452,-4.614462437882077,0.05668436374822276,-18.628902646742432,-5.939086322021919,10.095258569263578
4.401249900000001,8.108986173738057,-4.5555041923444834,-0.01782765479265416,-18.914648236646002,-8.917335519885018,11.740011359659055
4.4112499000000005,7.952660078334044,-4.5708618197343345,-0.16221863618626356,-19.314328421780306,-12.433747976803286,13.735022366644262
4.4212499,7.820561750824642,-4.650193694534256,-0.25773882962513367,-19.81762114191151,-15.850677816137827,15.913513269396
4.4312499,7.651062784672762,-4.693048164097787,-0.3717224617121735,-20.730457365235914,-19.463238061708438,18.597666129298908
4.441249900000001,7.517326321523306,-4.653776491917212,-0.5183986501372412,-22.520188520512338,-23.262111301449487,21.580545836360752
4.4512499000000005,7.444605039567643,-4.62916953943365,-0.6283883693626199,-24.94968692122419,-27.074754607419276,24.779962752970548
4.4612499,7.374056517886864,-4.615976070264205,-0.7183821555353151,-28.28260271323193,-30.84154983954946,28.53589203271291
4.4712499,7.382956303453727,-4.538099782866544,-0.8684151659337523,-32.52551851689958,-34.48740446717739,32.52609672985544
4.481249900000001,7.439963570240944,-4.500937954492198,-1.0440338060781538,-37.058081093475764,-37.997596323714724,36.2654758719557
4.491249900000001,7.45396823887,-4.524624606532328,-1.1659764544458506,-42.04594566318318,-41.429242731611026,40.191425109629414
4.5012499,7.435403376892479,-4.471696015448735,-1.304848768162205,-47.981608780746534,-44.68737724455592,44.01003841689865
4.5112499,7.454419581121924,-4.324059423495378,-1.4749854766969601,-54.446446635617896,-47.970018941658005,47.37639987045748
4.521249900000001,7.490921994476111,-4.1802050089172855,-1.6082339480524097,-61.11847496647001,-51.46058666356832,50.4076519840601
4.531249900000001,7.480259666774924,-4.052963426065149,-1.7346081665006565,-67.79254949603458,-54.89698356462861,53.17227216330652
4.5412499,7.429452720757983,-3.880057915266758,-1.8848739813760518,-74.55833484624401,-58.21963414558502,55.97683692604693
4.5512499,7.386145293841272,-3.7086989619505566,-2.0690624821441155,-81.17615324501814,-61.83605053839931,58.77412943880305
4.561249900000001,7.365467058448988,-3.528838003829319,-2.219920801049954,-87.20186606577484,-65.82773750804051,61.40234448291321
4.571249900000001,7.407640066480984,-3.2790575399469883,-2.36583021896158,-92.28963186909515,-70.82091179356188,63.83735319529613
4.5812499,7.835179065132484,-3.072288267036975,-2.59813700088653,-96.59018091522618,-77.50200928488388,66.26231822763513
4.5912499,8.540792046233339,-2.989158692535519,-2.8117615636992443,-100.3299366626052,-85.4818345132745,69.12352295364964
4.601249900000001,9.199562680447634,-2.9192381605791047,-3.054136158552134,-103.79400769463632,-94.35735000647229,72.84020726933585
4.611249900000001,10.22462141707283,-2.7651727614372135,-3.432278836289566,-109.41695479119383,-105.19941737030457,78.27209826463226
4.6212499000000005,11.898350787291673,-2.4972999700995655,-3.9585210412164287,-118.8574214495004,-115.8347103357807,84.26848945778131
4.6312499,14.039610948126617,-1.893620466545615,-4.742807712911722,-133.4756805048382,-126.49389794533836,88.44113684161154
4.6412499,16.722696828205752,-0.8660200060621531,-5.543380089631024,-154.27313535743178,-138.84673902645397,88.33777784929454
4.651249900000001,20.325346705999724,0.3849351687312762,-6.2364891494407235,-181.8026549312905,-151.22903172104114,82.31159776003683
4.6612499000000005,25.06027909187611,1.6411143871087228,-7.0187327059837035,-215.39813244008351,-162.62855636244575,71.64309687760732
4.6712499,30.795560752957776,2.9879327166142335,-7.484623786017547,-253.44407743858935,-168.95377981942963,58.43356981291638
4.6812499,35.972202274716494,3.6465367559662796,-6.6844709702383005,-291.98871498687487,-165.73544174791618,46.6406089391501
4.691249900000001,37.92834761562859,2.58543689421347,-4.545997215196938,-324.620047615327,-160.19549612820654,44.13233367940015
4.7012499000000005,36.14363323213252,1.2990291188545429,-2.5929256668654777,-351.6898699392228,-159.9947264721287,56.37230040754174
4.7112499,32.91637494521299,1.3786045544291918,-1.0679676746024236,-374.84396030240237,-157.3721914884982,81.908234333724
4.7212499,30.145587718120865,2.625810301135506,-0.15108054485150796,-394.857649838326,-150.35849966806504,114.90634043594702
4.731249900000001,26.364266283389878,4.494899476437281,-1.1536324685934782,-419.57333639105724,-153.4399334685195,150.87256595914076
4.741249900000001,18.663673650279545,6.2923225299650305,-3.8163650137313843,-459.6030571741399,-175.29342436938038,187.4162675814918
4.7512499,6.071168255912089,6.386883808472317,-8.466626446728773,-496.62177715652354,-214.92941834266566,229.2657859953471
4.7612499,-10.765752666616326,3.641751343336917,-14.662693299499738,-500.91337829777564,-267.988826530366,282.2747537680124
4.771249900000001,-29.63745660364926,-1.7605389875632604,-17.335292696941707,-499.0011802894188,-322.7987497426399,328.78344864451293
4.781249900000001,-49.114356516673865,-9.38826481308524,-17.701026818056746,-503.3307071755348,-364.37088316463206,352.7281436801566
4.7912499,-62.914138043748686,-14.864565738559474,-20.395632111155642,-448.8793005076882,-357.8385904689732,348.8251706797689
4.8012499,-59.22003302329726,-16.31260062856343,-19.17662203951845,-313.5568788230151,-282.83593701016855,312.5979471685061
4.811249900000001,-37.13701933277532,-14.05062977965335,-9.864243004907134,-168.69749949409103,-153.25737045141844,240.65946701272253
4.821249900000001,-16.537680116468906,-10.033810918779066,-0.6337555296829338,-44.210648165465386,-3.3820667260766353,126.16204020491998
4.8312499,-9.826714171892508,-6.843979016208663,-0.06718827665474048,53.38387228539631,103.7060158983214,-4.106420591487081
4.8412499,-10.743660918447407,-4.417123280324745,-3.2579741688040422,134.635717551608,163.74492857467143,-124.71222523798005
4.851249900000001,-16.555165114548657,-5.543025751465871,-5.659262272209112,212.93493155564394,190.25072788430802,-201.52733783563673
4.861249900000001,-21.499247571221417,-5.480831468887021,-8.141029383941026,271.1406798591666,196.21763157075355,-227.07656605505892
4.8712499000000005,-22.178332863526286,-1.1930923628956285,-9.944615566279879,290.04857519194053,190.9386979060182,-224.40643857901816
4.8812499,-19.474213472964255,3.832427737083885,-10.380520896630681,272.063408994952,177.08350688271247,-215.7315439964389
4.8912499,-15.026997415183578,5.7782758452419305,-9.67374537926017,235.75738970885652,161.7461904172422,-207.3747951008116
4.901249900000001,-11.585852097254973,4.561022622846141,-8.753326246824091,196.29808927819306,150.19937662486643,-191.88404515776654
4.9112499000000005,-8.750371841166777,3.540606991694249,-8.394061570679064,156.22451015498157,142.1915935407374,-170.34538557579054
4.9212499,-5.082005235572644,3.3471974362178445,-7.98548088579776,121.2882312154288,135.09572021026926,-152.35685778200448
4.9312499,-1.464654030271313,2.3680727395682046,-7.653813236068598,99.99148985031006,128.51495197986026,-140.29037098795058
4.941249900000001,1.429408034031719,0.4808365469112217,-7.690910645834686,94.2523174995389,120.96642480512253,-129.09230370067118
4.9512499000000005,3.8262792070104314,-1.5859082619283429,-7.8360155142038455,101.79994019176549,111.65297059324956,-114.10191330474821
4.9612499,5.835510151835515,-2.772694135453901,-7.774358609904913,116.36054790553743,104.78489525480065,-95.65411071681038
4.9712499,7.0819994168366875,-3.4354014230982997,-7.558791449031904,135.52767595703003,99.22226416780381,-76.09072583583499
4.981249900000001,7.731850937831369,-4.552094169034584,-7.065669006961615,158.88020139621528,96.36351923143177,-55.08514758490633
4.991249900000001,8.321115749087694,-5.334154442869189,-6.306029355346362,179.4908911826647,96.24464260287195,-33.4901766607317
5.0012499,10.22449882407486,-5.146501961116499,-5.901985466386553,195.44002232527114,96.96774100806296,-17.423737246714957
5.0112499,12.942060350080679,-5.046991521258319,-6.251269543233613,211.33955361566933,97.81470584689592,-9.630357808963128
5.021249900000001,14.387584704418785,-5.332662671585826,-6.783109101038961,225.22682536108007,99.70095276697195,-5.6945107810512985
5.031249900000001,14.003525683422138,-5.118443064180739,-7.325219116393313,231.0767447992418,106.25898869468782,-2.654937385305577
5.0412499,12.555094535239128,-4.465421233333549,-7.739047266299004,228.36178740603054,115.24983298074086,-4.296976977148742
5.0512499,11.203812362399415,-4.037907733977422,-7.997574497535956,222.87550936799028,125.08820188642211,-11.195368475675409
5.061249900000001,10.552668047087778,-4.05928737376811,-8.038820584754056,218.69631808064855,136.30760694852032,-19.5171026672979
5.071249900000001,10.542852586819828,-4.398856845723479,-7.646097767944715,216.82019410892084,147.12124371065622,-26.16300521459242
5.0812499,10.817242372388476,-4.571201560205042,-6.8922672013796635,215.7358009278914,154.92462251214852,-31.126607204640855
5.0912499,10.997302440809028,-4.75013552262216,-5.888863306690378,217.24812644840966,158.26775822548686,-37.184329026253764
5.101249900000001,10.907034301232612,-4.9963671142517905,-4.860257337041475,221.89880723115593,156.2954380349631,-45.69324692222425
5.111249900000001,10.774891728277405,-5.265001970894661,-4.435360494174331,229.51768555673704,150.1211452311282,-55.06413336574731
5.1212499000000005,10.442449872104252,-5.5265058031616565,-4.767570885786056,238.1417974912091,141.42308474300506,-62.93325669367572
5.1312499,9.869661479363481,-5.4153423059706265,-5.192170250140469,243.41248252203158,132.66019220387844,-67.91372993312817
5.1412499,9.261978446704099,-4.67607252552231,-5.077721602436591,243.0138605407685,125.06908636290059,-71.61153084265996
5.151249900000001,8.754261351493058,-3.6599267016516848,-4.485109489485421,237.11039486581353,118.61898241708916,-76.91334213763214
5.1612499000000005,8.392131815141322,-2.8799130480606627,-3.7017417370933763,225.46827805999962,112.7778449135801,-82.96374656491113
5.1712499,8.268659939737008,-2.3261424837794293,-2.8903124962762394,207.11263457005182,108.73330947698062,-86.85325841139229
5.1812499,8.589947170294993,-2.7611234922227847,-2.2430778451472633,191.971629225213,108.37777608789494,-86.20383054285668
5.191249900000001,8.807711370427741,-4.155166980935353,-1.8960744398832585,183.62750838763958,107.78260796612109,-80.98800800483284
5.2012499000000005,8.379043124951869,-4.625861335406522,-1.8267016447836104,172.59841402315942,101.24231665037672,-73.06018599503533
5.2112499,8.125396891907615,-4.660030250368792,-1.7776126869435669,164.064125194549,90.4129550841858,-65.23847097503467
5.2212499,8.289672077619185,-4.429127811857033,-1.7191047125986756,158.84414019963958,78.49829188244824,-60.42716530949718
5.231249900000001,8.386105799028446,-3.7673141945933213,-1.7983072916299063,153.74441559193897,65.80320833184942,-59.590736621059385
5.241249900000001,8.37539026867265,-3.334581435398568,-1.6104131111982285,149.04597395494696,51.13121413892446,-61.64755132255982
5.2512499,8.464665086321764,-3.294511123208991,-1.1568429504099071,143.8868188573028,38.85593596487759,-63.61841306127194
5.2612499,8.76319781949476,-3.3493074734865416,-0.9207881313154341,135.88069878047173,30.149201312853542,-62.53968697990242
5.271249900000001,9.10685589881354,-3.1813491464391683,-0.8538764373708283,123.35832050691411,21.979980273027458,-58.58100482689581
5.281249900000001,9.639440752767547,-2.947718411699385,-0.7391346749668958,106.6102333617448,15.764665601279999,-53.13012392145832
5.2912499,10.037443311126916,-2.5237700555687446,-0.5959836049000093,84.19213941783045,12.035162564407534,-47.71159127985691
5.3012499,9.667887651311881,-2.052996647536822,-0.46962117805424913,58.14096782725538,7.990186213250598,-44.019342667878966
5.311249900000001,9.344244180829518,-2.0792111097124044,-0.35147409518812217,33.412202569778046,5.51580969163056,-41.33939582652927
5.321249900000001,9.160615612442488,-2.473733731975187,-0.28339303604076516,12.604398614173114,3.8312827231535893,-38.59491916980833
5.3312499,8.833634557087604,-3.0461065994536387,-0.24359076642289754,-2.299099242764132,1.5766429825510098,-35.6974820180025
5.3412499,8.364905658137637,-3.392405691619924,-0.26138902300266975,-12.039371681202015,-1.4332891774055907,-33.01745548959347
5.351249900000001,8.17689018468215,-3.554224480389104,-0.21552826246852105,-17.1344953808207,-3.6558667442625987,-30.718272115315397
5.361249900000001,8.210690929547011,-3.5163119041469058,-0.07776799013379182,-20.29686427351002,-5.5702306840184,-28.505475253069452
5.3712499000000005,8.252401721631964,-3.4938655480575074,0.0737112653653299,-22.427611573403368,-7.0030016608777,-25.922818331602077
5.3812499,8.34452605534947,-3.652536814733709,0.24984166787605377,-22.651852276391264,-7.522994327377308,-22.70366669128401
5.3912499,8.483251403769675,-3.878350676153835,0.3982542995460343,-20.073046442385287,-7.196676510012178,-18.716898063137837
5.401249900000001,8.608966218645769,-4.0535764047059795,0.5358421707493418,-15.04967072582959,-6.63874215672089,-14.00552160646916
5.4112499000000005,8.797883218926533,-4.119790220444938,0.7077231422658657,-7.93326953244689,-5.913656260572771,-9.044280600684903
5.4212499,8.981914376889929,-4.061806237052842,0.7764777123165161,-0.10981765687237738,-4.72013512006673,-4.685956431487295
5.4312499,9.042535896011078,-3.876615735890877,0.7409753071464066,6.427784767135301,-3.8562139594031026,-1.051682177639122
5.441249900000001,8.986361374520436,-3.6536941300452015,0.6831161801443062,11.144779105900177,-3.5983989795946933,1.8574385001808746
5.4512499000000005,8.941877936428163,-3.417371371809226,0.5138792976291264,12.744072105490297,-3.6662852719782655,3.464712969477548
5.4612499,8.968579625022667,-3.1731119111965165,0.3115775811613158,10.415902818870801,-3.8992660466079654,3.6400853821539387
5.4712499,8.92482829434024,-3.012384144741709,0.20604963008222651,5.84708536711443,-4.452674118999147,2.512988936900365
5.481249900000001,8.893822114057798,-3.054819100214732,0.16074455078937414,0.37829213394893435,-4.814458796804104,0.7319481091659772
5.491249900000001,8.90771545578475,-3.3402125641846445,0.1442430299860995,-4.507363149845045,-5.13416353226432,-0.6451524850469934
5.5012499,8.865344911078324,-3.7446607016758953,0.24187572763437937,-7.29687725015852,-5.446177552156602,-1.2004704727056197
5.5112499,8.864819095912683,-4.135479650894516,0.3630360485617568,-7.0658491029700565,-5.208206787948772,-1.111790415694145
5.521249900000001,8.91078529901223,-4.4957832632648405,0.4104153392368331,-4.277854498260595,-4.958204244337826,-0.2967331517828139
5.531249900000001,8.946417311590281,-4.703035903573465,0.4361966368736765,-0.18223077710879323,-4.585080861886839,0.7735500919465561
5.5412499,9.04046283908839,-4.687950604843379,0.44584430179637696,3.0728203753045875,-3.5368642575443956,1.9074990589458074
5.5512499,9.168886223216546,-4.455691135229938,0.3137276425744354,3.386160886267483,-2.1961112080327734,2.3167253425521603
5.561249900000001,9.183628647479365,-4.215048986537101,0.18450698211386005,1.3508809424907857,-0.9135933708727377,1.7950524453145753
5.571249900000001,9.076607448106346,-4.1089261327658555,0.1519282050894846,-1.8705244746423364,0.02028628957678935,0.7304092043345353
5.5812499,8.968209856070313,-4.20955006783925,0.11985242152285691,-4.187366166281995,0.3899876916883006,-0.27462635218218306
5.5912499,8.858195855211756,-4.443169609007524,0.19756965696518813,-4.372458951756658,0.31249250863607747,-0.9673815659717875
5.601249900000001,8.7143601273122,-4.596663885150763,0.24267787919744077,-3.1256183087091483,0.036776212668372985,-1.268082514737359
5.611249900000001,8.593298749146829,-4.602470345362731,0.12955984555715971,-1.9486761970782258,-0.4087064290815824,-0.8582330461591047
5.6212499000000005,8.603113072063909,-4.560460229548269,0.06222197803441712,-1.3596625061109173,-0.9286978170979102,-0.1854687041880559
5.6312499,8.712398875285052,-4.45020576815729,0.10770063262369503,-1.7651622694009055,-1.1000498409529447,0.46503608396881535
5.6412499,8.77491356881197,-4.345485895412918,0.22369019937684895,-2.8489441489421026,-1.169644926543421,0.9592054293842869
5.651249900000001,8.82546310181477,-4.300535299376228,0.30658937702076694,-3.825971121979948,-1.1100545811021962,1.302475299155905
5.6612499000000005,8.824155363561706,-4.302746213394272,0.26834176634714657,-4.458768885211752,-1.1692765590227352,1.6997262828493025
5.6712499,8.681690563139533,-4.427077394750407,0.1731933354096795,-4.663695462717736,-1.5341624025476146,2.5008712273834717
5.6812499,8.535137041124745,-4.501464971369703,0.06971456054243658,-5.061882779348295,-2.046623287150985,3.534568314324294
5.691249900000001,8.483446852141123,-4.533565837155474,0.00758444190894846,-5.284518767638486,-2.8368563310314863,4.334363621809573
5.7012499000000005,8.478100366265808,-4.648816662776591,0.029629744747755274,-4.457680479111727,-3.5193166273257153,4.806621259695254
5.7112499,8.532293850396337,-4.732786610781821,0.06654622224257291,-2.934165651499811,-3.5387309258139332,4.722528890723056
5.7212499,8.629130445862568,-4.745979905518025,0.004585169189242363,-1.9954482341633448,-3.1804234335245036,4.568327556224365
5.731249900000001,8.680334212998071,-4.751384701275618,-0.08502479784172703,-1.7900675331634115,-2.771637511036851,4.677253518187481
5.741249900000001,8.745926936807539,-4.690262995581366,-0.038059942694677946,-2.096537976766467,-2.3294402527750995,4.75203042857611
5.7512499,8.808962267834737,-4.604639605998674,0.07776060273706882,-2.687998168518596,-1.7534641135386737,4.412627204763945
5.7612499,8.805144496428204,-4.590239491051135,0.1803282832100999,-2.724902094288625,-1.0964405389017762,4.00987114525249
5.771249900000001,8.811074532979772,-4.509409890027757,0.16154432473777308,-2.928746848067165,-0.41188100227781377,3.68071124126979
5.781249900000001,8.797155943510274,-4.348985284456796,0.011813320666225792,-3.9504865908799185,-0.26062428051845904,3.2894239148458824
5.7912499,8.773414782729462,-4.289113201945425,-0.026241185083889316,-4.908393139731047,-0.23670717672519573,2.980111044666363
5.8012499,8.756539816870301,-4.276090345143524,0.01735264819681469,-6.08197079782574,-0.14397899310651502,2.816293501243064
5.811249900000001,8.734252819171049,-4.301161679901369,0.030387042789416736,-6.836775650374397,-0.18855000663108037,2.748150059912366
5.821249900000001,8.721394403350807,-4.3857052760827075,0.08258218695554759,-6.367836323355737,-0.33626316149773433,2.906799551414114
5.8312499,8.72178338414324,-4.444370594191724,0.15598487576657752,-5.031591809244291,-0.42434554209364356,3.3383897387714083
5.8412499,8.731988480372129,-4.4468662080500705,0.17867487811951777,-3.3018085763444636,-0.6831030521470793,4.073297192266761
5.851249900000001,8.697963084068357,-4.4228137294057985,0.14438875881904242,-2.008386904307473,-1.1464189540628655,4.943958776204032
5.861249900000001,8.659952735825792,-4.3263765227771005,0.11438527950901721,-2.1351202260102604,-1.776433803502065,5.808017880508061
5.8712499000000005,8.65431206218611,-4.2059297624952645,0.07590750957513534,-3.5870662377432483,-2.2385972514409436,6.331135658435337
5.8812499,8.661434782643116,-4.144483597683577,0.03804852558325565,-5.806126706893409,-2.4917792600824575,6.4688453897297284
5.8912499,8.648307668396429,-4.146343388584282,0.03340045626806033,-8.343936930985882,-2.6601056267508394,6.652073916508808
5.901249900000001,8.587334496844042,-4.1973986433054185,0.005357832734267659,-10.592077434204057,-2.7567112604941153,7.238635338590707
5.9112499000000005,8.515348087734246,-4.252838088731525,-0.013464467063362838,-12.317038777759862,-3.0286975138630092,8.23314793183274
5.9212499,8.489836809497314,-4.312457905937062,0.014783836396242976,-13.31344937013509,-3.3395737178319806,9.220117737524832
5.9312499,8.50835174581118,-4.42389589634598,0.0569573754713444,-13.375568416341576,-3.8483114920003887,10.574529270057162
5.941249900000001,8.498774281664785,-4.502900017196125,0.030682006086907347,-12.98187767303902,-4.63190552323095,12.242369959079081
5.9512499000000005,8.452492610195002,-4.481925586500527,-0.07014677979621062,-12.371060386646521,-5.591841077853302,13.604384228124886
5.9612499,8.457515566540032,-4.411834018984883,-0.1526048689296034,-11.80409717334465,-6.782695561804263,14.927520748522651
5.9712499,8.49600190113893,-4.352251421786634,-0.1915001785720442,-11.840901675308098,-7.923292855251793,16.33951361435429
5.981249900000001,8.48460539365253,-4.204169146301703,-0.2142173317605678,-12.953340136836605,-8.846094429011295,17.710116007023952
5.991249900000001,8.467485201742592,-4.014520900446911,-0.29441838555401356,-14.942756707747083,-9.7785920704198,19.003395831445143
6.0012499,8.449170252270388,-3.950096331283864,-0.45116061647030564,-17.762115270962976,-10.852217367972498,20.703944432178965
6.0112499,8.312955228700696,-3.860260437839183,-0.6318692653978224,-21.970644154860192,-12.259320251632277,22.900750340243363
6.021249900000001,8.1632945322228,-3.7166596348191403,-0.7756083874580636,-27.067291241836177,-14.110378665917393,25.182655640232525
6.031249900000001,8.031629324688314,-3.6123861364659358,-0.8866054388622286,-32.73847825711233,-16.55905249559397,27.873384509341587
6.0412499,7.864699554562841,-3.5364673883053586,-1.0299531098205417,-38.75339204420833,-19.70119990263041,31.37241470164702
6.0512499,7.67267191598264,-3.427978992105257,-1.2455296001478002,-45.47477627196661,-23.353756299275037,35.51335952254921
6.061249900000001,7.454672156370811,-3.2458229327839816,-1.4504495720856037,-52.810296551723724,-27.51978539481458,40.05837338960106
6.071249900000001,7.2581082868339015,-2.941980667754145,-1.621542149862589,-62.33445896277766,-32.952874369467665,45.73522445249763
6.0812499,7.1511534851069705,-2.6324581438261085,-1.8036028877868924,-73.19081488304101,-38.6306656332867,51.89590442307644
6.0912499,7.135605391038037,-2.4365493436555683,-1.9100333424439562,-83.26305335466512,-43.7010982320528,57.49652826320499
6.101249900000001,7.253957495820918,-2.3180907270158007,-2.0099121819570467,-93.23521340798924,-49.045701487355444,63.383075320387256
6.111249900000001,7.456808521977236,-2.2747192589656766,-2.1530297182617044,-103.1292163906045,-54.68415135197175,69.9443767775454
6.1212499000000005,7.673298392295727,-2.2101916148675707,-2.305028864186749,-112.92750063488552,-60.57292803528266,77.06740772623415
6.1312499,7.984390069184217,-2.168060895325831,-2.3782826224285727,-121.86935458734058,-66.81894146648277,84.1043471501941
6.141249900000001,8.3342687585863,-2.3759431036297,-2.35190168181959,-129.02981115438163,-73.5684641476002,90.81713163674868
6.151249900000001,8.641350433745398,-2.777794200816157,-2.3513977977506233,-134.75952256284583,-80.78820768269172,97.37078135906627
6.1612499000000005,9.1643700957312,-3.0535378260382284,-2.513921027389835,-139.71868690141142,-88.32636230119435,103.46235772717118
6.1712499,9.957970899155747,-3.166716019432521,-2.7900999115014518,-144.64331439929353,-96.36709022957481,108.54718397977918
6.1812499,10.90683781897313,-3.2754337917131533,-2.9957903038442306,-150.13138952366134,-104.60764357358973,111.83062913384497
6.191249900000001,12.193787752612511,-3.100558079799253,-3.2512049939997305,-158.79058160017118,-112.39280608986493,113.06033446574986
6.2012499000000005,14.083420680475902,-2.362557789884761,-3.7078216483667332,-172.79528093193213,-121.22464867309576,111.08831978333896
6.2112499,16.58397372169841,-1.3350312107628541,-4.133047842590566,-191.41959782357256,-131.95582841137588,103.86293267240751
6.2212499,19.846236622887005,-0.292462070691968,-4.408687693501487,-212.88167061398815,-143.1484231401706,90.78763715817024
6.231249900000001,24.239232020395544,0.7315611850047125,-4.54681171395561,-235.38415883959652,-153.45077576512455,74.81338767130354
6.241249900000001,29.02038561289018,1.6885473744708386,-4.057063429034978,-256.5488788767327,-160.95868951793437,59.709670397226304
6.2512499,33.24441142725573,1.9125141710812799,-2.5932651447617494,-276.41247908695317,-163.01967902080585,49.84630280394253
6.2612499,36.38902159103772,1.0423104676741015,-0.7870699846473285,-294.15198038221314,-163.33252221007194,51.65370261376802
6.271249900000001,36.58984330380959,0.8009643577950033,0.673548351638137,-312.0933325573151,-164.38761650103052,68.13276541834317
6.281249900000001,33.323559176393815,3.607398053886844,1.4602073632592674,-342.27729962991833,-164.59258995745375,94.54790428715792
6.2912499,29.57337356206653,7.362559635455243,1.0710211777655232,-378.5477994386208,-168.65256344932783,117.14097685261046
6.3012499,24.86209980802266,8.66207065768797,-0.1610022646822367,-420.5389765340769,-178.3685504972144,137.30967736018943
6.311249900000001,15.517540190313758,7.84152386095901,-1.8410275936206102,-472.80921375697443,-200.4976427595042,165.1777202551971
6.321249900000001,1.1441283565378488,7.023766240177612,-6.5209033474949045,-501.4743003663039,-242.75708998648824,205.01755312389074
6.3312499,-15.939089838605893,3.968889863681912,-15.041378340767944,-499.0739963857418,-299.00550777529605,255.7922501721324
6.3412499,-34.43263204805079,-3.9913910070886005,-20.891893538759827,-501.78561185047283,-362.02442534976774,313.8421721632821
6.351249900000001,-52.004289770882544,-11.63341521780492,-21.69399964164219,-493.9439341189366,-410.1594887899352,361.58339630208576
6.361249900000001,-61.39940623030407,-14.242663311797685,-21.87267950625399,-420.87171163200725,-405.2595726055684,366.46155358289826
6.3712499000000005,-55.370577760969084,-14.44550424610589,-19.56652164315565,-295.9479237794829,-321.5749353804848,320.4489216495213
6.3812499,-34.79115475445005,-12.484500777440454,-11.628334883631654,-171.41943509805913,-176.73258592565782,236.65994840121053
6.391249900000001,-15.984653431641501,-9.35669330530938,-1.6411390031488482,-81.0610351171373,-28.34013143208808,125.27870566110958
6.401249900000001,-8.907726348372067,-8.41650562706237,1.4970986000987025,7.1841357611192525,83.22159358001181,-8.897870757643169
6.4112499000000005,-8.892133892719249,-8.66454563021794,-2.693507529902672,111.63182697779055,151.51443234775144,-139.08415878049829
6.4212499,-14.54459013835465,-10.198224397323473,-7.497777389394751,222.84473758380327,176.14033931835766,-221.2744136347774
6.4312499,-20.68056685933595,-8.959834309184032,-10.71989766073211,309.2227446779633,181.65512005780124,-246.20706408712795
6.441249900000001,-22.790765663666576,-2.267226707201852,-12.377065617166567,335.71679557379986,177.93945618541753,-239.24774300990376
6.4512499000000005,-20.237061013319913,5.827277966733432,-11.93457331104931,302.57589869059456,166.77545616900227,-228.58775359044745
6.4612499,-15.157410865642417,10.623407708514021,-10.538753792071747,236.0497694702973,155.70594254497954,-224.74106680793184
6.4712499,-11.084501029591625,10.132192231863097,-9.171694537790401,164.9128068713066,148.97333656892926,-218.3008760360215
6.481249900000001,-8.226841657442368,6.915444011935959,-8.14457376073738,100.62166273812244,147.01424842520436,-198.3319559964751
6.491249900000001,-5.416998288356675,4.550016091495646,-7.705188018477068,51.41921890017953,138.912629722934,-169.62318391558168
6.5012499,-2.422030371380818,3.210331833675979,-7.739814690359579,27.663050332342042,126.56375669617948,-144.97807208333495
6.5112499,0.4981226948769204,1.8961915603221278,-7.806501161156504,23.167392459580164,114.18473708303057,-123.85351234125423
6.521249900000001,2.7999099774724527,0.37619328244342515,-7.812792264938259,31.048475195427624,100.35215434820596,-101.84584857897435
6.531249900000001,4.716562258647453,-0.9524618990324502,-7.768041102880888,48.634863902338715,86.61906715635226,-78.92677328359215
6.5412499,6.624668343455612,-1.8989113162614568,-7.556013524298383,71.4014206645443,74.14776965718735,-55.13379861728166
6.5512499,8.057090906792926,-2.2494442286711673,-7.525579878246491,96.13878816861542,63.982747091469996,-32.62630330060797
6.561249900000001,8.612906625093474,-2.2272868949452946,-7.853490937758069,119.06907897742224,56.2846929535024,-14.78196457795777
6.571249900000001,9.11872570027369,-2.3758609430875626,-8.169823758453454,140.52077568797776,51.76406707037713,-4.770800857974754
6.5812499,10.013369863663485,-3.084230854605695,-8.815786643204335,160.74600432492554,49.99857756881952,-0.973580023850259
6.5912499,10.684694410548897,-4.47699350947436,-9.496505402092925,178.4375011280872,50.18750445317793,2.742543205461773
6.601249900000001,10.45817024406154,-5.187762156982159,-9.96345606519122,188.97095976176087,53.532177404249595,8.48732167903726
6.611249900000001,9.758393671564036,-4.716765226268446,-10.44597289694489,189.57245417835938,61.605487434695824,12.175789907622967
6.6212499000000005,9.335366929189757,-4.44197867261206,-10.71966574777629,185.2090285687499,75.30528567955976,10.918200724851319
6.6312499,8.948378846865163,-4.757227114087042,-10.570730538540856,179.06829822983795,92.2260424683308,7.033518175342826
6.641249900000001,8.46524542295678,-4.992016914560178,-10.000959541867807,171.6426398872785,108.4443538008479,1.7553254931758902
6.651249900000001,8.432135833693541,-5.232268283314741,-9.346070641751401,166.36209748352792,121.9429316841098,-5.654706646105962
6.6612499000000005,8.718333657447431,-5.456824032554613,-8.836775010461807,164.77086986248085,130.72583281524228,-14.728337295977271
6.6712499,8.894597654102444,-5.606675480106525,-8.474405596868007,167.8266218051644,133.87820024585062,-24.780610576600807
6.6812499,8.840634767041157,-5.834429365425015,-8.090361582334431,174.98144925985662,133.83084051595233,-35.19265275597268
6.691249900000001,8.45216673402242,-6.370876605203503,-7.363788123312692,186.39571508023877,132.79022968584346,-44.11014007533328
6.7012499000000005,8.000556106937694,-6.592974124270271,-6.589753825202278,197.80393561103318,132.81558032011324,-48.98550465408175
6.7112499,7.771398299985982,-6.087471796377858,-6.180626271878868,203.61336146473488,135.53774251865286,-49.80676694981228
6.7212499,7.578793679191001,-5.218011230563849,-5.887575489362062,204.75078328870498,140.0934180647637,-49.891740873747
6.731249900000001,7.37649232086455,-4.193873020888593,-5.5368765337022765,200.48481413026525,144.92873663297718,-51.75238647600531
6.741249900000001,7.288080476567872,-3.456095591052039,-5.279403997863917,194.40929147427252,146.95576811914955,-54.93560052203664
6.7512499,7.6242387854410385,-3.6457122295537427,-5.152966338340316,193.11885055627735,145.63563922961777,-58.96157896663339
6.7612499,8.021665719310338,-4.388225689578499,-4.954391096825716,196.0484932108308,143.41306994741967,-63.49583981956298
6.771249900000001,7.88848394638127,-5.124469704960456,-4.66867683710165,203.25614119440067,138.75236492132902,-66.6170055784194
6.781249900000001,7.559345357350978,-5.720368970114172,-4.34039078421205,215.19288598546046,131.1709250681044,-68.3188709040138
6.7912499,7.270061153577456,-5.972328403938525,-3.842844866259931,229.12232196786513,122.8252343701323,-70.12552969475234
6.8012499,6.946588625088693,-5.7119026901362515,-3.336606571510597,241.0704483717925,113.98066112880679,-72.54580953394256
6.811249900000001,6.875249540990297,-5.1752284316936645,-2.9564840797719882,248.82445097606038,105.28730173035231,-75.53094746088428
6.821249900000001,7.105191102097446,-4.915556427510993,-2.601154556160395,252.62269243066368,98.40998688664484,-78.69815839188763
6.8312499,7.326317540407225,-4.578572279861265,-2.2935142895032143,251.130546715253,92.54772267963149,-81.02044351009498
6.8412499,7.624968993759374,-4.205076260980336,-1.9573738205713043,246.3212562672126,87.07449326917713,-82.70734454232013
6.851249900000001,7.839660543192685,-4.10320162640962,-1.597671179304576,239.61124412564962,81.42920753528803,-83.375074243299
6.861249900000001,7.855776248584334,-3.8431288837447664,-1.357790072981389,230.37117708957433,73.78012544403839,-81.84196465813648
6.8712499000000005,7.74024523915394,-3.4657525828385034,-1.1224316560691712,218.24620088784923,63.02630284165221,-78.85162441506006
6.8812499,7.745339760242016,-3.118508702650157,-0.8921097570560131,204.79811254992484,52.98998636242681,-75.82730214752534
6.891249900000001,7.941654004201091,-2.6213562974855207,-0.6661702863163814,189.2421620057287,43.31416417839475,-71.87825231033959
6.901249900000001,8.316098421927398,-1.9401730867155007,-0.5633409843401536,165.07035334855124,32.45778696851872,-65.36886619982532
6.9112499000000005,8.5868575124658,-0.8698857567490437,-0.7973931067446732,135.54398433915227,22.87500460739229,-61.515540327597535
6.9212499,8.913253668729668,-0.16986885555797315,-0.878483285191742,105.61496304813718,16.71365640050558,-61.25463505104284
6.9312499,9.240466727023087,-0.19401602045866498,-0.6993694902798469,72.14505472780998,12.844940022141717,-59.30103228612281
6.941249900000001,9.27641574672163,-0.5436408093647936,-0.4265486425930198,38.91883204259914,9.241191601118706,-55.85298038949996
6.9512499000000005,9.336025823869523,-1.0801403084811545,-0.013607645569498351,12.134190465353527,6.064508389184906,-52.91830094177649
6.9612499,9.541687092278105,-1.9317215851058647,0.320103347607515,-4.977931289958714,3.979188118818928,-49.9571492639928
6.9712499,9.689727338530316,-2.907734644352105,0.5102978374516587,-12.997091146997114,2.662975657590356,-45.1990719658896
6.981249900000001,9.690245435078985,-3.426730155439426,0.6791409285919796,-14.594641529993192,1.4481483867417857,-39.310925533834464
6.991249900000001,9.711875890773271,-3.4260354799878123,0.7828977445453615,-12.010915145169829,0.9196807112707964,-33.84353187084131
7.0012499,9.69577316989308,-3.079188771872852,0.8251097787980911,-8.42502022878358,1.0977881022216531,-28.974186234472977
7.0112499,9.578677195786922,-2.691124660216753,1.0177715506516725,-5.334649350871595,1.3558364662110296,-24.54670683901824
7.021249900000001,9.46919574225918,-2.532441063070871,1.3126887213562408,-2.2279298963920655,2.264168166962997,-20.18098528524158
7.031249900000001,9.352926805716072,-2.6191601448193382,1.5036665567557062,0.8532646542589496,3.6747464733689665,-15.319772914476014
7.0412499,9.209232266583044,-2.8450943517978566,1.573789627726859,3.883897590578784,4.765713211071593,-9.796364546337838
7.0512499,9.0706317343686,-2.920306282630121,1.5528018376269854,6.101867113440727,5.585058969548245,-4.194023590925162
7.061249900000001,8.933016288412938,-2.8118796405063073,1.6300748647508843,6.711864521760907,6.0132922010127965,0.5860007443958586
7.071249900000001,8.746622948372703,-2.7617810605947586,1.8188865094618925,5.107822440881424,5.914289204426924,4.247928320422536
7.0812499,8.521351070938598,-2.794436062841262,1.981956928790892,1.361652903034753,5.670663975247978,6.788114778745389
7.0912499,8.376635244731569,-2.794468824972556,2.1082262257068067,-3.856976824449763,5.143635491468687,8.388878374864598
7.101249900000001,8.425012689095812,-2.836547668060823,2.165975270110203,-10.556313165027822,4.177135879226946,9.393177514429869
7.111249900000001,8.522633850289855,-3.1480430381768256,2.103181863415411,-16.61621595662937,3.1742647916716535,9.756954425795618
7.1212499000000005,8.5357296610393,-3.434279772325017,1.9942216038396394,-20.4176578650218,2.0072979240464845,9.805835116851506
7.1312499,8.611074287591082,-3.5339825966677516,1.9003914112345166,-23.783480564711738,0.8689292746658628,9.717143128834831
7.141249900000001,8.711841408193424,-3.603787433795897,1.870590155667478,-27.476765135468,-0.12901068420327874,9.274112291279176
7.151249900000001,8.783888268211921,-3.6960075232057927,1.836465416001557,-30.741034048904517,-0.7869279571389881,8.577266602302712
7.1612499000000005,9.003215224985118,-3.846269510844045,1.8268096407829229,-32.42385640869439,-0.7546012441276043,7.426745894675917
7.1712499,9.175723774791347,-4.022150349495115,1.8810668505542798,-32.330960096684045,-0.6056478861938521,6.180060782851966
7.1812499,9.19632899799446,-4.157105840792128,1.9792592209845596,-31.421739726158485,-0.5357510216069742,5.220558081043912
7.191249900000001,9.371451636252782,-4.236752870982303,2.0079851496596293,-29.417318536298243,0.47242534628321375,4.199862466952102
7.2012499000000005,9.47982750537766,-4.34207339761594,1.8316265642011422,-26.632805160343267,1.545063845498644,3.72526208133003
7.2112499,9.344745741782518,-4.368691748662607,1.5803338271682263,-24.698396000334437,2.2348120697295464,4.343178406816533
7.2212499,9.205566800674735,-4.2827584569544515,1.3250525901166506,-24.01821412213797,2.482720664989354,5.313528196807573
7.231249900000001,9.134774988511571,-4.223424100391702,1.108259409187207,-23.684342069558515,1.8224443011808131,6.249399083752336
7.241249900000001,9.067199141447846,-4.094699134829427,0.9559392741362417,-23.15387140435269,0.7515346578009969,6.61703708244333
7.2512499,8.983955995698276,-3.9742099529478683,0.7915212502972181,-22.803734832470127,-0.45235605277176666,6.196119373508233
7.2612499,8.914787191301718,-4.103808070974733,0.6004679469128308,-22.64133890626691,-2.081771376493453,6.261014821550902
7.271249900000001,8.874442263870248,-4.219663872461801,0.45565419935575147,-22.93164057934471,-3.6485737148285464,7.027728062067998
7.281249900000001,8.828687526764375,-4.143219054549573,0.3740782859750862,-23.738462814564542,-4.970222095451214,7.814307162700171
7.2912499,8.812760690171235,-4.158143732406056,0.3278173475168059,-24.331295642944173,-6.134590338292241,8.115709536107598
7.3012499,8.850371316761173,-4.297939350862488,0.3877396788387513,-23.594509283645074,-6.946639855461435,8.242288322698874
7.311249900000001,8.918084152723136,-4.468473493205077,0.5364525228977652,-21.741757511349004,-7.135430141545214,8.432789991026336
7.321249900000001,8.939106777229894,-4.638546792729209,0.6031443438158709,-19.59089863207347,-6.42914172990419,8.759142397023538
7.3312499,8.873379636492647,-4.711935713289865,0.5239340930136995,-17.053488952033167,-5.333142205644344,9.183868394900058
7.3412499,8.743118905625316,-4.773110858404189,0.5444791119059663,-13.81658124038293,-4.598913925019286,9.37034750698256
7.351249900000001,8.62238929259348,-4.755663861798984,0.7395457984656856,-10.616772722093682,-3.9862647353539633,9.159021511610657
7.361249900000001,8.546801997506185,-4.658928996793458,0.8362301964779664,-8.322026105748774,-3.0649786994523986,8.69499664564869
7.3712499,8.435081152991781,-4.634753533120186,0.7347011734589218,-6.8220650462224315,-2.331551840850614,8.449750966220813
7.3812499,8.338743168685557,-4.597419752310237,0.5464275566124092,-6.440340923796774,-1.9617812269458397,8.357028648743405
7.391249900000001,8.327012243593952,-4.459462781039091,0.4318079048242374,-7.1942068026222605,-1.7009334274470846,8.060704098931161
7.401249900000001,8.37314003262245,-4.273300106899547,0.4948898309851269,-8.801303116382872,-1.2325614450083306,7.175421156421309
7.4112499,8.406065800121551,-4.215433242434289,0.5989436590332988,-10.291302659884769,-0.8748017833999021,6.262899615235278
7.4212499,8.397986053280919,-4.329618505057869,0.5981463533801181,-10.661896177902713,-0.758131968461414,6.171337317118735
7.4312499,8.35054332895924,-4.374679873818291,0.5623441424996797,-10.383332441601489,-0.955881006836885,6.744751448574432
7.441249900000001,8.342445468130878,-4.3155394004110015,0.5550038744120709,-9.782797185307356,-1.480892432609742,7.437801783888053
7.4512499,8.391756924302195,-4.258894298805271,0.507929480871244,-9.060734541908982,-1.991629737768794,8.36607420172395
7.4612499,8.389420847630175,-4.29432630010506,0.4751966886903756,-8.733640262426691,-2.4416371971906723,9.577420777191369
7.4712499,8.313257455358155,-4.353130551243887,0.4653890995989472,-9.040657689978328,-3.0717070739647787,11.28232706955849
7.481249900000001,8.277286696154643,-4.348640198888073,0.4121051007086077,-9.428921040970428,-3.8504969392995747,13.092951791666442
7.491249900000001,8.253203818880955,-4.386397248052793,0.40175005382733586,-10.045451138661814,-4.9492114894823445,15.123668811472248
7.5012499,8.155212347511515,-4.410061681724282,0.3724333475274663,-10.885801272368743,-6.338792461525564,17.4886774631472
7.5112499,8.038302393845992,-4.43407265673842,0.262979125277757,-11.654588258984946,-8.0694262383461,19.799532986758564
7.521249900000001,7.916240266599533,-4.524280702248099,0.1332817529192206,-12.745822675896958,-10.566206016419963,22.679721064683555
7.531249900000001,7.799983842175123,-4.484776586003779,-0.029669503004524363,-14.616141636772454,-13.525818009150317,25.976996344295653
7.5412499,7.693613627403647,-4.344499081284198,-0.18588808143132848,-17.525453712540962,-16.299848654870168,28.835529119752852
7.5512499,7.616465356370197,-4.252337036339544,-0.32548416985306844,-21.24201656129334,-18.979700421836842,31.43011080463709
7.561249900000001,7.600932265035209,-4.119954249134043,-0.4930092561917112,-26.024746253198014,-21.589293505099775,34.1165971945264
7.571249900000001,7.614887735063616,-3.975580375658328,-0.6078833989118848,-31.5751963655704,-24.291766937309163,36.804796105778344
7.5812499,7.598868408287159,-3.891142432499538,-0.6464623517577814,-37.63078051417593,-27.047697798013623,39.39083810506899
7.5912499,7.566869029823037,-3.813420409341411,-0.6925370460317747,-44.230781233253225,-29.463341499159593,41.951866393016644
7.601249900000001,7.561128581496015,-3.7740877757201265,-0.7531616603749026,-51.089682569999894,-32.00099155303756,44.80030112916018
7.611249900000001,7.543225869261869,-3.8377021564640734,-0.8464509912931396,-57.77837708968109,-34.624550286087285,48.25152063825732
7.6212499,7.454746352371648,-3.922384394313129,-1.0089609030090032,-64.49112067173327,-37.48602596300562,52.21725995871419
7.6312499,7.3833808324382755,-3.932138804927408,-1.230409970132007,-71.19828765258077,-40.72366368133846,56.745747766331256
7.641249900000001,7.367302900564314,-3.879205689978485,-1.4348983390884447,-77.89891170718681,-44.02958651289299,61.51120781591302
7.651249900000001,7.361554146644902,-3.9694549125653276,-1.5235997973284363,-84.01562125369603,-47.5104650229923,66.41512060511131
7.6612499,7.489214135592224,-4.17049413223159,-1.5666291404126325,-89.07117120856297,-50.800900646861415,71.57153755531169
7.6712499,7.712841686560026,-4.29357747656214,-1.6585898859621293,-93.26265746146014,-54.35916639322677,77.1580061252026
7.6812499,7.790430911537783,-4.336883457124919,-1.7209579960228234,-96.53554284360243,-58.99479238560538,82.40521740076896
7.691249900000001,7.817657295733196,-4.327660624510201,-1.7375758396987475,-98.81711820962356,-64.63673320998214,86.64007514608106
7.7012499,8.040943733082344,-4.23451667406699,-1.826642816134297,-101.18464024133863,-71.15963869668856,90.10467277370395
7.7112499,8.484366497048066,-4.127388093647481,-2.044058893314606,-103.96142791272244,-78.29388751565683,92.86506527577717
7.7212499,8.98032162411007,-4.0634168602036445,-2.35876144201431,-107.3837478227106,-85.62779848113082,94.58298748970937
7.731249900000001,9.864253008495174,-3.961877391990391,-2.714014416061663,-114.04125672041964,-94.06936145640627,96.26778821190375
7.741249900000001,11.284008822822013,-3.664982555146078,-3.093196047781459,-125.50019825945523,-102.85734572027275,98.48840459780224
7.7512499,12.928885276699441,-3.0253527540120113,-3.514115944964667,-140.79786597432627,-111.30061904312277,98.94377081247175
7.7612499,15.261974888567286,-2.176026505627571,-3.8912293803940305,-160.67908913737676,-121.19780649003734,95.45882045810113
7.771249900000001,18.531181361900817,-1.3410939477957393,-4.111907590225377,-184.6210150514362,-131.9149316347096,88.09895225172794
7.781249900000001,22.217460218887794,-0.29910522165243325,-4.1548840061031,-210.9426629271971,-141.40102296277678,76.6157758181929
7.7912499,25.906601946037508,0.8919081145626202,-3.7960380160919067,-237.56696045579483,-150.04088104907092,61.17626722234592
7.8012499,30.224451219747557,1.838535989200741,-2.726077999403534,-261.28555850721693,-157.33088244676958,45.3878185251135
7.811249900000001,35.031120149317694,1.8475462317406453,-0.9570368407270098,-278.2878428944806,-161.20676083502204,33.71938837115416
7.821249900000001,37.81393674879106,0.5507665028161549,0.9326104247420494,-287.5373700176838,-166.98575991680718,33.210861542745086
7.8312499,36.72495901872619,-0.6704702232600491,2.2791064880501324,-291.77790657929853,-174.28563048717956,45.51985174671465
7.8412499,32.72875501498463,-0.520133503225669,2.9066780939083725,-293.1216771263294,-178.13908796210828,63.235975732033424
7.851249900000001,28.14378817946993,0.3780105795852666,2.149010651880189,-295.5851959605612,-183.00941028376735,83.98646952688392
7.861249900000001,23.11858318286296,0.43434217416152504,0.45264476249614793,-299.53003878435055,-193.68614148685276,112.96435952092747
7.8712499,16.930215025505078,0.04380579184934144,-1.0533573683771345,-307.26549697502554,-206.20190723218994,149.33086043312875
7.8812499,8.491320687585688,0.1846928635551554,-2.463025023667924,-322.3148736278153,-223.38422671775885,187.81742541540322
7.891249900000001,-3.377410304950583,0.8929574677917692,-5.397906207608184,-350.19125669615624,-251.06531451997864,231.63420286432142
7.901249900000001,-17.853540050300666,0.3563818034791385,-10.048457281763932,-391.02832303683556,-279.93867616824065,288.0840853455597
7.9112499,-35.67699093307911,-3.761321887839382,-12.459963250008279,-419.714997172469,-308.9451582027233,355.61844851862435
7.9212499,-54.63502154081213,-7.2935372734258985,-15.018429519400735,-421.84324916657977,-321.9067189906347,420.21101063050753
7.931249900000001,-63.7379388959545,-4.898080958774625,-20.461837060942806,-406.0317102656722,-278.6395068941318,438.30538712529517
7.941249900000001,-49.9673273040464,-0.9805897260508177,-16.291139372590337,-371.6164703292718,-159.06660265871562,358.9330006175153
7.9512499,-24.690471305425678,-3.2099399209531674,-1.6416915398958223,-291.8750054184278,-19.092583774930446,219.43952106241196
7.9612499,-13.756007972845042,-9.909465165813742,8.271958065962936,-172.46370848175746,58.87989282921164,82.91660308087475
7.9712499,-12.530698445311158,-15.115056172440847,6.154475112656682,-15.978629633016013,87.03980524665732,-40.28511166985408
7.981249900000001,-13.155593031623612,-14.390526264232124,-4.659961751464861,160.61380198804048,99.0726901173382,-144.05318167564226
7.991249900000001,-18.74392597502544,-11.236834753472976,-14.452964503159256,312.41303075416664,97.85099126547416,-202.9795844777519
8.0012499,-23.260422972356707,-5.893405230555902,-15.51454778631468,389.9686982199963,90.699091548316,-214.34280691121052
8.0112499,-21.308655449952333,2.350011075991249,-12.11296661797304,384.66859793982,88.78713022420614,-210.03744399335764
8.021249899999999,-15.93604496543167,9.361773633145537,-11.020858671413722,321.35567023861165,94.73749574815793,-211.88449291422228
8.031249899999999,-11.870485844696296,11.494165340878777,-12.424680890962708,236.07953116230576,101.60232568828658,-218.1502745861056
8.0412499,-9.067703550089071,8.843988095573538,-12.965962065031626,155.13040590474492,108.48539429111447,-213.2657087249378
8.0512499,-6.4260039559409305,5.232762386743869,-12.331834774026147,88.63920100848812,110.90090165729484,-192.69631003071834
8.0612499,-3.660941885055667,2.7252869759027574,-11.670699395553104,43.12302900566346,109.22321495131983,-169.01282313939905
8.0712499,-0.6771118026683108,0.13843347539851686,-10.669045459659932,23.091069218501733,110.67497294551129,-148.67685682362685
8.0812499,1.9787250598850346,-3.2974704403694153,-9.43670924343156,27.095275968320962,110.89778436695629,-125.73329787477488
8.0912499,4.6417465298134415,-6.427303878472504,-8.308766654074999,49.30255603756156,107.27612320190448,-96.55579474560703
8.1012499,6.780408914165036,-7.662878505756082,-7.44599531916021,79.60398456002771,102.14012312539518,-67.91506041506182
8.111249899999999,7.86467525098815,-7.464340054170405,-7.022332658129632,110.14307979704073,97.75658954315824,-45.49597940941579
8.1212499,8.09916190798839,-7.235765545730708,-7.135972571079252,138.89292401820828,95.51673489025045,-30.266912737446503
8.1312499,7.908257763862297,-7.215656861958029,-7.742701069504088,163.74368208248245,96.89436639114184,-21.186240005368223
8.1412499,8.132570919066593,-7.004830867923634,-8.457852081934167,182.6662295431553,100.61868757267779,-16.609702231342208
8.1512499,9.177841571306262,-6.740752648815319,-8.411973425357095,198.21175436812447,104.5128003510379,-18.13529155585624
8.1612499,10.08528221034916,-7.049169964811552,-7.620870959850046,210.3424549186226,106.27955373302912,-24.59006158848818
8.1712499,10.346177932370498,-7.374113357895408,-7.108953020531107,216.396676616677,106.40666445981854,-31.501326513189582
8.1812499,10.194035367613651,-7.084724626088018,-7.103772167075902,216.76408196539856,107.47137966863123,-38.39609782103905
8.191249899999999,9.644713292169287,-6.6023091870144235,-7.104478999552279,210.47589314067153,111.11586705669008,-43.26745502303659
8.201249899999999,8.736076571145192,-5.850220697694224,-7.124016789380155,196.30098204388332,117.65811450647037,-46.211234282075594
8.2112499,8.113355857287363,-4.966013588503508,-7.2286876310146075,177.97625819291605,126.15714336413517,-49.734016550496584
8.2212499,8.336231060659715,-4.516782072647314,-7.141426517372102,161.33974595451434,135.51506061963005,-53.99797343786833
8.2312499,8.94993216923901,-4.612779696033473,-6.540453034058267,149.05967523430257,145.1382240282584,-58.398962395350694
8.2412499,9.395016286764923,-4.956503908866924,-5.549731833558836,140.3459698238935,152.46216470301408,-62.471494152664796
8.2512499,9.628082634379671,-5.358286329841543,-4.525626562893875,136.70046766584576,155.93667950664843,-66.72758219229692
8.2612499,9.502305935730158,-5.6863772495190235,-3.7824737026318633,138.86042192735437,156.07789051315308,-72.36823583146193
8.271249899999999,8.923549306326004,-5.579716909317566,-3.5093888396513613,143.1586531243924,152.94730374599345,-79.44354986446714
8.281249899999999,8.358945797667939,-5.501704505322345,-3.467231996033545,149.57024331146485,147.80039180617507,-86.89963479475716
8.2912499,7.939748291514237,-6.129548590056984,-3.4358776684041055,159.71487152182306,141.00939195096694,-92.26673536659283
8.3012499,7.459468388563637,-6.668028683757692,-3.416135590096435,169.87992828521726,133.8011088721386,-94.01941608673903
8.3112499,7.062241482679778,-6.512005969406999,-3.2284906954499113,178.27019878044976,127.31142324306889,-93.71573124280985
8.3212499,6.9878290466144115,-6.096922609825372,-2.781790762783909,187.10393062399103,120.8616794744977,-93.28598776983424
8.3312499,7.34049749698852,-5.658732344160276,-2.207928421435997,195.21854015833205,114.66704596393156,-93.30711720744708
8.3412499,7.677696022416257,-4.938120034678724,-1.6493454836322718,199.5287801022133,108.68703300404438,-94.2940435439647
8.3512499,7.919516924418269,-4.122267710393504,-1.3619399314506269,199.84920239581015,102.71668345192818,-95.95248900388847
8.361249899999999,8.216362034351327,-3.8976264486436705,-1.300956647989916,197.65578816951154,96.19637549421752,-96.5812411299903
8.3712499,8.30272752046657,-3.747646209531603,-1.3965722927314526,192.95076761090309,88.55029186663405,-94.19587244620324
8.3812499,8.300856154374976,-3.286762606532973,-1.6234450311743034,185.98768716752278,79.15963072562015,-89.92149521456832
8.3912499,8.41790012372683,-2.8912750714007127,-1.758105585208852,177.3082572978147,69.71204400351988,-85.0237973680322
8.4012499,8.649870218000176,-2.547305607951847,-1.837386040813209,166.4732053576017,60.66934261594034,-78.8470439538613
8.4112499,8.717287267613063,-1.974608187631346,-1.8838713373796079,151.5014407959487,50.225772601007414,-72.08781136188865
8.4212499,8.792308331687877,-1.4763270122200978,-1.7445996068096117,132.90112096660738,40.413439898338076,-65.25562544492193
8.4312499,8.959642933455235,-1.3562072933141214,-1.6100705068162604,111.26472570624361,31.88487735974957,-57.77716311221876
8.441249899999999,8.981859985108459,-1.1533190536412292,-1.7232349634575945,86.06153625587095,22.935811588292907,-49.95179586466271
8.451249899999999,9.01764594159245,-1.0769692140869915,-1.87708170576679,60.23667602536594,14.415536496886949,-42.80918573493702
8.4612499,9.030486257189988,-1.3826762663172019,-1.8912595820793647,36.16538939004546,6.9803549733739665,-36.22474000696384
8.4712499,8.953673389560269,-1.7531644339796688,-1.8073680443273856,15.05000243560096,0.24155120525879797,-29.921641574449556
8.4812499,8.930286927977528,-2.0137974175932944,-1.5805963148144442,-2.9494218346825978,-5.106285970975452,-25.03526941666967
8.4912499,8.938129967821574,-2.340217070872936,-1.173363515412088,-17.844864451421135,-8.668165663143066,-22.10181785381862
8.5012499,8.93113944588041,-2.8669486525807715,-0.6997414248241949,-29.303526363012583,-10.503011109644799,-20.22371922684316
8.5112499,8.949900520230294,-3.446407093156301,-0.302850006092675,-36.96624666805612,-10.812963276103764,-18.5498040011984
8.521249899999999,8.932910883065986,-3.887216089677676,0.016006043269792023,-40.70395776983353,-10.034596338086388,-17.28613565618095
8.531249899999999,8.843069729356806,-4.177043661084543,0.25918703425952233,-40.397414501343896,-8.510524222776748,-16.11644129235121
8.5412499,8.757490933108839,-4.4652766380520434,0.5113189657218644,-35.46192284894529,-6.877610114624031,-14.612399938386856
8.5512499,8.721797626518008,-4.8318612488345485,0.7120187749103454,-27.06053743352501,-5.192080773170013,-12.154616493428861
8.5612499,8.629834607432155,-5.03022053842223,0.7737601515172073,-16.180258806542092,-3.4831431702812594,-8.632265609086918
8.5712499,8.493186183498395,-4.865575501250628,0.7713025386710793,-3.5634443670922673,-1.4287532007591408,-5.069848639152676
8.5812499,8.42121541247072,-4.504998001332986,0.721398675884232,5.86519036535525,0.47462539968565454,-2.4335740016262393
8.5912499,8.381417861018937,-4.111710242205866,0.6601293993462346,11.250448580604084,2.1001654786465616,-0.8174119481406125
8.6012499,8.318238710436317,-3.7784052980298237,0.6203673843485162,13.907103958087355,3.6979441502545636,0.5024082464431452
8.611249899999999,8.274561537161786,-3.600547008642632,0.6119117123003798,14.023926796152992,5.251129326548368,1.8914053540464912
8.6212499,8.325129900096824,-3.6186624106690575,0.6098386856707835,12.625169728500586,6.715814288195508,3.6810649479171635
8.6312499,8.399019591635923,-3.6745216661673106,0.5682409007531052,10.574499721589742,7.746421885685792,5.8538422230189004
8.6412499,8.444156911587697,-3.6570089261641883,0.5100498123662229,8.155858237743887,8.491470176444082,7.9134854133132135
8.6512499,8.552319371325533,-3.6131661141750593,0.5102449647006754,5.583800618500507,8.878474173545928,9.698768306890456
8.6612499,8.635152168530325,-3.6238954818019895,0.6131733522100784,3.6325941917784994,8.74120339601818,11.539398114120615
8.6712499,8.68866147328526,-3.7828967947272427,0.7159838536731795,2.8889803268480074,8.640928472607653,13.607338129507069
8.6812499,8.730418491112506,-4.032260779425667,0.7486444282380101,3.1788611217985143,8.393052227939318,16.10892360604479
8.691249899999999,8.695184407819271,-4.30009670797767,0.7880977798027315,4.471925109145759,7.60596089602602,18.446136828073477
8.7012499,8.675596755575288,-4.489029557101749,0.7702459622809616,6.180444324007776,6.287891714317836,20.13746656789154
8.7112499,8.708446533448171,-4.612157702607057,0.6738746383263786,7.596698453582231,4.623783024636685,21.043207512876556
8.7212499,8.75793072258607,-4.745797537813415,0.5707715068593661,8.389003583666325,2.800027480222157,21.481976138379213
8.7312499,8.79495501443821,-4.831886294962678,0.5070433934673506,8.183899910636724,0.9998201369691376,21.37239223243688
8.7412499,8.827045287507481,-4.862251638888576,0.5055875171787378,6.7632777144898055,-0.6376161893651415,20.758839760378486
8.7512499,8.89796531613749,-4.9044172701067765,0.5381542344033452,4.501013784916196,-2.1586525047286815,19.751112228417007
8.7612499,8.924124663637128,-4.970687081515047,0.5207796850037958,1.6069045169830365,-3.1020693226078095,18.261708973365923
8.771249899999999,8.875323179079107,-5.06834065590693,0.43428434792765674,-2.219258758997152,-3.830041851075759,16.43585917987278
8.781249899999999,8.834777738163629,-5.226307544415428,0.39858013676027293,-5.936205771304288,-4.6944686069748975,14.316366339865255
8.7912499,8.821044151702766,-5.3501262501792946,0.42539033343998,-7.8899423587504725,-5.330576567771778,12.317185815379567
8.8012499,8.833031361308068,-5.518358781169664,0.45387227306594,-8.118680212457143,-5.975089545358698,10.366865478272807
8.8112499,8.844718520396489,-5.726100461041358,0.4601579690261601,-7.11495947566476,-6.58432641618914,8.947683151966215
8.8212499,8.821544135469095,-5.802217127030511,0.42862604042381763,-5.2577968349915825,-6.898002239492481,8.033443712566122
8.8312499,8.773705247612845,-5.7368816820921005,0.39626658374585255,-3.189124504820059,-6.995503411867068,6.942880662787378
8.8412499,8.710773750261605,-5.699372712560083,0.39588646885833684,-1.1625065590575763,-7.064240508756593,5.7563307796151
8.8512499,8.601931931733672,-5.661857817346237,0.4056335897945584,0.258495026132226,-6.939788588769522,5.022007383128072
8.861249899999999,8.488825671909659,-5.531678613307704,0.31689383960774115,0.3691654462602647,-6.392805246714042,4.819550445251408
8.8712499,8.407859582027056,-5.3804384498616855,0.1445032569395411,-0.2053523197634645,-6.029968909093621,4.55765107024808
8.8812499,8.356968143759216,-5.2872120038591675,0.053591132543931115,-0.9858953556740742,-6.063319226182479,4.095200766311145
8.8912499,8.295429937895793,-5.245968354634872,0.09888831876107639,-2.115748605218561,-5.979293708349079,3.7324178676411797
8.9012499,8.267397531887688,-5.263056186527446,0.1888248751080735,-2.7371034644060894,-5.730773337386867,3.381261654016759
8.9112499,8.275578302492288,-5.30474032873163,0.24590085314242327,-2.538594439759693,-5.488555092178305,3.036883426773473
8.9212499,8.24371733004349,-5.315916080764281,0.2713695626039133,-2.3216844467472093,-5.3975564902800075,2.9506757670367647
8.9312499,8.209639648978891,-5.326151239342848,0.2957942635202669,-1.4449709346473814,-5.277464396808398,2.9752723437685855
8.941249899999999,8.210570378253196,-5.280451960319029,0.3105832748827277,-0.4209155119703885,-4.9580459296488115,2.938394034087526
8.9512499,8.201737622076816,-5.203497816924659,0.2803204295725278,0.021533978979976172,-4.701459044003561,2.8080568896402163
8.9612499,8.18212714187019,-5.184063481583021,0.23364420072352773,-0.2905565906173895,-4.494710943140938,2.5896665947533775
8.9712499,8.204549862922098,-5.183179570613109,0.18537569822852182,-1.3899525688349987,-4.019424510301954,2.489135691277619
8.9812499,8.28162611555305,-5.13099153074225,0.1097513156245033,-3.3617921270072753,-2.910462616477047,1.8221343441129971
8.9912499,8.354160807987927,-5.066278638048828,0.018752299805840065,-5.574104290822855,-1.4633839233155375,0.7137235179458777
9.0012499,8.357886953361053,-5.072997291647614,-0.015996966253249142,-7.303544360693059,-0.16416928556300986,-0.08471997753290723
9.0112499,8.32792347211658,-5.125281454650256,-0.005795822595264367,-8.78016026244076,1.5151349620558945,-0.5643487520125579
9.0212499,8.294265435390455,-5.154693411349525,-0.048632684512129314,-9.922721854862072,3.4240350896598373,-0.7059460200402511
9.0312499,8.255281130909045,-5.161121882630939,-0.07899025206092439,-10.278335331746185,5.0337440879303905,-0.6789162433426604
9.0412499,8.207179293369716,-5.196177300886442,-0.05233825620784115,-9.9416321327752,6.1726748633651445,-0.5253076969617451
9.0512499,8.186711151579006,-5.230387753152881,-0.04556745341240951,-8.78480568916787,6.825595469616999,-0.092538669538481
9.0612499,8.214214628695215,-5.261747778266812,-0.04178803158149758,-6.601510335297666,6.95268703209557,0.5508984460470989
9.0712499,8.222047567859455,-5.268791214439169,0.013847360642533177,-4.006431053071509,6.44868995636657,1.4144569446528594
9.0812499,8.228508975720487,-5.239274719243018,0.07922477241786159,-1.4998670103898568,5.541039690974423,2.381069651010386
9.0912499,8.272000097719777,-5.154468968856246,0.10971101643080021,0.5023835410533196,4.689493962234358,3.371332184772991
9.1012499,8.323767828315438,-5.014311903983419,0.12911193605802643,1.381136836437088,3.8686747975653453,4.2812416754480145
9.1112499,8.352846174988823,-4.8421236353729356,0.1610046221938942,0.7588608947440525,3.0642221220011443,4.881242712069598
9.1212499,8.369814266006157,-4.720717071284323,0.1835034469823825,-1.2597564550376021,2.4898265190076185,5.246338601454507
9.1312499,8.38229212839102,-4.673778593709961,0.2171495704580695,-4.27654419671097,2.206675953414486,5.5528960612892115
9.1412499,8.355363778377173,-4.644621220362525,0.18579552322866583,-7.6832040597452735,2.0763996411394348,5.866466843408576
9.1512499,8.31280141861288,-4.70783440080403,0.08915606508217028,-10.710382910349427,1.9346231245191645,6.109333514644352
9.1612499,8.247520209916333,-4.849862726010086,0.08534265740415868,-13.20276756523412,1.618732461973005,6.646997947848386
9.1712499,8.200165686045631,-4.957590211425388,0.15353707265079153,-15.02107932293878,1.5170564025599809,7.3472520768167655
9.1812499,8.182007444376662,-5.015832834495808,0.1346290363413405,-15.721408946139382,1.5352546651422363,8.212782223659717
9.1912499,8.138731112981219,-5.125030113333663,0.07985249609645333,-14.988926839863568,1.0751193210122285,9.369600870126387
9.2012499,8.064262406487826,-5.248019368363104,0.0897419050725836,-13.340809652022129,0.2932118616898605,10.752062140541595
9.2112499,8.01977360895814,-5.208712556817959,0.10584246068639441,-11.761409727832463,-0.6847408622621932,11.992209139230093
9.2212499,8.084141405886033,-5.087806534423294,0.07258705644962372,-10.251118565777839,-2.0980841250417943,12.99500304867227
9.2312499,8.210858839133756,-5.009824886347924,0.05084568965804272,-8.80792643339574,-3.8899267404128524,13.671744667051021
9.2412499,8.278432182166538,-4.9220877605308475,0.03438275406477066,-8.296629870418496,-5.531909925389494,14.424854103741607
9.2512499,8.256651666994443,-4.757687425957921,0.006135693310046428,-9.418348965183235,-7.1692015433686125,15.148635671815079
9.2612499,8.253416618077853,-4.645407986732778,0.005337337603571235,-11.394303480027125,-9.00646425898524,15.859762922651871
9.2712499,8.254811594537353,-4.564227955169148,-0.009114519268927694,-14.151582650709178,-10.670840004479066,16.838844006401025
9.2812499,8.272624895109935,-4.424109448150309,-0.058127719302384306,-17.425396339786463,-12.618076121284007,17.61275040906101
9.2912499,8.314840885923406,-4.3638806548918145,-0.07393586450305142,-20.116928379434206,-15.12096798514691,17.871941297943348
9.3012499,8.30961708256029,-4.406234797442095,-0.004712139141895168,-21.854563666991414,-17.71025132286141,18.102547302735097
9.3112499,8.274763558679327,-4.492531620686556,0.0893826304460851,-22.776985296559,-20.459544556757677,18.85037712282873
9.3212499,8.218086234240486,-4.499776852368317,0.0661877143844204,-23.081171821974003,-23.489430305166913,20.124841969346402
9.3312499,8.154238732066126,-4.5044310423407685,-0.0394526878051162,-22.548701347405515,-26.862479691107552,22.05210819827245
9.3412499,8.118474390902911,-4.520379823334757,-0.09852288764657006,-22.184679308424435,-30.542623414223346,24.765804114247203
9.3512499,8.141189710780463,-4.386392695971549,-0.15039717318873042,-22.646328561742973,-34.161469133346664,28.227372728990243
9.3612499,8.226620654160008,-4.149242431347962,-0.2848160830272836,-23.819677606592514,-37.902611880741404,31.66875747053223
9.3712499,8.356700232136337,-3.8706581937284175,-0.4974462848411375,-26.281392383879492,-41.990404059211464,34.781557489724534
9.3812499,8.52459047493527,-3.6035588496556596,-0.738484513286339,-30.180248019357233,-46.24633338536082,37.798825694271095
9.3912499,8.76076518444426,-3.3297714215293293,-0.964251433214186,-35.88751817945277,-50.53923411902384,40.99879554719161
9.4012499,9.17068795378842,-3.003638577295254,-1.1973438897175481,-44.49374063596768,-55.87502097266838,45.002325330363355
9.4112499,9.698396005877948,-2.774414998241229,-1.4379863033856868,-53.60688545575905,-61.88867299614724,49.189458205298465
9.4212499,10.273908722307862,-2.575333529765345,-1.6956711071025612,-62.35448700495201,-68.21118456530901,53.296586908536646
9.4312499,11.051048008718805,-2.2846504794825067,-1.9670863755502455,-71.98329630544987,-76.5467331967746,57.223617852152856
9.4412499,12.219385752477729,-1.8232238793557212,-2.3765123236471952,-81.9355352863779,-87.84180182512719,59.63879434322974
9.4512499,13.68765044883995,-0.9955617754507396,-2.9809493625971593,-93.4477643918555,-103.35316078317392,59.62981351219816
9.4612499,15.809178457806299,0.14410378252870001,-3.717728836281745,-106.91858717970266,-121.96295005761279,56.89294060135512
9.4712499,19.1735663529572,1.6021733336701613,-4.469230113220948,-122.19753224840431,-139.3502931296878,51.850065463061334
9.4812499,23.156240955133082,3.3481997500837233,-4.764364066770326,-141.6104602612807,-153.33479554244033,46.08303095750737
9.4912499,28.05951446723101,4.390593963662536,-4.154571845937462,-162.11682829719618,-160.67889367222176,42.712362765070374
9.5012499,34.158230192778284,3.7379073890830297,-2.4066262739176496,-181.6345439662553,-158.7573796449653,49.638968946019446
9.5112499,37.34215473077026,2.6021840852298754,-0.1388894808217487,-207.89185213121633,-156.77766989569335,73.741453202987
9.5212499,35.98001724490535,2.7950257541941887,1.6376112153660725,-243.07872491740133,-157.53926792849305,111.24774915573626
