# Time (seconds),Accel_X,Accel_Y,Accel_Z,Gyro_X,Gyro_Y,Gyro_Z
0.0012499,10.051142082932937,-4.474621900804643,-0.01245325352534905,7.763758517271056,-14.097049933418344,-28.552141682713344
0.0112499,9.840390457529969,-4.385011701615891,-0.03880794864455835,16.35613221941349,-14.132361452522268,-31.546115256089898
0.0212499,9.708671507383446,-4.366024414031082,-0.009621856944510005,23.952323875599053,-14.470117415403015,-32.823828132299084
0.0312498999999999,9.609382716541319,-4.392034763871348,-0.016576628096190142,31.07921173548455,-15.034757068357711,-32.59389843452121
0.0412499,9.526718179921152,-4.411922294227201,0.08952385136001338,38.213507635418345,-15.702103292445498,-31.525725514570393
0.0512499,9.676114043852184,-4.3596825844698825,0.3994615466421622,44.733398643153784,-15.877190948620855,-29.749495382568114
0.0612498999999999,9.863158936384924,-4.26252961590847,0.6161757897768942,50.67881757809761,-15.43393326338177,-28.122012703451997
0.0712499,9.742828543894023,-4.248266909002575,0.66266650238695,56.97729797022765,-15.715286604866487,-27.203298560506315
0.0812499,9.569111440460171,-4.039006371287783,0.6551634856756728,61.11851864365251,-16.852723550039787,-26.040863589532016
0.0912499,9.459970089701649,-3.563944982848704,0.49695123784900014,60.67697172476931,-17.951473603451348,-24.60277180195388
0.1012499,9.136193193469785,-3.0589899225147783,0.2529306040028728,55.500676616131294,-19.729995773372114,-23.480685388766826
0.1112499,8.838460283353758,-2.5836256872055876,0.06689212294232975,46.401963976090315,-21.844018608398784,-22.66652388553161
0.1212499,8.689037133572054,-2.1812092111063355,-0.10129127603251874,33.93689928292254,-23.586507286184084,-21.90343246176453
0.1312499,8.506414655218995,-1.9076936407883787,-0.19452453739992093,18.396012451779107,-24.723238401911424,-20.872364665466687
0.1412499,8.366929814669085,-1.875048018279949,-0.16687402425931336,2.1984070169529217,-25.30436594455333,-19.517311042891432
0.1512499,8.338755953170647,-2.031353535802421,-0.18770924753920618,-12.068729937762297,-25.193423074155653,-18.112386007549777
0.1612499,8.312428812912389,-2.200852601091325,-0.24862186735048888,-23.15635919420801,-25.07708595793207,-17.200836511280762
0.1712499,8.319344232169643,-2.3818297191194975,-0.2506611500456097,-30.284895010191395,-24.753076922057364,-16.66325906314239
0.1812499,8.35564716528682,-2.5776624674597914,-0.19827501870354597,-34.0079368514841,-23.95695802835909,-16.18549447165859
0.1912499,8.424082231194271,-2.7979181628663117,-0.06203303233733478,-33.62789176040349,-22.735807176015776,-15.737234161932856
0.2012499,8.527978419912714,-2.9513709179717926,0.11572968129253731,-29.43511788072825,-20.89305767848035,-14.879113159842067
0.2112499,8.574840296250619,-3.028621466170993,0.29381556176601487,-23.268357387175,-18.839653487348468,-13.33121576953139
0.2212499,8.556106202711625,-3.1140546572994205,0.37876608645541454,-15.472943112352983,-16.42548402756531,-11.317908979048529
0.2312499,8.561761153334162,-3.0384711236914894,0.3000257869558969,-7.091902320026997,-13.748987348485544,-8.985121833994416
0.2412499,8.605741842837949,-2.7557298846958966,0.182328156709758,-0.031086985657171884,-11.773921348258485,-6.421561190633655
0.2512499,8.67219614843057,-2.454076716617819,0.07151714649526504,4.8448115626465,-9.911083180370687,-3.6502174334767217
0.2612499,8.75529371255741,-2.1681315337535745,-0.04778779003882462,7.1383867744252605,-7.783535355651838,-0.6281178239407874
0.2712499,8.738877055963801,-1.8754494455047708,-0.08813007160685894,7.002034815214706,-5.828749604423342,2.5106348201250146
0.2812499,8.706027973310736,-1.7458456892437182,-0.053946755516286575,4.979149606072468,-4.245987667591582,5.22589648979307
0.2912499,8.721450294450129,-1.8384220194138605,-0.10290498129707207,1.94414901373127,-2.720945315456586,7.869145229670989
0.3012499,8.656036649349959,-1.9862498463979001,-0.23173094273595635,-1.9317037457773092,-1.6543737199903878,11.136517373089251
0.3112499,8.454820114793844,-2.1833525024430087,-0.3084742215835329,-6.289417606012696,-1.2126057268457608,14.790224849473034
0.3212499,8.33660856232182,-2.474715763497112,-0.30880436159968067,-10.370836157482245,-0.9770029984166204,18.60124932814454
0.3312499,8.579037124984554,-2.7594352272450897,-0.20046781344923936,-13.448296892350001,-0.40455197542281035,22.430475706313235
0.3412499,9.030055687928563,-2.991370930187524,0.06949877253785314,-14.899724572316732,0.7852352840906698,25.569400314312265
0.3512499,9.453749998614496,-3.1131817597042253,0.45066627449805224,-14.742630568760031,2.846531385980309,27.56556485159245
0.3612499,9.839670042698625,-3.071136979383968,0.7861102597810373,-13.849796850913497,5.613278366198463,28.244028458103482
0.3712499,10.079817962684697,-3.016695401240784,0.9846092465660052,-12.13527197299837,8.320952803388991,27.525102749024448
0.3812499,10.100962635422135,-2.9923640655691037,1.04197057125149,-9.351398778227827,10.226619015454322,25.300838235822667
0.3912499,10.10311911821926,-2.897202785452609,1.0543728515375836,-6.072797400963183,10.881053246689431,22.350107509260294
0.4012499,10.186106502844373,-2.814990539598725,1.0588601883958373,-2.4600275690449704,10.373895460884697,18.868837736586222
0.4112499,10.280406934756508,-2.7615014285004,0.989324813660878,1.0847458765140037,9.03500998353973,14.968591471609178
0.4212499,10.3326682702406,-2.6047686555249214,0.8768379005861409,3.8684178804031557,7.208731281666952,11.240510700535093
0.4312499,10.365626012691715,-2.3900026533436267,0.7804803059941556,5.3677888122713515,4.849820488717023,7.609904630166139
0.4412499,10.40935187102791,-2.262880286657159,0.737161650902609,5.431787618630935,2.150174998605541,4.195908652567177
0.4512499,10.467656644775307,-2.2119129392616173,0.724722428255584,4.372712333710273,0.05199466564309428,1.0210204280995667
0.4612499,10.513906761057799,-2.115364434588527,0.6729836648513842,2.4063054495030642,-1.6255188561384153,-2.206116071735487
0.4712499,10.538109859350893,-2.010117876779564,0.5898846067037565,0.20752259963623346,-3.562625395734768,-5.011568641249491
0.4812499,10.528855434940981,-2.016761560051782,0.5155369825975376,-1.8291279742115936,-5.4684759173395925,-7.453676807012258
0.4912499,10.428736621895611,-2.0813104522251136,0.40366373534178634,-3.3341913582817715,-7.159061268532747,-9.283191788501926
0.5012499,10.260371839335132,-2.12063162127451,0.2554544150816061,-4.404397941504668,-8.839215441108585,-10.18574062588985
0.5112499,10.16084609502806,-2.1586931158905487,0.1342362932892006,-5.448850031194074,-10.087462761184215,-10.462127557626767
0.5212499,10.073589169427647,-2.255762039429416,0.07078865036004173,-5.708224047375759,-10.96102222450036,-10.135795729307997
0.5312499,9.913155696170598,-2.4067337880836175,0.025010465713636635,-4.951096521409279,-11.761393110274952,-9.185245593280767
0.5412499000000001,9.794210732308155,-2.517043546153211,-0.02503589910421402,-3.6431278796076767,-12.142018356762087,-7.721306133670438
0.5512499000000001,9.729222100869302,-2.5468803104203435,-0.04174016330601332,-1.949885579447005,-11.810884033210955,-6.314427943662423
0.5612499000000001,9.616320408016406,-2.5540831210965984,-0.04542224575396713,-0.6078457302445764,-11.066908701503246,-4.922640528989017
0.5712499000000001,9.50884653382102,-2.6570636498463136,-0.05880696252932739,0.7973204087990766,-9.900999528027478,-3.5140473353432315
0.5812499,9.425999029395927,-2.81302872161102,-0.1334695157926091,2.4447493320190765,-8.677522791814463,-2.1516801009227193
0.5912499,9.250543362892213,-2.9087575030463944,-0.23492592405224152,3.415395324094031,-7.602883094138203,-0.7249930352661632
0.6012499,9.046916273243905,-2.898067553694787,-0.2976138310196321,3.4682025266071093,-6.457995828929727,0.6443120049516278
0.6112499,8.907592741154714,-2.8364908762810788,-0.3742439244862068,2.739779495241425,-5.393155931187172,1.5195086593276947
0.6212499,8.816380812133195,-2.7557255777061793,-0.41475871332404807,0.8884845470996885,-4.282621991049804,2.1957431765984476
0.6312499,8.79950338208522,-2.758123325629905,-0.3969018580103092,-1.3468894148584694,-2.693203372794154,3.0512423820795815
0.6412499,8.831794350225696,-2.8662241730641083,-0.38120197637115444,-3.275694305020984,-0.7971282654095032,3.8968064126793354
0.6512499,8.863492570595344,-2.88210244495463,-0.36540212483707585,-4.954941493120439,1.328830713553354,4.788478699442373
0.6612499000000001,8.878663836075086,-2.8598051092805683,-0.30898624484272075,-6.047540485670381,3.448112314177691,5.5487963245957195
0.6712499000000001,8.889275534750842,-2.906637277330513,-0.26324824118937096,-6.138322908750044,5.363128437561402,6.174148308023184
0.6812499000000001,8.937870779831096,-2.904580638062667,-0.2960586738478661,-6.078232228953476,7.337429886090355,6.883614279827461
0.6912499000000001,9.020351325105349,-2.8044999337891303,-0.3417678141732052,-6.786215637827299,9.386380339055137,7.907479982905669
0.7012499000000001,9.017838526920235,-2.737105099864547,-0.3459249608671763,-7.767794796680581,11.10295155085521,8.90260028572509
0.7112499,8.93890554531272,-2.779682548574058,-0.3010731275719934,-8.103250623403103,12.574808201341137,9.910336868084551
0.7212499,8.954928626780749,-2.7933715698796093,-0.21744975052609797,-7.939070541650545,13.771946687783513,10.98194884029211
0.7312499,9.047441785548711,-2.7650108745168804,-0.15996166586077837,-7.30754883396407,14.538062793898877,12.124323302847413
0.7412499,9.118192533382935,-2.721846400033363,-0.1291345924492351,-7.090815653838003,15.29432828955696,13.102350391943972
0.7512499,9.128321320379495,-2.645518051286943,-0.11809750017491111,-8.057076810291361,16.125142895448015,13.681019770296317
0.7612499,9.106766592043629,-2.58318028570028,-0.10695524000623109,-9.6846735520419,16.723469625900712,14.006697436854383
0.7712499,9.067807336409214,-2.5881571208032863,-0.06833917918079414,-12.431359036805116,17.2829422056089,14.110163949333803
0.7812499,9.027757516929224,-2.7033397896396263,-0.018878423529330397,-14.55834983222135,17.871641204517744,13.833888630950439
0.7912499000000001,9.103927469846212,-2.8238211445232047,0.01558236153293448,-15.366546400091853,18.076689676827872,13.550799150264305
0.8012499000000001,9.220652588059295,-2.9632055234193944,0.054767245510997695,-15.126192432740332,18.00860923990713,13.530575632968747
0.8112499000000001,9.258715557601363,-3.074170871213206,0.1311694111681819,-13.529651280775454,17.867157189620315,13.812009003857314
0.8212499000000001,9.31339937888536,-3.0200840015890305,0.20280410888530886,-11.832590752646153,17.94170557967092,14.431543399943974
0.8312499000000001,9.29923249060203,-2.936019185614746,0.2127747853311193,-10.49269695086216,17.991006446743373,15.125965697465798
0.8412499,9.177087998448132,-2.871097810803005,0.12343783109844819,-9.535945573718351,17.50365487431298,15.953222782130835
0.8512499,9.172497451369344,-2.7495728072824437,-0.030727090264399,-9.544795680543555,16.783430826955275,16.902505568108044
0.8612499,9.276437195325018,-2.5874831419297672,-0.08464001211885426,-10.496085458138854,16.146339627058477,17.777679043905525
0.8712499,9.277630008280788,-2.5133210581121324,0.016380407994601123,-11.443685762099134,15.10289035361718,18.338648033917472
0.8812499,9.192081062730804,-2.5807917471035187,0.13064291639055242,-11.47020223864748,14.298622621397996,18.467580102529862
0.8912499,9.145248653672402,-2.6978369307097814,0.17198563313703114,-10.252379965596392,13.450350784740579,18.3857024604606
0.9012499,9.080211728765283,-2.8433980935251846,0.23669910387807272,-7.400761325200399,11.860949773000483,18.316125789433773
0.9112499,8.973364951191048,-2.9772804943198277,0.3542458823634151,-3.051821046212789,10.012207750645079,18.557418636463158
0.9212499,8.93290048937512,-2.9736722447151296,0.4264489076848465,1.9952401081032005,8.02928427337691,19.152152325157402
0.9312499,8.90605637405415,-2.8429909800885067,0.4318996167419111,6.6872962426469105,5.403892264592675,20.692536082083937
0.9412499,8.745771867247722,-2.661751411361374,0.4382587660693386,10.124746566965607,2.25408163929516,23.741145313664322
0.9512499,8.564958421016147,-2.372130231858858,0.3774254338693864,11.015293176220917,-1.3413728955867166,28.321191986166358
0.9612499,8.305149033515253,-1.9795554139759248,0.07634003005171049,8.233154488831735,-6.0942657261856965,34.78852896287469
0.9712499,7.793620085812368,-1.6080318103713007,-0.40116370529268985,1.3891807232250315,-12.299300207929063,43.32964246950017
0.9812499,7.326969858011484,-1.2860987675476978,-0.9622136487351333,-8.99988808427345,-19.356752343148838,53.49443212483918
0.9912499,7.070982094783144,-1.030298207273009,-1.560812174077463,-21.791614430362177,-27.037696083405226,65.15178011866443
1.0012499,7.0091254457802705,-0.9143757153735805,-2.0701021296966573,-35.964466757928776,-34.64098085733069,78.14619036872281
1.0112499,7.125729680638386,-1.0425230873676679,-2.39873833964771,-48.09350974933866,-41.75735564648641,92.09190952425637
1.0212499,7.328055900268724,-1.3682439709298972,-2.5688351694382807,-58.00770513791165,-47.956034685712055,107.5966901451699
1.0312499,7.793661025565555,-1.7119816358672892,-2.7638399161454523,-67.03892140842264,-52.57994845582766,125.60096650953889
1.0412499,8.444815596854141,-1.983063684578054,-3.070049557224143,-74.7231524683324,-57.44087724753401,145.65462267777446
1.0512499,9.196600017165482,-2.0434183598871427,-3.4251746087106074,-82.52583757417149,-63.7157955387061,167.70385879336922
1.0612499,10.815961197291177,-1.3301617328602675,-4.072216468557563,-94.73184631040657,-69.13824185099122,191.61793437038565
1.0712499,13.532462388158962,0.4820958980075961,-5.221554628606228,-116.63015470789333,-73.8663616126288,214.35588015477168
1.0812499,16.391980107915238,2.4919691693250625,-6.472430774462616,-145.6052879794054,-82.52802885677018,235.10959262724657
1.0912499,19.844381775565452,4.768410689713616,-7.734059500686388,-180.82273493718924,-94.45840273934735,254.4935755144238
1.1012499,25.138637117366617,8.722029303645025,-9.189886302870505,-239.87503912317354,-111.018097492507,271.0180738180026
1.1112499,30.983449756042447,13.60693671911053,-10.813197372588327,-334.8260425350551,-135.84955068817246,283.36437735188963
1.1212499,34.967451271609534,16.696950775246215,-12.317778599911225,-443.4551436689206,-160.83045142450257,287.35280715158103
1.1312499,36.22020261385828,14.757398575597483,-13.0358346452578,-501.09028891075764,-188.95572384860577,276.8602547186049
1.1412499,35.66108888682296,8.853092885842957,-11.525155938366051,-500.56194991414344,-218.9506942558955,256.9898297161114
1.1512499,33.8301982595194,3.7785984718957435,-8.833120765180652,-499.34901244906615,-239.5482783299761,242.72457986582128
1.1612498999999998,30.115030138438144,-0.7752742816673787,-6.496751586181544,-499.9813651878977,-250.74227743312787,238.6136399845774
1.1712498999999998,25.042391830283215,-4.732563723004868,-3.7569067741353526,-500.43567876763854,-255.83987378483567,244.78469699238158
1.1812499,17.944259562968345,-7.648474325462186,-1.3624960288254797,-499.5447698041598,-253.73095660625552,268.13607946276176
1.1912499,7.594502011575877,-10.694801083915536,-0.3844921560993075,-472.0160397545782,-248.08939101704036,310.05824327361404
1.2012499,-4.352667755039862,-12.803533621678428,-0.39494477500781866,-423.5575487148898,-242.68098663605713,366.0979160271497
1.2112499,-18.763827669332485,-12.393069995956402,-0.05161825006246,-379.2317259255448,-232.25617814716998,433.716838788239
1.2212499,-39.654036555068814,-8.134826279828776,-2.6543597592398407,-351.0310007319583,-215.76380810920566,489.66254677729654
1.2312499,-62.31589855947003,-4.60096339335881,-13.333835448154515,-326.04057426121483,-182.58943267122143,502.533739579347
1.2412499,-73.31705363871605,-7.419987598716839,-19.92070762901489,-247.01430887470667,-137.40935327063934,471.2593322775126
1.2512499,-53.10434024302455,-8.170865906529931,-10.869241873960743,-142.99433241890608,-43.29989312057686,380.22095234284234
1.2612499,-23.348034286658326,-1.6376482396991072,3.4592216241556453,-125.07923727202933,89.15542789255794,227.31697444778547
1.2712499,-20.385022153123963,-2.9890472119968314,10.208569650777525,-67.1696527570947,143.74989250520363,50.379324966691016
1.2812499,-23.26032435514426,-10.165439321232949,7.0421395613429265,90.38169509991008,124.06064455601054,-114.70804364577896
1.2912499,-20.61402094025851,-14.396715472930659,-1.9927802851300684,258.46531989722456,88.54973052279117,-241.12311910311945
1.3012499,-24.67567280814924,-14.986584124283864,-10.681667447428424,381.4947741328293,45.329495504556625,-300.24562697527705
1.3112499,-30.386074145167154,-10.140828176793166,-14.297913345581048,422.3207790729794,0.6212860374420743,-291.8353984731538
1.3212499,-28.365341804702105,-2.819770188383955,-12.677038803675945,403.77103622928075,-29.489975361958393,-261.7877249040061
1.3312499,-20.523734430786355,4.205434248270164,-11.331006178413782,345.62174722750274,-41.24304211049458,-247.98158419613935
1.3412499,-13.5103314841526,7.607723560342069,-11.033089336813758,260.20770456434497,-40.34288145821544,-248.25897433552814
1.3512499,-8.514128190540502,5.736128766124993,-9.971904622608342,176.02997626626873,-28.862479973429927,-248.82869279997647
1.3612499,-3.600780352830105,1.8467144949571674,-9.74953336830337,111.1580824983693,-9.95574008936657,-242.4760509961507
1.3712499,1.0052786080536065,-1.4137308787599498,-10.850937318148356,66.84729548946068,7.057391119732643,-228.38873460330464
1.3812499,4.732857083824412,-4.142312247166204,-11.933357118296483,41.96536031835403,17.504711279208447,-211.93908333450582
1.3912499,7.392672026572158,-6.363107375870023,-12.26441323650823,36.59721631626986,24.45596807350303,-197.35257904780818
1.4012499,8.470260405912244,-7.3886879839036395,-11.582210436915087,46.45229778905722,32.513649075591566,-185.37107046224077
1.4112498999999998,8.518379075217133,-7.82208606927551,-10.545953180872822,70.7497198009624,42.224648016549196,-175.47615284243201
1.4212498999999998,8.788522280384464,-8.357660189703301,-9.770756193929593,102.64721471579983,53.36944543928822,-166.53245346733596
1.4312499,9.470664967471292,-9.223582864913773,-9.170065962093453,141.12740630763795,64.59244192411924,-154.393393059554
1.4412499,10.743912682456438,-9.767791852067047,-9.059534843385924,182.25070113972788,74.25968410253942,-137.78097714812586
1.4512499,12.122733115952816,-9.295273386954511,-9.114236643619765,217.607461269075,81.78603416398775,-119.72045414222795
1.4612499,12.890933609970611,-7.991990540565233,-9.539352777335978,245.24220515301022,84.78432733682598,-104.5665025465166
1.4712499,13.41731156184539,-6.642982322819898,-10.752244313182825,264.8452381319754,84.51739542591763,-94.95467596583889
1.4812499,13.119503369511083,-4.946388587845782,-11.367815920962162,271.72453926669687,84.43728010923988,-92.32926092518754
1.4912499,11.558392401032497,-2.9813632901426352,-10.736362359157718,266.524632232142,86.00198986467956,-97.76485462259936
1.5012499,9.986326639723561,-2.1321999279793378,-9.70296444735151,255.98028919753125,90.25101646146837,-108.08032357817143
1.5112499,9.138746079736395,-1.9736650918236907,-8.836627007298288,240.70601998449152,97.66826226072573,-120.55640564542675
1.5212499,8.846497026144073,-2.1262808383072427,-8.440071006917082,223.9744798721228,106.88478917759814,-132.94533482593835
1.5312499,8.776347846268584,-2.924172556059998,-8.200231802985915,208.10451167590992,115.08179553062618,-142.22864790471485
1.5412499,8.507379032005856,-3.7382213075066955,-7.524540805804938,192.9129039134703,118.94940775185204,-148.68478232499692
1.5512499,8.499062052787401,-4.377676351711158,-6.6963946661760545,179.55857329323553,119.25613683372501,-151.2742714036358
1.5612499,8.76692016646916,-5.016816161288513,-5.866198148717109,167.24110880009331,119.05231041537245,-148.48310484049242
1.5712499,8.297434944718873,-5.150905376907839,-4.8726891958304375,154.584015558693,117.98618140821338,-144.4613830336808
1.5812499,7.426465887877778,-5.011201077629194,-4.26046647477362,145.44816685422035,115.81505325216334,-142.6476489055382
1.5912499,6.808690155161567,-5.379915395694359,-4.036989246341574,142.74359219760998,112.14685584424528,-142.80533969729268
1.6012499,5.986209522816065,-5.8675493979615885,-3.3318367642778117,143.63881690916534,106.37267148070232,-143.27436097763785
1.6112499,5.037594277783732,-5.730197031470192,-2.596550867166132,147.2334082785735,101.17225119810023,-145.6188902738026
1.6212499,4.611172521140938,-5.494927109180189,-2.3046299026257135,152.87249907428318,96.01365272832957,-150.53892148329703
1.6312499,4.8101275160491115,-5.7191333723602265,-1.6052157793927753,157.9689080597103,89.83824561318134,-155.3803320928302
1.6412499,4.970186158121701,-5.7673692812106445,-1.098884079393618,162.62605095528127,84.60466396525493,-159.72653499089455
1.6512499,5.137549925136534,-5.274406561575632,-1.3102985511659246,163.23473423541927,79.42965332721916,-163.51183278061174
1.6612499,5.512762647505125,-4.966296156675334,-1.0491558195129167,157.939282612399,73.96503332561079,-165.0070278071279
1.6712498999999998,5.791767750446133,-4.862368694975762,-0.25803470697680975,149.58852518649584,70.41595854679076,-164.7644732600514
1.6812499,5.996909221084303,-4.321467171576607,0.4247377285453646,139.55542389450684,69.2650757326245,-165.5162837041575
1.6912499,6.289233041719626,-3.522578053853856,1.0109030126746008,127.9341819710778,69.24934638514677,-168.56954266793934
1.7012499,6.777016295747939,-2.9374705174406186,1.5463738669889893,115.74322957006223,70.35642870057222,-172.70632489968176
1.7112499,7.400393521616234,-2.2699519452129664,1.6241747560993218,104.34853719268571,72.66936103724427,-176.2289227966818
1.7212499,7.989706809331168,-1.283843040750703,1.168311641906486,92.41883878502867,74.32983120650177,-177.67481677102026
1.7312499,8.450524845357062,-0.5130942858843929,0.9204056364500601,78.00400922747924,73.7647349155776,-175.6112330090395
1.7412499,8.80191342547277,-0.2088925029406237,0.9695513951236254,63.559395527057625,72.1337417302384,-169.31005959154297
1.7512499,9.109402018586056,0.0627367821102429,0.7398387372487051,50.79143522889504,69.41443258785385,-159.52983738910865
1.7612499,9.35474584296091,0.23912605955082522,0.41522247880035384,39.88986498353996,63.626652041520174,-147.30653336935322
1.7712499,9.536439079718617,0.041879849571641266,0.169169325372697,34.356922561724495,54.91391063728943,-133.17417294908898
1.7812499,9.624292094867853,-0.19948154607284468,-0.026985761347384157,31.469617669247715,42.761567350607876,-115.60089705728124
1.7912499,9.788702028881575,-0.4388478136800034,-0.03349988063670056,29.401733829728958,30.0978393287501,-95.7763397421969
1.8012499,10.118148769270762,-0.49903012542258307,-0.19136488058799253,28.585595723955432,19.16034706478816,-75.55229007089194
1.8112499,10.449137578351584,-0.14898469889886068,-0.38508402157384225,25.996435687085235,8.684249712167256,-55.540164688266124
1.8212499,10.801588696963508,0.47179076565354083,-0.3727751441412002,19.675644272862186,0.008246041471533086,-37.539532378648595
1.8312499,11.028264986734623,0.9494790652909406,-0.18685470777901317,11.147092393512473,-7.349146621454924,-22.909167364992772
1.8412499,11.075698290877037,0.9863461480866657,0.11136054767879205,2.453318583014261,-13.248519871536413,-12.006194215827879
1.8512499,11.033770326895127,0.7529838567892463,0.3128912707264558,-5.909593214607135,-16.455036358713073,-3.231268869754211
1.8612499,10.822173681897338,0.4193057700660457,0.403090733104527,-14.627917106349155,-17.85262427162167,4.368970477732318
1.8712499,10.49800390877203,-0.15695421203089138,0.6102568050717702,-21.64424856401752,-18.54555918859384,10.766989064924386
1.8812499,10.329061079037652,-0.7166011210827028,0.8586425784548215,-25.56079812248507,-17.892412115615713,15.419067379322287
1.8912499,10.214480601277513,-1.0355967638288082,0.9907421007579689,-26.340878900584922,-17.087698955776613,17.73407463963281
1.9012499,9.971632520271122,-1.380241727600407,1.1512726575904002,-24.134283158903305,-16.891204453658034,18.3558180515719
1.9112499,9.719662662180964,-1.6883359083303096,1.3919985706033695,-20.628389101175983,-16.13057997787357,17.919159597077474
1.9212499,9.554823138188222,-1.9605991874731572,1.673874103206087,-16.44355261748251,-15.191450564351632,17.28884449877487
1.9312499,9.500021217591353,-2.2596737239471123,1.7953275590157476,-11.220402039236493,-13.562509059121334,17.003012703535855
1.9412499,9.336548032015191,-2.4335243154955153,1.7226185200871067,-5.4296399996472,-12.007776770542373,16.662893830564855
1.9512499,9.240175109411638,-2.4714678134748005,1.674269383942475,0.8700843932685606,-10.406572053793958,16.422789897772184
1.9612499,9.310978036153482,-2.3447680304863807,1.7344566676060609,6.160271490898834,-8.981040091323665,15.951814462704684
1.9712499,9.314746496147077,-2.1531836515081837,1.7385824597916837,10.295345824271227,-8.359713400268364,15.139663342174876
1.9812499,9.275446266843396,-1.9615715947920191,1.4632743427077097,13.156409127752074,-8.376765590796934,14.463343360111
1.9912499,9.244328619322319,-1.7053290660199734,1.0928036843517883,12.781008735808577,-8.918371975120387,13.935703285872634
2.0012499,9.211364985624206,-1.4759953964590264,0.9377475274630362,9.388999753173,-9.739273457929565,13.387046833852613
2.0112499,9.190785135154053,-1.4010780697597123,0.8205509330224866,4.553104894817862,-10.078591145759214,12.705176911669046
2.0212499,9.185013404460165,-1.4363783756488613,0.6362657366249856,-1.2679063720835828,-9.81826500125618,11.939443647127792
2.0312499,9.277657445756416,-1.715014383225394,0.6965054724048473,-6.699567793734985,-9.261037590421044,11.413302633784692
2.0412499,9.387003795840846,-2.1614503833628738,0.8751300714136936,-10.457640956344159,-7.8801704535023145,11.441509925653937
2.0512499,9.417273561658027,-2.42092129914896,0.7827108901995331,-12.313481579483726,-6.008670972745722,11.768741529978824
2.0612499,9.487735365255013,-2.5316834768974688,0.6760200239536743,-12.904940472966553,-4.7752278256044,11.864847352576858
2.0712499,9.597921724671219,-2.7724601053974767,0.7462467106490667,-11.64838115108934,-3.876845479436115,12.038063090234404
2.0812499,9.621140983869687,-3.0273400429828334,0.7745843337809545,-8.646360488639285,-2.9410227865209877,12.492879988518062
2.0912499,9.631450493808831,-3.0387619184190227,0.7395302110360028,-5.664490315016789,-2.175641871815013,12.570386488983022
2.1012499,9.684753727046282,-3.035560835184697,0.6832150017803775,-3.7871856501712475,-1.4123245185334539,12.327507282847108
2.1112499,9.721606373333701,-3.1707394523491366,0.6679727209879747,-3.0077408866030546,-0.16147012584808934,12.635667376345358
2.1212499,9.80471995564324,-3.1061207107556434,0.7458856622016274,-3.0459856036129405,1.6334382116930901,12.377865055874404
2.1312499,9.94420147168787,-2.8866710280906296,0.8143711464388833,-4.472523634105779,3.5636964209490953,10.883186579729468
2.1412499,9.894150212974637,-2.8336547735419506,0.8502893684797268,-6.638526529591031,5.285307156007106,9.129791446432193
2.1512499,9.615294601967712,-2.9869096607824708,0.9184291333081712,-8.349006899308327,6.1498473124153366,7.588934473372044
2.1612499,9.324166592185849,-3.234250701325453,0.8847301407523304,-9.317734672789408,6.438171033559627,6.318081628364713
2.1712499,9.11740116379011,-3.4067298806389585,0.7179950474689988,-9.45845564772865,6.349699286300563,4.996923686885377
2.1812499,9.008368327449288,-3.4204701433272504,0.662817627196437,-9.426626839046083,5.578359681010071,3.517473043191309
2.1912499,9.047558235546788,-3.38968630073078,0.7477487213647936,-9.600804203638658,4.799025476712206,2.7601842923648636
2.2012499,9.163824868481987,-3.294027557223282,0.8365773782787923,-10.281149533348472,4.861545881933399,2.6886516092256176
2.2112499,9.2212677189951,-3.1992204959856108,0.9639609968113733,-11.361941001235275,5.023120895606552,3.1163372315565443
2.2212499,9.209603767917237,-3.210443991438613,1.0714635634180314,-11.69134736657921,4.965218389689722,3.952652089723906
2.2312499,9.11246012818666,-3.080003188422545,0.9681409796131251,-11.702671002891902,4.514856751352038,4.980653892715398
2.2412499,8.980527202221609,-2.854218540780631,0.8047039696276709,-12.607004309346333,3.179172747478144,6.2609173094141966
2.2512499,8.867701319271912,-2.727188825970861,0.6843191434838303,-14.435108044660794,1.4373912546484817,7.925714922109584
2.2612499,8.780509511811399,-2.6451915901860175,0.6286597119426354,-17.265428001493632,-0.06781981379522613,9.762490620755138
2.2712499,8.792471165811923,-2.6487423985262484,0.6532853619175805,-20.348195816611835,-0.9257888618962079,11.944911508787056
2.2812499,8.859764470442599,-2.6822917229626513,0.6144711194364426,-22.773093643520433,-1.1388592366766208,14.49428749177344
2.2912499,8.911390767421349,-2.6197127949344052,0.5396254469817506,-24.76785993678201,-1.1801328559565938,16.780881581864595
2.3012499,8.93980514030047,-2.5125677212183954,0.4971460121459526,-26.249772210172893,-0.4485708270711621,18.707917064398465
2.3112499,8.883249986674432,-2.4525646501258116,0.40928175679278217,-27.268110337285187,0.6169729615934166,20.569536724634567
2.3212499,8.78497590257762,-2.5005289420480463,0.25472477138348015,-27.63972955065003,1.3704637366585086,22.792492508774284
2.3312499,8.667016791122338,-2.5462209830088995,0.1347353285424226,-26.843874353845038,2.073528278681252,25.351259065639134
2.3412499,8.515437851529168,-2.4971832337292845,0.07247276599022331,-25.241400495520647,2.6377420905026425,28.27519260501523
2.3512499,8.387790527751656,-2.404243317788712,0.04919488513927195,-23.62546528828056,3.034951365679409,32.06649318870508
2.3612499,8.271880583162929,-2.2738226187084307,0.029074766375114466,-22.15004250548684,3.0844490213819644,37.145505852651965
2.3712499,8.128170877628362,-2.074469294996884,-0.09739606933942524,-21.33301296167521,2.843608381373756,43.74000898631851
2.3812499,7.900607556834005,-1.8633949356991248,-0.2380704671330652,-21.875618802388487,1.834704995674253,51.873942273283475
2.3912499,7.6926322789942265,-1.6278905675997777,-0.38258228947790096,-23.848694426117273,-0.28180587124751405,61.690724042046256
2.4012499,7.5693241632140404,-1.3904785601386107,-0.5744005219770629,-27.09448712842067,-2.8431923260420495,72.59260276694022
2.4112499,7.532556097348679,-1.3132071951752666,-0.6701489765958386,-31.195539964947034,-6.015194736371915,84.1123631307166
2.4212499,7.744803762411976,-1.3859075669060126,-0.6893235527038506,-35.365893665548576,-9.868621873770664,95.96899975439469
2.4312499,8.14069381963066,-1.5004961405856572,-0.852912852209688,-39.600730365812005,-13.838027679801675,107.65535113874687
2.4412499,8.385446928936647,-1.6387972103962876,-1.0949214811946764,-44.88991262497969,-18.09010498273222,119.55817424526332
2.4512499,8.464475355887187,-1.7714956007039677,-1.2390854626201921,-51.216042284100205,-22.908042612520713,131.92233992214244
2.4612499,8.651742802701293,-1.9331340127533525,-1.4587365971024546,-57.95758710954287,-27.958616691184428,143.70197828664712
2.4712499,9.016365896631818,-2.0921134901542264,-1.7818927517133745,-65.23928891410922,-33.70119224309539,155.7404626915821
2.4812499,9.533016010032517,-2.279488635681447,-2.0716852797414624,-74.03634321573752,-40.0528957690238,169.2888451056006
2.4912499,10.329662808992643,-2.5400646912256595,-2.321681543810615,-84.73093202853661,-46.64959078646695,184.03586372437158
2.5012499,11.477245761444284,-2.7131075985200255,-2.7507983979056045,-96.90292151592938,-54.822409684114845,199.41615030004954
2.5112499,12.782369306849953,-2.6244121487747387,-3.490180704062239,-111.74766344349136,-65.23575770313869,215.0080157202459
2.5212499,14.27263636183817,-2.1623672291272995,-4.305510991339322,-131.12857845331797,-77.93922747924844,230.27168547198872
2.5312499,16.674836226682036,-1.541250399176794,-5.0652680609574325,-152.36867007523645,-94.71355889058597,242.9742239099052
2.5412499,20.299128125272606,-0.6270340113307199,-5.963496726886632,-175.32017955621023,-116.30649860512631,251.37917905786932
2.5512499,24.868789602238305,1.1929474393352888,-6.941172047098844,-206.54880827268326,-141.42731233510509,255.47221104647844
2.5612499,30.11411020105788,3.2876565523324626,-7.487914645825358,-245.63265924609237,-168.07201967502513,253.60516124733772
2.5712499,35.22045562189164,4.853699489977744,-7.37725414292625,-287.5939995885386,-192.0334873874977,249.02881469904656
2.5812499,38.208665420269995,5.8978950849978835,-6.973052440545913,-325.9268622554662,-208.17694934510513,247.04663211942022
2.5912499,38.62944826098077,6.735137073475493,-6.753800459721471,-355.97048886051607,-215.52393073919686,245.5619270696777
2.6012499,38.3669915192891,6.518170316700592,-6.057001178779451,-376.61932442512887,-212.06377566566638,244.62554730502436
2.6112499,36.11852830846569,6.25660659708764,-3.868253377549095,-399.4333590888035,-196.40946029687663,256.36732390159034
2.6212499,29.784220757827978,6.348139238749111,-1.9004555051426861,-440.96806950696964,-171.74999142246037,281.9514053866824
2.6312499,20.17811720378098,6.661705866418975,-2.00968481906263,-484.62743142707075,-147.7767052057801,311.3876438972927
2.6412499,8.66765423526228,6.913798017210096,-4.55166168328417,-501.2274342728815,-128.59176025608755,342.29002711641846
2.6512499,-4.289347966264312,4.591327210775346,-7.963439156627502,-499.9822404427484,-120.56104731272187,377.05020893994345
2.6612499,-18.797033730647055,-0.54395339155556,-9.475062527409126,-500.2428429788455,-126.9312218587812,423.7385971836703
2.6712499,-37.05389753301273,-4.5066308568070985,-8.436458535250393,-497.5776038273517,-141.53428730085614,476.00945990922713
2.6812499,-59.510983430072194,-8.544794487380175,-12.163985029006898,-506.61816283940954,-148.90093799252827,501.1523927669514
2.6912499,-78.22335572049748,-17.7222680443874,-20.28351528308669,-467.4543201102902,-154.0241768637369,499.35100184290155
2.7012499,-71.73898169747802,-24.249574813396315,-17.581473810618085,-300.7219451011766,-108.79713709123675,457.76214876912127
2.7112499,-34.915508402207216,-15.705696818521064,-1.713969945996466,-173.6416825470674,44.87868784685554,324.2909525148306
2.7212499,-15.607138114900287,-3.144612717210044,10.238412617990551,-139.72858100889923,161.68338132177666,127.0442695653002
2.7312499,-19.761570706384976,-5.234204307731114,11.606223493528159,-33.718779324250086,151.4100235895723,-67.24139534281292
2.7412499,-15.428341541591575,-12.818530873486518,6.717066526382416,127.00873472186231,124.88681290930568,-232.5955876903259
2.7512499,-16.207859325864295,-17.29002167426387,-2.5949530110110026,282.6220599234665,104.27664212936808,-339.4918824107649
2.7612499,-28.384380686001776,-16.983897499299495,-12.249549472572738,394.070316116079,62.7013632418637,-364.6493891728294
2.7712499,-36.076750902345196,-12.386094698865607,-15.517934731637599,450.73168947213037,13.13704067223564,-329.8714046657556
2.7812499,-30.43857106453592,-3.2450110433390473,-13.371353077584681,453.8279330116582,-24.25362942842402,-282.7132321476122
2.7912499,-19.063201316871545,6.347963288230688,-11.55880143312197,401.3892406828036,-41.02587116039856,-259.4640375923533
2.8012499,-11.824740457957898,9.175184864119984,-10.279971967475804,325.1630832056903,-43.57325603632271,-255.06771558598695
2.8112499,-7.6460791172884806,7.332430099966734,-8.90275345552763,247.12301733178762,-32.606488015801425,-252.6478959543005
2.8212499,-3.813062731258106,4.68068111830428,-8.578127509987304,177.8758148485793,-9.184377571323653,-245.9641545100206
2.8312499,-0.23590622516793344,2.494554430032608,-9.547063998316691,121.87113268610997,16.209591841170656,-235.0825765597629
2.8412499,3.033220230771243,0.611574198202598,-10.800199915025253,79.00172659586273,38.568095288238716,-222.28931238369972
2.8512499,5.821966219734508,-1.548429977551183,-11.246166704488353,54.460056986880886,57.21414747754687,-206.46704431194468
2.8612499,8.168201683525238,-3.3967213314826186,-10.773100715523546,45.57187866005629,74.29068887622462,-187.75863272117613
2.8712499,9.671188818848789,-4.634023053431143,-9.986805755416844,48.10687378248251,90.19122876419735,-169.8659551038639
2.8812499,10.251723026046502,-6.484251318376073,-9.406057237404784,67.45631376764112,102.72024668039317,-154.37270040415055
2.8912499,10.636858602258163,-8.777622078888504,-9.0384017307873,98.92492327005482,112.19749712391213,-136.49799816637358
2.9012499,10.85714896655422,-9.8377158534748,-8.895608242674154,133.97852570018495,119.177389117229,-115.45586544123853
2.9112499,10.824730904885879,-9.574141867674433,-9.056211350268516,171.3228146576389,120.97657044785656,-98.40725424077297
2.9212499,11.281754039522436,-9.112145881155293,-9.550956961518768,206.9955958840675,116.93773754571693,-87.90951506185522
2.9312499,12.41956132170349,-8.898669880077044,-10.24246742327761,237.26232449595707,110.13481866780796,-80.30178777490224
2.9412499,13.131271085457342,-8.043057964257102,-10.629299442463184,255.48649468083664,104.3194319849038,-73.9956085721133
2.9512499,12.265828122724479,-6.348293411887574,-10.389866730786599,258.6088051053104,101.17301827313428,-73.13775038810776
2.9612499,10.7488751925596,-4.944316292644424,-9.836713743347666,250.81649413879063,99.85627382947779,-79.9180817769501
2.9712499,10.158333184583205,-4.338432093490208,-9.332637851233168,236.50244710639097,100.76297582321978,-91.99002379599858
2.9812499,10.21366418590057,-4.18454044489292,-8.901967863196257,218.1513157167714,103.38225634822744,-106.62796832271276
2.9912499,10.268712806528164,-4.07423000956143,-8.341373491674156,196.51444075255807,106.48033288399331,-121.98314219114522
3.0012499,10.096699687139747,-4.0837920109716235,-7.646125120968485,175.58177136517673,108.5780408179379,-136.67596144177065
3.0112499,9.726080455443277,-4.455418469925086,-7.120021877448969,159.4151361532448,107.56989593577521,-150.264407772211
3.0212499,9.352185505309961,-5.00321901291961,-6.543364363384889,144.9186469472864,103.13670885667446,-160.4301134757878
3.0312499,9.144746302238344,-5.472052125049066,-5.642193175860793,131.27602175824566,98.28120576449973,-164.32593615883764
3.0412499,8.87516615439475,-5.607201330309501,-4.6615824934545635,118.08668406001753,95.05909534337373,-162.94015678047515
3.0512499,8.342118027231951,-5.394263596152325,-3.9313450915050634,106.08930843432117,94.71474860905975,-159.20373289914906
3.0612499,7.811670324449673,-4.760632298522865,-3.616112059855818,96.26410817066417,95.52154452898266,-157.4654122352965
3.0712499,7.7853477973943335,-4.488581372831016,-3.049925844660627,88.49771611341252,96.37115471176006,-158.52860729829814
3.0812499,8.092947120577117,-4.811591137099414,-2.3209417683036677,85.27053071989504,98.89518742425963,-160.24927867328879
3.0912499,8.292280354369673,-4.679967574791434,-2.3105703631271224,84.9713061959645,102.34993798250697,-162.09807143653208
3.1012499,8.015861620242895,-4.436463273145881,-2.164557366231004,86.13140389713345,103.24096465095892,-163.88503339994548
3.1112499,7.437405835798046,-4.293486077082468,-1.4548552929125431,88.75006354585199,102.99168921285224,-166.07078284150793
3.1212499,6.901693909729128,-3.8492500363946087,-1.0667810568245395,92.76884877785034,103.22895501943839,-170.01797199474723
3.1312499,6.486368602185531,-3.526052869640139,-0.6415056154473766,97.72775935994264,100.29687162874805,-174.72048623882003
3.1412499,6.403448070532226,-3.569003893812457,0.07274628220332503,104.27253611174196,95.90548821163665,-178.85702303348944
3.1512499,6.624596133950005,-3.420044718619144,0.2849668529735048,111.10374381228675,92.85960954152317,-182.11480953402258
3.1612499,7.1567031740967675,-3.046922862452791,0.41591656561015555,114.90571569354582,89.16748327835538,-181.48830551217864
3.1712499,7.89934355152086,-2.757738506746829,1.0590721349553351,113.5351266285123,86.62092355428086,-174.2618470710397
3.1812499,8.145481707368601,-2.1072503787317722,1.2520863945387106,108.22952027432406,85.63921594111684,-163.925897578651
3.1912499,7.8168950718625325,-0.9559612810628795,0.7133862481238181,101.55686808374104,81.86381226486704,-153.94003388336873
3.2012499,7.569232433107928,-0.08323268599064422,0.18567598647905353,92.5213442211598,73.59457783879155,-143.17299818044046
3.2112499,7.655933423401511,0.30811263678144124,-0.0672958498806301,80.59856640175128,63.23267926457309,-129.7733909547827
3.2212499,7.933097166072474,0.9019216675293824,-0.4199095645067322,67.31250388423243,52.69420667859372,-115.67612794616694
3.2312499,8.152483022261869,1.6221283038285468,-0.7708379172462313,54.74602359222453,40.59946646177445,-102.72726540463165
3.2412499,8.431924613782458,1.9986961276462347,-0.7643533675474616,42.53047311443023,27.253981480215153,-89.37225249880858
3.2512499,8.90388686000613,1.929972670728583,-0.761778596768392,29.277419659289478,15.695858689177417,-74.44127689869663
3.2612499,9.305439540875984,1.6198639507757118,-0.7077600888578888,14.999489804722572,5.998736319845345,-57.12323563003162
3.2712499,9.630219516817053,1.2758883942018064,-0.6634160251822946,0.5474060251393533,-0.7173726734354297,-38.03424707137568
3.2812499,9.7305889767244,0.9012618639439934,-0.8085814799331934,-10.201852637116673,-4.301095889915365,-20.458203704163118
3.2912499,9.600305801408133,0.6363714697618933,-0.7222789214042845,-16.236257406778726,-7.504600087760585,-7.074924534030375
3.3012499,9.555560089182483,0.12372867363313671,-0.40286245319073916,-17.198165363221488,-10.45976912911137,2.4101931492582063
3.3112499,9.485018067497156,-0.6057000364704551,-0.06390587585356329,-15.15914422246879,-11.889023361296168,9.493668437114701
3.3212499,9.278996077817832,-1.1880146599258532,0.2784878304980025,-12.213094905757162,-11.56912656721819,14.623912518397958
3.3312499,9.178190513518963,-1.6799927480522427,0.5553157696860912,-8.262081066084022,-10.136951788341701,17.993335932178425
3.3412499,9.341650106718031,-2.0542176429150034,0.7891063234193862,-3.1920453777848956,-7.407730546386406,19.453766138265532
3.3512499,9.59893003625665,-2.184813043859106,1.0396213970440646,2.76191954816521,-3.9462519544353825,18.799720359338117
3.3612499,9.750913462743378,-2.232090618877726,1.3632450479025033,8.645785425424792,-0.7725360983829098,16.957881329100292
3.3712499,9.813236024021414,-2.250586689925726,1.528681935761609,13.953051161524565,2.4119296158976256,14.744718630180211
3.3812499,9.81901893190769,-2.1828069168827944,1.4662848199032128,17.16493064799289,4.80870100769721,12.600180411816726
3.3912499,9.753277535096858,-2.179617817013048,1.3174825933953098,19.058422399654095,5.951154192643827,10.800627729072417
3.4012499,9.633926418611345,-2.184642473246758,1.1783363934060354,19.56833260509184,5.782842405815698,9.33078806299678
3.4112499,9.62604399283429,-2.1331961358909366,1.0601603577137384,18.265296825636128,5.02640319146611,8.253384915913351
3.4212499,9.638010605331171,-2.0906432533985537,0.8535995775109918,15.957010439659717,3.9287282916582726,7.567812656732915
3.4312499,9.558053585039033,-2.022468647081389,0.7731403951990442,12.382864525588483,2.1551166366526346,7.01620958347501
3.4412499,9.488843752170473,-1.9402266358906262,0.9159444638301323,7.744352155059472,-0.0835562350832692,6.373364961854398
3.4512499,9.47304953364269,-1.958615174261841,1.0120419207380065,2.7891827719006765,-2.6880437997744058,5.593449916641114
3.4612499,9.484931984273834,-2.1292111323422933,1.0027876948282552,-1.1505019058167067,-5.017117645599682,4.855334663041749
3.4712499,9.52653120284571,-2.3212791759288467,1.0073553823587622,-3.7640557134163255,-6.903662074285688,4.4804449864381235
3.4812499,9.598716199767265,-2.3882777773976773,1.0938218079780413,-5.872523364416072,-8.711492749039705,4.620549825668597
3.4912499,9.672607421187898,-2.374953764054238,1.1043731238874392,-7.357381302013778,-9.731646921689808,4.823891716068085
3.5012499,9.669804096429646,-2.2901881005788685,0.8827641636294303,-8.776679551900438,-10.132999376555002,5.066780741729822
3.5112499,9.649432835520884,-2.1719539850336003,0.6898705851086118,-10.397436146927099,-10.41111243393464,5.513614033855045
3.5212499,9.669440611290536,-2.0614819739065218,0.6459113509960943,-11.73372011817031,-10.120817277133723,5.636781769543596
3.5312499,9.629917513128627,-2.027812760854785,0.5626552154055985,-12.21284702692876,-9.421353482280688,5.5105724083862935
3.5412499,9.5289356009813,-2.189899693397699,0.4650157557272424,-11.54438953300999,-8.802578139006078,5.88160747787808
3.5512499,9.553253942304254,-2.3614624028545603,0.4557385274934647,-10.115421083087629,-8.078921517010142,6.593822103617841
3.5612499,9.691260083056253,-2.354840097590038,0.4948858944989136,-8.352827295067875,-6.9658451544372735,7.099721507603013
3.5712499,9.79416138742215,-2.4066715839275696,0.5183975403967116,-6.216451431653862,-5.963044342619021,7.468978112505651
3.5812499,9.819075383232136,-2.577156976010896,0.5333654701332109,-4.0593803801755906,-5.127739401972509,8.114793710370227
3.5912499,9.805328952220052,-2.637487746545391,0.5680547309840658,-2.3098725916955183,-4.089268584363049,8.898194530000701
3.6012499,9.762482190655565,-2.4760636934199147,0.5834318826991854,-1.5614319855333707,-3.1214305961875017,9.219544041202328
3.6112499,9.608293474971248,-2.302271958736081,0.5686544027946195,-2.2849189977525755,-3.0720280035808734,9.240315992487636
3.6212499,9.414719121309393,-2.356259336810338,0.47884826758356963,-3.785589064720777,-3.299223827623518,9.589102363791568
3.6312499,9.250517372457649,-2.4196473804553706,0.3381826256394257,-5.988177442756793,-3.5469601197525673,10.198029492665441
3.6412499,9.173090589793013,-2.4465592438601638,0.38810562196213266,-8.689586647792023,-4.0563552240075955,10.725822238383822
3.6512499,9.278682152076977,-2.479206697878569,0.570089947837475,-11.051841817252967,-3.8386485734898614,10.715123321622926
3.6612499,9.40342065158343,-2.5042873995861643,0.6253099442237764,-12.676555632727952,-2.9760941088257717,9.90752579466462
3.6712499,9.44524577147573,-2.656987043975928,0.5712985282111716,-14.07973793247663,-2.094292012145458,9.203095345516003
3.6812499,9.386757890077574,-2.876588910191514,0.5251217741633899,-15.655671295172443,-0.9359980133460669,9.085149310907338
3.6912499,9.233277990004742,-2.97262270314137,0.4263134581390728,-17.183741866576707,0.28392218790991186,9.265489562709508
3.7012499,9.122157128886196,-3.026839867069855,0.33528074569932265,-17.919440957212306,1.2676312105011942,9.179238155173561
3.7112499,9.132564772261754,-3.030566237348369,0.29506511359939674,-18.26760428657724,2.3166454841152357,8.59583299751598
3.7212499,9.228291620066123,-2.917877419923797,0.28572237338658635,-18.905357047026673,3.541579918096767,8.009588930252832
3.7312499,9.345552008479176,-2.724757588621024,0.3242535456442724,-20.405161076109184,5.170057050131668,7.500325002236023
3.7412499,9.387226988028372,-2.5294902697606223,0.35564896710631483,-23.172063783352424,6.850343246029892,6.914083516445728
3.7512499,9.381764796674162,-2.464395972836657,0.3072771668391063,-26.201760200586953,8.093847769711354,6.419945775927451
3.7612499,9.35252085765331,-2.4854692349646994,0.18915858650447015,-28.921602366250195,9.218185050251579,6.033950792601684
3.7712499,9.21302119174836,-2.4980208667459483,0.09138012946489099,-31.311527498440192,9.70779366747518,5.8285214227280635
3.7812499,9.051102408415819,-2.571502590554856,0.14048410405811568,-33.11824405524495,9.256808581160396,6.256904015663319
3.7912499,9.004934239994382,-2.7321552511756075,0.22694392992421314,-33.80010407066874,8.859510998417887,7.175305140759505
3.8012499,8.969664491455557,-2.8113097871141703,0.22953984203484776,-32.9599836449712,8.461756743326916,8.250749522168142
3.8112499,8.907732176951585,-2.794017586857187,0.3122406041044174,-31.12882671463867,7.363876546226414,9.274352626475897
3.8212499,8.854376261620965,-2.843989700258371,0.415702289730772,-28.07290429625876,6.2529896185667795,10.195639463640962
3.8312499,8.847808933292203,-2.904778297869867,0.3376902654775649,-23.779832589771633,5.419423250658972,11.766623522691127
3.8412499,8.888053439138686,-2.7967300946714486,0.1787276213664194,-19.356650529572782,4.630636959249151,14.044381659851902
3.8512499,8.910294166688823,-2.526310453098079,0.056344191611618175,-15.856939242683652,3.8573275746832327,16.66847473334671
3.8612499,8.950629224431776,-2.160655721149934,-0.048797784485338586,-13.806495853813226,3.4393510606510405,19.273038357192615
3.8712499,9.01325889802247,-1.780004556518357,-0.14177689543976135,-13.161976086540333,3.023827211857919,22.013711523095605
3.8812499,9.02857110994185,-1.5159611552427095,-0.18375194786606536,-14.067384525520785,2.752490683814332,25.494799334657465
3.8912499,8.904121248189316,-1.3396399824152159,-0.2185032382268304,-15.997932220253986,2.594047750756879,29.828091148793845
3.9012499,8.706725599708582,-1.0813570873254,-0.2783797975506838,-18.455379146054316,2.125981622586102,34.514934704019545
3.9112499,8.49641952227372,-0.834147643870234,-0.3528349123748728,-21.572707648770308,1.167981354448666,39.58875672913544
3.9212499,8.24608650990551,-0.701261575816476,-0.4764038169933215,-25.344929718847613,-0.3024613855825559,45.63149110979587
3.9312499,7.975076957927158,-0.6996032448011243,-0.6218155904604395,-29.579230051554163,-2.215874365403498,53.142524681933686
3.9412499,7.688347440856701,-0.8102341417287464,-0.8093503480955591,-34.256094714668336,-4.813413261997387,62.6598813576414
3.9512499,7.398054767350497,-0.9282032123354848,-1.0079493653647522,-39.057185305834764,-8.54426922142411,73.9571487194635
3.9612499,7.207920949921909,-1.095975023291301,-1.0985372804263906,-43.990439308901124,-13.61224584653332,86.79855272653768
3.9712499,7.290460895577848,-1.4391121537053064,-1.1440214296015156,-48.49443543235307,-19.184408384006765,100.75764131234808
3.9812499,7.75137591269114,-1.7267917544774642,-1.2631790750835172,-52.34619996085815,-24.99208452889444,114.5002843776589
3.9912499,8.277554521220596,-1.8288914659839148,-1.3533398188456711,-56.065111586246054,-32.29249695704858,126.76133262343997
4.0012499,8.71389500089323,-1.9332415681582231,-1.3934598460765164,-60.1260759773337,-40.71245578284177,137.77005626694336
4.0112499,9.530134902002887,-2.075523607077748,-1.4757044351637791,-65.46448549655514,-49.3629949160719,148.52401086412473
4.021249900000001,10.935378697029483,-2.2095860290030727,-1.644591363438165,-71.80556379536301,-59.57866371295592,158.85020330802024
4.031249900000001,12.726109870726736,-2.205519148317983,-1.8784507670261006,-80.24578202110838,-71.49233991611015,169.09008449576822
4.0412499,14.79068407528783,-1.6094235261794048,-2.2761736349984854,-94.938715052599,-83.94568711558776,179.60579215334147
4.0512499,17.570114866941044,-0.6177934580857926,-2.811070091507458,-111.41550991341309,-99.09539563698269,187.805160471328
4.061249900000001,20.89946701525951,0.5844124655919556,-3.3780601436292934,-129.58078314630694,-116.08957450797904,193.2834872539691
4.071249900000001,23.85173954932486,2.4455195582265454,-3.8905757385060413,-154.7283228217193,-135.4588477027917,196.981451895702
4.0812499,26.942373157391785,4.623555183956697,-4.3271371592907615,-186.8071032559492,-158.52121916078383,199.10333971150928
4.0912499,31.110377966700874,6.3573329167528545,-4.943984852673896,-223.541632956495,-182.04333686527738,202.11223676770194
4.1012499,34.88133399865618,7.622777721503023,-5.341820772897525,-262.68881685956126,-201.39332915959764,205.5048779740855
4.111249900000001,36.53023135825589,8.658932800360443,-4.784945465344658,-304.1296539565087,-215.44161397654509,210.99162200079633
4.1212499000000005,36.87340777981577,8.717912428120526,-3.9614977581344486,-342.49958472715286,-220.09638924142212,225.01383649022992
4.1312499,35.48609183454853,7.951899010242884,-3.3892559375604723,-378.9602253635812,-215.11105921308675,246.7718007322866
4.1412499,30.726692494681682,6.604537210019184,-2.641168561300511,-413.2201626433073,-206.9912223023857,267.8814442783324
4.151249900000001,22.784012551698424,4.522980936196557,-1.9567163939939702,-439.81203323716454,-197.5168455482808,286.2030723016386
4.1612499000000005,12.629679117720942,2.1734323667884223,-1.5146870367225227,-471.61523264024174,-191.00998871175042,308.396027019283
4.1712499,1.2272204120855172,-0.27983944697080804,-1.974739411107518,-498.3387005217826,-191.1100690009366,341.3859306256483
4.1812499,-9.961129029748395,-2.6903236628542517,-3.7056977663220723,-501.3150913164837,-195.0667008510501,386.27436638694684
4.191249900000001,-22.13258812628155,-3.3430110724417768,-4.910415378929866,-498.7844260858392,-204.6683937230727,431.47045909075837
4.2012499000000005,-37.965785400434704,-3.6413282074097126,-6.386127294202413,-500.16907686712807,-215.46469917228364,464.6241058106339
4.2112499,-55.600790413263596,-7.187287940634737,-12.930440316283368,-502.7448219836981,-215.40868358067226,480.01878078891446
4.2212499,-67.73732300569677,-12.597406876259676,-19.87393674607877,-446.84079981139394,-202.53686105508865,460.6950921531845
4.231249900000001,-58.53827979100268,-14.125271716489781,-17.66236014127267,-340.1924304193935,-133.25241986184025,393.210859555801
4.241249900000001,-28.707228447612287,-9.688633973006155,-6.910600695959752,-274.18808234785985,9.86773886133432,264.4971894784281
4.2512499,-11.999635538614305,-5.393916960261039,3.5958390774661395,-235.19003783415485,123.28138756852458,92.45689685442531
4.2612499,-12.795321190564069,-8.758673965084716,6.916399982251426,-132.45241925509478,149.24174660362382,-73.97984780414608
4.271249900000001,-11.733944386317448,-16.240897064116595,1.9055423839660994,54.05046322157459,144.28626960444342,-211.58662422708454
4.281249900000001,-15.575320941112023,-20.912557220786198,-6.95612417384574,275.33050189446055,119.63745064516908,-303.1951010807141
4.2912499,-25.19454890783757,-18.625249522565902,-13.36614899845538,424.31388723503187,81.23429498622272,-325.53726572777606
4.3012499,-30.954744625512987,-11.433272061841587,-14.804943952229362,481.6785109165088,42.00814939582148,-301.51779666587845
4.311249900000001,-28.35394905408812,-2.9373773472781477,-13.49897717408029,490.9081999319299,9.562318427541719,-275.32624321750654
4.321249900000001,-20.148285677515364,4.7511812389942785,-12.327572892688977,449.422140658739,-4.9805807646505675,-261.529601251595
4.3312499,-13.190734322783113,8.338838517284973,-11.202362348821929,371.7350311228028,-5.777280283452446,-253.2348306070086
4.3412499,-8.71452586236503,7.937130857685506,-9.693203159289771,286.0198749998329,4.2315402199954715,-245.32493691232906
4.351249900000001,-4.865082518032948,6.060585078066414,-8.944990256735412,207.01178250138682,21.3644378673363,-236.2670689551796
4.361249900000001,-1.163999635550009,3.858051436550846,-9.190158892861236,140.7833085358141,40.33795719309127,-224.30225583240352
4.3712499000000005,1.7839613231718923,1.5505038760041865,-9.757324892014383,91.99820246322227,56.312254497050574,-211.09877658919117
4.3812499,4.326763473970553,-0.5606109956774518,-9.90325610492192,61.01561722516781,66.14033412386678,-197.4607420907278
4.3912499,7.370652880616897,-2.9336448861151654,-9.505269190035323,49.852180876106544,72.89899121483104,-183.48607669184437
4.401249900000001,10.214876399427828,-5.318062203715541,-8.788835329157621,56.12077449629993,80.52514092615696,-168.97413251494933
4.4112499000000005,11.761390519338757,-7.303480995734825,-7.914210804652582,76.47026816795646,90.51593972943115,-152.3305718029947
4.4212499,12.055611240475281,-8.770882129618819,-7.250652451487634,107.62178617336824,102.85206131934552,-134.59994494161685
4.4312499,11.680086921245975,-9.320572118834397,-7.0025786596871145,139.89277040107856,114.35978236505414,-117.51213369143731
4.441249900000001,11.97153437054376,-8.841753369090911,-7.461708717780325,168.59194537872216,121.22975691399957,-103.56931140717026
4.4512499000000005,12.892442261589277,-8.62321353657068,-8.299222635138051,199.18872894595626,121.88815786232729,-96.18626000779282
4.4612499,12.498793451312181,-8.664556105926154,-8.518384257243875,226.8472340785285,117.06690271776303,-95.20773553855965
4.4712499,11.205422976089702,-8.436706761261819,-8.541803468570881,248.37742103130628,111.06398639806632,-97.56684399728151
4.481249900000001,9.93100097982162,-7.8797966613057095,-8.64182470804016,263.13696795865644,106.26311182487228,-102.34258570879926
4.491249900000001,9.058592540470308,-6.427185958813323,-8.37879190662483,266.39737790367457,101.9407131846926,-110.33176728606922
4.5012499,9.200552457250826,-5.084883086213095,-7.829048540211273,260.7478617925148,98.97152161984003,-122.35765480157997
4.5112499,9.48137926685014,-4.320067969325454,-7.112932093774459,247.56737403296123,97.88170472709776,-137.5857386642872
4.521249900000001,9.662818030772533,-3.87866955321736,-6.227133890489116,225.79677373675872,99.02424045857634,-148.86271092417908
4.531249900000001,9.987986766308387,-3.4348026229601447,-5.621682798577917,198.19280861660783,102.43542817826535,-153.76616118216796
4.5412499,9.82222857887449,-2.537619784286233,-5.6018465918954075,167.31677322358044,105.77811769564897,-157.23323765334567
4.5512499,9.346809642389967,-2.040769152375957,-5.560194865133624,138.44299146401337,107.73435653709276,-159.78264108340983
4.561249900000001,8.859928561762759,-2.052327358165616,-5.130419180565839,113.0534788158321,108.04500974630537,-160.58966027232532
4.571249900000001,8.466448352158006,-2.182388744276289,-4.708268738037671,94.1952305842893,106.35785284472318,-159.4307393944829
4.5812499,8.159422288969846,-2.3687362206989553,-4.194751050246899,82.450347525292,103.14613631753733,-157.1229508972062
4.5912499,7.643869708016939,-2.4079580894889103,-3.5526019241078814,76.8525625589946,99.64768376261743,-155.598144436424
4.601249900000001,7.367536973656835,-2.193317557079499,-3.296045102415083,76.51975313935755,96.60836647488068,-155.11115154856068
4.611249900000001,7.573390273481667,-2.0704076407303478,-3.0091603982143487,79.62717024447345,92.37657410937366,-153.30035701013296
4.6212499000000005,7.918050504964043,-2.1347716930465674,-2.257237538990282,84.63236292287725,88.66648871150414,-149.96032553035477
4.6312499,8.2167670987958,-2.2931221133649733,-1.7169725918038414,90.92404205077668,87.00977099872671,-146.2891776996013
4.6412499,8.617709682247494,-2.6394946171871188,-1.4502752680006663,96.633867740269,84.9837604675445,-139.83392080317967
4.651249900000001,9.131635909084691,-2.9168398374132525,-1.0581807279111115,99.00256135907743,83.33226547077905,-128.37232523771974
4.6612499000000005,9.266250900359065,-2.749789598216507,-0.8214817596953244,97.50789008999136,81.7866495661942,-115.42709680996809
4.6712499,9.20751196689748,-2.525255247934602,-0.6194744930857033,96.10620455312744,79.47187023535149,-103.8737620443337
4.6812499,9.205482155432504,-1.9941174229632668,-0.47798344937030257,93.76938819444352,77.04257101890343,-95.37280233247982
4.691249900000001,9.015243168481469,-1.2166528957386744,-0.4365035088600455,90.67324102646258,72.99780477326853,-92.02034755017753
4.7012499000000005,8.883580959065885,-0.6993789202256043,-0.21173417732257918,87.08776898091853,67.38535834786562,-91.82718628160931
4.7112499,8.908277641970049,-0.4584972503157409,0.026645603597434363,80.69671374474855,61.3181831248105,-91.31033539708517
4.7212499,8.832169193595446,-0.40029403044150036,-0.09104008249162977,72.15760576092457,55.27061918446579,-88.86757289371896
4.731249900000001,8.659119362607365,-0.39474317411656357,-0.45384657871994416,62.25326469040224,49.18249227366957,-84.30326149376788
4.741249900000001,8.573705004256173,-0.5344742460609306,-0.42923858676144866,52.54988830550654,41.564010930114634,-77.8121378742156
4.7512499,8.909934540631603,-0.7535274699274436,0.06013503227908294,43.21531505717168,34.58254248967011,-68.7286290071671
4.7612499,9.42886797336796,-0.8563419769764054,0.20471288592594772,33.87191544920858,29.345921594399176,-56.94810675607063
4.771249900000001,9.759255235943748,-0.8312819362641912,-0.11809873119942896,25.584621136587835,23.618375904464138,-44.213078960277336
4.781249900000001,9.936811349265032,-0.6903448426009878,-0.32869456436700695,18.771944300122218,16.75746750198822,-32.89119683382471
4.7912499,10.050929655431167,-0.5436881993627017,-0.4639345345354796,13.737522250404211,10.103119929528512,-24.241435546811566
4.8012499,10.158569968730227,-0.5370183788842539,-0.6137929637941539,10.473865697102951,3.9906799472985903,-17.85490057784201
4.811249900000001,10.235515011633595,-0.6500790201230933,-0.57366963258782,7.817491513876779,-1.758622771707965,-12.77274918746929
4.821249900000001,10.287471720506314,-0.892518623650206,-0.44775372647979006,5.078617428933526,-5.997611591976607,-8.730085651398555
4.8312499,10.370755481369214,-1.3687769500537794,-0.25751477908759096,2.823506407693473,-8.445052815144875,-5.561416976951243
4.8412499,10.445022362340717,-1.8262380844286603,-0.012804730199466777,0.708824498820703,-9.184618802559392,-2.735211196021498
4.851249900000001,10.372312016598872,-2.0491009177919093,0.16709806207641592,-1.258628882544675,-8.530604413912789,-0.03878019690584769
4.861249900000001,10.140458337527479,-2.138437902046028,0.4054105626681442,-2.794034796229874,-7.518203902705851,2.014160801802707
4.8712499000000005,9.943297164606262,-2.2497869354698956,0.6472516978944993,-2.909758276204145,-5.7515235496317905,2.8757689726819526
4.8812499,9.736261545222884,-2.332252700314741,0.6395351102051023,-0.8996382382898295,-3.7862229791621567,2.6805551969058663
4.8912499,9.47403659306426,-2.3778256067635195,0.6888729938880221,1.9426026749783407,-2.992835540345446,2.1569223219532763
4.901249900000001,9.287960451430859,-2.458338908086756,0.8722549729569209,5.246099090922028,-2.39473128643513,1.9193741537613214
4.9112499000000005,9.168714124331602,-2.443374807715372,0.8791778895630425,8.142594853014414,-1.3961965004782164,2.1921045565825423
4.9212499,9.088375556172737,-2.2761484098563156,0.7659343292516667,10.3479692657223,-1.1963813120329765,2.678804545585697
4.9312499,8.984378701174938,-2.0628009644542935,0.6575303858561686,11.12429260337532,-2.0658378012161784,3.345646606487216
4.941249900000001,8.871418792016726,-2.0025710093605285,0.45738492775870454,10.795194006391089,-2.8596857205566177,4.442330003518055
4.9512499000000005,8.868993261424789,-1.9494416336614884,0.16330492318123482,9.381800476972746,-3.5807124076419115,5.9377778558193075
4.9612499,9.01269325901342,-1.9593313383432331,0.133217908292488,7.522609563938834,-4.64308587504485,7.558400051335519
4.9712499,9.209653060224841,-2.2326714514120116,0.32793076045226527,7.045407687654417,-4.9423737603074525,9.561386207125771
4.981249900000001,9.358260412365038,-2.453783260414145,0.3000671897877331,7.541697482574813,-4.320727331781486,11.955130537088554
4.991249900000001,9.47368532576907,-2.6048852165787966,0.24042761298230558,8.29377785831605,-3.8310461588663793,14.325284988592252
5.0012499,9.579304570943187,-2.8017065179619536,0.26198700877266606,9.113149172301773,-3.2339698730639075,16.355218720462315
5.0112499,9.592088411303303,-2.7818782991654816,0.20068824238238867,8.494817573859008,-2.100994008442605,16.884766106727007
5.021249900000001,9.589180006157394,-2.7309434607007472,0.21839439827424878,6.41615577159621,-0.7911352656360772,15.317487391273554
5.031249900000001,9.69632056608662,-2.90409111023002,0.2940116168518883,4.005152976482705,1.0115947633779296,12.339799442459524
5.0412499,9.812758610281787,-3.210371929451499,0.3395735396303957,1.609479488811089,3.253021216433783,8.959796611661735
5.0512499,9.827220060289804,-3.528125224340526,0.47003524070133845,0.3620205824083611,5.2741090046852825,5.967951670613739
5.061249900000001,9.752410446988392,-3.675682674627024,0.5876621151366115,0.7135216787022499,6.849379579473633,3.006356165899883
5.071249900000001,9.580410766208477,-3.684721712415364,0.6143578352049431,1.7245110115558284,7.33132904246749,0.21700040244836932
5.0812499,9.369575664829396,-3.719752714538903,0.6505466718006155,2.8320922549583836,6.8482553440567075,-1.7751087765610727
5.0912499,9.227743812344965,-3.5876725561376706,0.6214494416378296,3.4754191039421993,5.936004566526646,-3.2491184473808077
5.101249900000001,9.165535352833256,-3.2542989540499527,0.4890676338516634,2.6550739712193048,4.581394146674288,-4.4468155222775065
5.111249900000001,9.197800762545025,-2.9015244224042487,0.3905574336147609,-0.41028165419003587,2.9219759107804126,-5.302238610741587
5.1212499000000005,9.306362929423686,-2.630735507790632,0.46446141482122055,-4.647661623698615,1.3342979542621687,-5.707969903041111
5.1312499,9.359710913426387,-2.5297482913626665,0.6200695534397468,-8.699745617286649,0.33508865029562346,-5.690163365370292
5.1412499,9.371310112342004,-2.551327916461026,0.6110184034736343,-11.786624264912897,-0.016678245937776448,-4.899450938231121
5.151249900000001,9.317360077739197,-2.5849792002209435,0.5359606710788055,-14.026654681941663,-1.0282624365060233,-3.327910832301101
5.1612499000000005,9.210803128094406,-2.7482302753731758,0.5388093228016445,-14.7880521741287,-2.11211942926208,-1.2391033625388808
5.1712499,9.144752916458096,-2.913853520440844,0.46113397318958027,-14.155438007548796,-2.6754653814402904,1.010864116601425
5.1812499,9.12334634508756,-2.9710627932542164,0.3479557917221627,-12.98068237391539,-2.9629470506674327,3.1286721827110244
5.191249900000001,9.146047472493036,-2.9534903174269225,0.3317651544912188,-11.869464449311282,-2.6878198808085214,5.340563646174159
5.2012499000000005,9.237669723719547,-2.8357184994239613,0.3728001934871286,-10.948502324564467,-1.9670874937944012,7.005524164320464
5.2112499,9.320311743570878,-2.6659953490896555,0.38534464466195817,-10.701184134422105,-0.8270700378811059,7.853028047735511
5.2212499,9.351283215972142,-2.541847006046059,0.37506394736482446,-11.248335627480113,0.6296093073014161,8.524716077816949
5.231249900000001,9.369925187937193,-2.4953238040526173,0.37069703299189033,-11.574589376488733,1.937759046526671,9.045557236966228
5.241249900000001,9.3330173925324,-2.462627610306167,0.33020173179042833,-11.452273062901908,3.22445312497244,9.70274227883676
5.2512499,9.229928812858674,-2.4890615304357255,0.26942338728543835,-10.564517929882783,4.433157817422611,10.598560917320366
5.2612499,9.141191730316754,-2.574722131705875,0.20569389922115727,-8.981919850920484,5.733820544637435,11.838808121425375
5.271249900000001,9.094553513915535,-2.5689636936848723,0.19658827820946723,-6.957782702484115,7.050955801631014,13.624629326246007
5.281249900000001,9.128164333577713,-2.527936630976969,0.36869424107727394,-4.310494287817464,8.344018249373574,15.595938249896287
5.2912499,9.183687200406606,-2.509042917436109,0.5806419312040365,-0.8755142388824214,9.652182941898898,17.25203639312706
5.3012499,9.126846035485308,-2.4358574302759646,0.6200937714187271,3.413844651656771,10.689672392578231,18.51589542484177
5.311249900000001,8.972168631501859,-2.4488744607915316,0.5265078890438332,7.973046407883604,11.106499420907971,19.62338012538297
5.321249900000001,8.781043340411756,-2.5864309229011497,0.38479701406176586,12.28855473134116,10.665165943434282,21.293813204574956
5.3312499,8.634255582261407,-2.608703509279475,0.24938346906086772,14.841531567452225,9.811824566026386,24.001126666146362
5.3412499,8.590420046129884,-2.420945849118114,0.1513997872110994,13.961350511255192,8.72431096145766,27.55500932968093
5.351249900000001,8.466709600242272,-2.198658939572655,0.031521162816771,9.809100381189234,7.830200096102085,31.582323128858434
5.361249900000001,8.195265228073389,-1.9188873983275903,-0.18446181045134333,2.7453653825591307,7.203845269545109,35.47826606689288
5.3712499000000005,7.998180683781731,-1.6569457650812298,-0.408510424870175,-5.796481728420992,5.625868022916431,38.80508209065789
5.3812499,7.968175544522065,-1.5732283966747846,-0.5162203840718637,-14.551100058996973,3.142979667403607,42.54088826849721
5.3912499,8.03028587778099,-1.7005787676776662,-0.5060580576834179,-22.555215242045815,0.39627980251644934,47.23938694965701
5.401249900000001,8.207529266233413,-1.8679457686569918,-0.4783742892791083,-29.32962387534618,-2.392460859488357,52.693236745413664
5.4112499000000005,8.385572954149463,-2.0000487027421565,-0.5325209744764524,-35.07157130732778,-5.3731629298353765,59.091271139941796
5.4212499,8.389128094115762,-2.1210872327822896,-0.7468234773313652,-40.582360040487785,-8.79971350978216,66.78790563697605
5.4312499,8.310572271668658,-2.211681680935047,-1.0533308866758035,-46.29152754003014,-12.881470207214683,75.44085823963513
5.441249900000001,8.339333451609447,-2.280247174957773,-1.3535278956445231,-52.27500983532351,-17.67002697339105,84.91451021705144
5.4512499000000005,8.575019755815779,-2.382650002805545,-1.637535053531033,-59.16428494820216,-23.035015172868988,95.58168280365054
5.4612499,8.853481440873688,-2.422703593908925,-1.925992480474109,-67.86060310003955,-28.061338389788894,108.08090275784592
5.4712499,9.06910913248625,-2.2901709272415336,-2.254694374082671,-78.1811279648078,-32.869403688275305,121.21325455163452
5.481249900000001,9.792589304115921,-2.0254275863741578,-2.5295356629348484,-89.60857995238743,-38.50417890988015,133.29227208644994
5.491249900000001,11.170062282925961,-1.7540405656937899,-2.7521518924850734,-101.87251756558045,-45.81026194388536,144.36485223760803
5.5012499,12.469993667494272,-1.4142877706616621,-3.1601163516067414,-115.38770168167316,-55.07449690674094,155.47207403057297
5.5112499,13.450510392961696,-1.0065611229768026,-3.6796027200241226,-130.31014923014985,-66.95363594967846,165.7487056830124
5.521249900000001,14.791577964476922,-0.5330666193060974,-4.285384900021064,-143.58444454298092,-81.51106192822492,173.67137768428032
5.531249900000001,17.05048771270664,0.6324156623437407,-5.100019191611526,-153.97745138681012,-96.83563173409605,178.01115294393156
5.5412499,20.379996476996574,2.871675730381603,-5.265366669906018,-167.61241276240054,-116.07335597556064,179.56186178255527
5.5512499,25.003153378917396,4.790965586002487,-4.7553093956760035,-183.75112724781448,-141.2787253579055,182.57608619655358
5.561249900000001,30.361727942423038,5.863619884517372,-4.556534671720466,-193.25067980187052,-165.4788469834855,188.58940174583108
5.571249900000001,35.20531525199172,6.6734493046318635,-4.2108931207689695,-196.6710108123364,-182.53164693770177,199.70639883208253
5.5812499,37.563422515922944,6.434244480968495,-3.2709709169065073,-198.0849047603348,-191.07161670671812,219.39799604547636
5.5912499,35.87789989412735,6.307986982918982,-2.0852794997417483,-206.20343771536835,-191.92170441964794,245.86131107560388
5.601249900000001,32.159774536694044,7.280366594361845,-0.624223654572759,-229.110650589215,-189.26152568136445,275.4104478807459
5.611249900000001,29.05629679706789,7.571503824922549,0.7735013798535191,-265.62883870868313,-181.84410021315293,306.24796448734895
5.6212499000000005,24.711372640642374,7.1219484773622765,1.3340694744551558,-311.57573977122433,-168.5897086226062,335.11890264733523
5.6312499,17.510471891459968,6.427034759844282,1.4096805056987887,-367.6498149191328,-157.75005986176262,362.2331701713409
5.6412499,8.07728804211357,4.391031863539992,0.5556215036135431,-432.34119877005895,-151.85658699299518,387.8709905829763
5.651249900000001,-3.2828496733348733,1.6042983095217678,-1.819110559642822,-486.0342780875025,-153.81550644942843,411.65409038693355
5.6612499000000005,-14.703929852606647,-0.7249088652079801,-4.372985256920378,-502.4221184193224,-160.2402203189967,437.2610099517324
5.6712499,-27.476897127843003,-2.8554304791613254,-5.172962588313297,-499.2771475610321,-168.93909275398948,461.59685577676095
5.6812499,-45.489301478317046,-4.466585784554153,-6.417277018590544,-498.95452138656424,-176.35371908434442,478.3522826885539
5.691249900000001,-65.95510035543714,-7.243101385006993,-15.283932428601105,-504.5302345360614,-166.5519182137047,474.954321117123
5.7012499000000005,-73.751607152172,-13.129948540683216,-24.46483618042142,-473.73597972849035,-138.91528734702197,441.9275927086001
5.7112499,-48.843832794143616,-13.530872330045383,-18.066303156506773,-398.5832786158123,-61.17270186172319,354.6534609306231
5.7212499,-14.115943030154327,-5.226003145680248,-2.44706812451452,-359.9400542063634,73.43331864635289,193.1280642514741
5.731249900000001,-7.1644241303508975,-0.9311330716282769,7.150556968269222,-323.8562084713449,155.53431634200928,10.560644074168227
5.741249900000001,-12.526704967076345,-6.652077226251176,7.443120989750656,-196.5870234415878,150.55567684449167,-139.46259805118748
5.7512499,-11.22750422409917,-14.635123694626142,1.6917724903610238,6.305615686501683,138.68144532171445,-246.87256319422326
5.7612499,-15.866632295623253,-18.77800295521497,-5.2317953774524835,207.5237096061072,115.65125321269578,-303.6984557895133
5.771249900000001,-26.22187488456528,-18.286075993447827,-10.531536527881777,353.22917495453765,73.94797750157942,-300.8758003447556
5.781249900000001,-31.23072827824629,-13.37702635313606,-13.057427945125127,432.1057235454132,35.99924205561718,-256.6153059411201
5.7912499,-27.83167717315831,-6.051004590683671,-13.133371250056797,468.13321180486906,3.1609726084443217,-214.99671476048437
5.8012499,-20.202841143123194,1.4441256966770313,-11.876496843847931,456.68304561822055,-19.294772015827704,-192.4610542096274
5.811249900000001,-14.23378281836413,5.987446372899492,-10.021831579777068,403.4994031535792,-28.243705475409254,-181.90351039656903
5.821249900000001,-9.649469363003524,7.765404619144759,-8.785258466357575,324.76152067127293,-22.322342278275617,-180.36926285300214
5.8312499,-4.82093599044923,6.909613198859873,-8.480023936994183,241.28000841502478,-4.730728253180786,-182.31158401869746
5.8412499,-0.3480562452558221,3.970175036771073,-8.935868663912329,165.2153100907279,17.93496412738693,-180.52833827894642
5.851249900000001,2.657752615003015,0.9757920804599995,-9.269732335969646,97.55064374021062,39.38717856238088,-173.68883964127798
5.861249900000001,4.5345038589280575,-1.4276008463985033,-9.269680417468082,45.873719010358094,56.494056957568546,-167.63685812716662
5.8712499000000005,6.450333669428813,-4.121891783773537,-9.528122660343085,17.455709895951085,70.99297427892014,-162.99908165939794
5.8812499,7.885492817745634,-7.249133427978342,-9.775562919033732,10.053717319054531,83.53628462110036,-154.8327391856101
5.8912499,8.01151599168514,-9.942761108180585,-9.689873351740234,21.23869576155989,94.15538381067171,-143.36120463222574
5.901249900000001,7.735995458078839,-11.89348710268982,-9.526887685889331,51.6961703562096,104.16739078168676,-131.73952541212566
5.9112499000000005,8.32846757123084,-13.308445749911094,-9.332627771159364,96.66363513446474,114.21900685038106,-119.69678607821459
5.9212499,9.235431703598476,-14.214408882321093,-8.629771135529243,146.0495843505705,123.91854176769027,-104.75588220757008
5.9312499,9.709970534005842,-13.833302704083621,-7.906783407610484,190.92512215488972,130.66053017654934,-89.93805980659408
5.941249900000001,10.25984713068569,-11.928260711931259,-8.47538254662298,229.08634058237953,129.35811562642667,-83.84780036374197
5.9512499000000005,11.065051550558557,-9.897117911458183,-9.787830271744282,255.31613092202707,121.18934427159563,-89.82175652749655
5.9612499,11.317594529276052,-8.52671962988127,-10.127665525453239,265.2319991026344,112.18269434602915,-100.67817018512117
5.9712499,10.395909642723044,-6.847769044598385,-9.750554467681747,258.24285390259826,105.74286805179248,-113.26033091905826
5.981249900000001,9.3672823730961,-4.988907211896033,-9.510070009264219,238.36374686772965,101.44038911891342,-128.128144361607
5.991249900000001,9.51033232779029,-4.073444306788868,-9.160459961823003,210.40010791089483,101.24948896146626,-142.85656641986932
6.0012499,10.093302054812272,-3.954578239240735,-8.379164196528171,177.91120634969067,106.0828922653894,-154.7618040414295
6.0112499,10.58854071235509,-3.7344305960246715,-7.396108137254415,144.55889551538237,112.93944562915186,-164.94153854518336
6.021249900000001,11.366197320767503,-3.5415706641792988,-6.615373497991658,115.56619125499272,118.66145595834378,-175.98002486559145
6.031249900000001,11.951105486689398,-3.980334524391586,-5.997190033425974,94.21548522889056,121.30210961435691,-183.25236070096904
6.0412499,11.653250841494353,-4.465564887360221,-5.448990365609664,78.72872894545704,121.67790416582919,-183.6430298719992
6.0512499,10.688175659964166,-4.313676234664184,-4.974574835543461,69.97121769729118,120.53181705563422,-183.16615335648032
6.061249900000001,9.82947933733122,-4.058996132860722,-4.405398895301342,69.99056494805505,117.10060348560904,-184.7631933590213
6.071249900000001,9.168087460958679,-4.16831517347226,-3.6452985293667837,76.7827872814827,110.79003538434763,-186.49989205945326
6.0812499,8.690567201524004,-4.160720592128533,-2.9302995166246606,88.37169673226504,103.5536128048363,-187.83079981127457
6.0912499,8.785219735079147,-3.456418933279263,-2.4686863493701736,99.39222421124249,97.34199074808625,-189.34758316189547
6.101249900000001,8.977546298521295,-2.967598559634668,-2.24744781732748,108.57719567432453,89.88120728693868,-189.4021628109686
6.111249900000001,8.58781807872776,-3.025767062332605,-1.9421677008371898,115.4115935214442,81.01864755972771,-186.9005357060094
6.1212499000000005,8.077160236366225,-2.6542467667849796,-1.693418978024401,118.01968510084697,73.72145303340263,-183.53717828561633
6.1312499,7.98987322965011,-1.970595092054347,-1.6367387663745407,115.39604263240712,68.04984659977913,-179.87347276287457
6.141249900000001,8.137448057269289,-1.608048281907947,-1.2474666686133051,107.68012672389409,62.997539792801554,-173.7452445257874
6.151249900000001,8.198342091904514,-1.3515504271756098,-0.6012693270027412,97.15362816842311,60.35083892662782,-165.43190521190553
6.1612499000000005,7.93887270601647,-0.7618879064882913,-0.44085511973841446,85.68769640389488,60.116472134487516,-158.67068884159605
6.1712499,7.716914057597737,-0.10939034864547287,-0.7556999278565176,74.60489603233381,59.609503798648944,-153.98133579641842
6.1812499,7.677826911418043,0.019273772022030775,-0.9755690361080303,65.2991393801099,57.139619371605406,-148.61831415726394
6.191249900000001,7.503063008772704,-0.36787222459918656,-1.022006849007359,58.79036360174095,53.79005210238098,-140.34082861125015
6.2012499000000005,7.261832409337096,-0.4107873072833848,-1.2918687819507977,52.592255514206606,51.381938725635095,-129.0865506258355
6.2112499,7.009380724312323,0.12937284612980984,-1.6455154972675459,44.375304538548235,48.20774511299182,-116.49546154346315
6.2212499,6.722246248451255,0.7725347750462032,-1.9606840780698536,36.011559213285885,43.18684389987941,-104.05178942193805
6.231249900000001,6.550027659303725,1.416606634868192,-2.416042280977798,28.47621753045525,36.61964937766832,-92.12029163579328
6.241249900000001,6.684334153364466,1.63062775087831,-2.638901262067001,22.351349402832216,28.716010666635416,-79.72261816969316
6.2512499,7.241715652667512,1.26958801799264,-2.1037651372671013,16.8477822722069,21.095733066673436,-63.47162384996882
6.2612499,7.74587599521926,0.6876930624041044,-1.326845404998221,11.256146058820104,15.683700952400569,-42.40507470180885
6.271249900000001,7.786665450450313,0.21922946730555382,-1.0892073265299214,6.338278269479126,11.518689631205444,-20.23097458297938
6.281249900000001,8.020470033271138,-0.24904459059393189,-1.2690427537635391,3.044064167225143,8.425130810784422,-0.43318241162679055
6.2912499,8.634058956236474,-0.8417533605937554,-1.5777204005735945,1.6204701310285576,6.83328769940565,16.087149093063733
6.3012499,8.98772878965824,-0.9615504363550209,-1.8283644875380525,-0.3745950733981997,5.967655434310648,27.66097704248981
6.311249900000001,9.129933520472896,-0.7037702266506068,-1.6727770087797833,-3.5952142009540173,5.6767940274757684,32.48239098259144
6.321249900000001,9.436263609759944,-0.8877530102341951,-1.1420224910669023,-5.818667901787535,6.699952574733993,31.84833359369462
6.3312499,9.730080957645075,-1.5550037314152474,-0.6727038998785906,-6.527678989561988,9.099895256851935,29.362627944308088
6.3412499,9.92087921104376,-2.3669753758344823,-0.3887626211174593,-6.306445711932879,12.447815934118001,27.324373330753403
6.351249900000001,10.15781090576425,-3.1436030322723107,-0.06291526534515413,-3.636100356977816,16.668744223842463,25.62098473160973
6.361249900000001,10.435837486592943,-3.497359597092258,0.24587579825539824,1.5586469007981985,21.04078463741063,22.544875609263112
6.3712499000000005,10.561255021462784,-3.4641344723437433,0.4645518584816929,8.311700050945866,24.034148801936492,17.405555438344123
6.3812499,10.509866944861013,-3.2743366584224307,0.6232235532337724,15.363191868543879,25.429201755824884,11.795413943937522
6.391249900000001,10.330600257815279,-3.058295195554412,0.7199496198644105,20.62679306714156,24.903503557667936,7.613225249266843
6.401249900000001,10.163147690409923,-2.824103693008479,0.7047175545394403,23.310274330114055,23.033301283226834,5.166372881960836
6.4112499000000005,9.992207217881589,-2.4996118740176145,0.4436164417528397,23.511545759078366,20.049259495453317,3.9192584131285386
6.4212499,9.705811858652051,-2.1517106467006824,0.10772475997524857,20.806712698581737,15.449026810212862,3.7064391091037177
6.4312499,9.43551322690053,-1.8451730011469125,-0.10379358689330849,15.172682040325904,10.388008627584114,4.353848667496114
6.441249900000001,9.343245408556577,-1.6562387823814595,-0.267923546279684,7.465299734271039,5.913630397726616,5.831448298081942
6.4512499000000005,9.34871199412235,-1.5701395386247046,-0.32906423446948135,-1.2385855039668325,1.7152445230937687,7.88869154011371
6.4612499,9.386343298821096,-1.6225621542529205,-0.19394636949055677,-9.517615849653117,-1.627863283982338,10.1741731781008
6.4712499,9.482948660419835,-1.7832244254445562,-0.10635130235611633,-16.397027929053753,-3.617549716437416,12.426794736137511
6.481249900000001,9.506393260012125,-1.9904673454519752,-0.17488438644264565,-21.218102139495944,-5.073605770865746,14.694329628226383
6.491249900000001,9.447165782078704,-2.317885609505405,-0.16948240875898626,-23.757758165387102,-6.3121388282001485,17.049897378046484
6.5012499,9.39460814011336,-2.689866482642074,-0.06887138478516802,-23.833863644835866,-6.85103835269345,19.15468011766913
6.5112499,9.265138255917071,-2.884691501627436,-0.053670185722648686,-21.998979806569448,-7.050838359620151,20.540812297189028
6.521249900000001,9.174671151125787,-3.0618167003091648,-0.025299242312094978,-18.912920511862755,-7.25726769681909,21.381315248718156
6.531249900000001,9.18680853255271,-3.3064667785399227,0.07384559856470546,-14.87844189551181,-7.013074990637945,21.65562824624167
6.5412499,9.214226882009124,-3.458913029113514,0.20234238198672155,-10.251968144130878,-6.518500793402431,21.127108356782077
6.5512499,9.366667527282399,-3.487172267891724,0.31843536538850725,-5.660764502286837,-5.627200609901569,19.858065357200612
6.561249900000001,9.561735213561692,-3.4605944389272767,0.3687606374295487,-1.0662344839243931,-4.546812777888346,18.074478907170672
6.571249900000001,9.618545971706194,-3.3547541709082522,0.34179395089642506,2.582820966538336,-3.6059798130860456,16.118537739805035
6.5812499,9.512501167104904,-3.1408126297538588,0.2189063838473103,4.582015662112656,-2.7153813931212487,14.2006072304644
6.5912499,9.35277568105957,-2.9460562683558087,0.03591772243367708,5.004723923591197,-2.043245353053886,12.731346070622328
6.601249900000001,9.227783596049074,-2.8163381893444437,-0.15321801390533682,3.6806511404795206,-1.511546101506585,11.740787108764307
6.611249900000001,9.097746324434839,-2.6450144551059687,-0.35363529451426495,0.7632973269390226,-1.1772901695489628,11.182522558658073
6.6212499000000005,9.00900388287474,-2.5309554123817257,-0.4756379476360357,-3.3351401941531154,-1.362979150979196,10.971354468749468
6.6312499,9.112111498823621,-2.6154225312906676,-0.49276242740131093,-7.743078623126813,-1.1928208175307176,10.927370915286893
6.641249900000001,9.30618517466034,-2.823803733593972,-0.4511438081626086,-11.033818859315998,-0.40090171841215455,11.248844878415886
6.651249900000001,9.364473292325627,-2.958145357479833,-0.38216422399013134,-12.862314196492974,0.359992731714904,11.782092850902318
6.6612499000000005,9.341542832646407,-2.96754558589121,-0.353740461371091,-14.14482380761653,1.031292271900723,12.230518260849761
6.6712499,9.31691992527698,-3.008772452592986,-0.36808750881639657,-15.09587285719143,1.947523758247531,12.817119635071236
6.6812499,9.26405576310715,-3.1081773712916907,-0.4077437835366063,-15.807641692290357,2.8204474231453873,13.750617657799014
6.691249900000001,9.224646668443507,-3.2152409039213294,-0.40603718640526687,-16.525723737091063,3.260047289816716,14.870369365712625
6.7012499000000005,9.249249361505639,-3.2348390295934277,-0.367495617133101,-17.517745272267945,3.6525316016594798,16.36254222444727
6.7112499,9.299254418746935,-3.1482471167093817,-0.3837910070430208,-18.985938817214144,4.011451668023276,17.83655583401634
6.7212499,9.298133412076691,-3.0621958319592943,-0.3771229425981662,-20.568692833340847,3.7347211045041626,18.866520191620033
6.731249900000001,9.282593967820613,-3.0684751488957462,-0.34507095715038233,-21.634488992090233,3.4169221225045177,19.63944250708329
6.741249900000001,9.226928026815777,-3.087794597546541,-0.35373499448801415,-22.508062203423414,3.2177172488413768,20.126364454458052
6.7512499,9.170884617649895,-3.0288032572818,-0.3693283504768618,-23.517423807764917,2.901715181718811,20.589929957000923
6.7612499,9.117495650688905,-2.941753177012615,-0.35132252037743067,-24.482748102856295,2.4325121802119902,21.294008539738233
6.771249900000001,8.969193513807742,-2.856864341089988,-0.3711354845596921,-25.661221494561254,1.7046814680405502,22.344069594781256
6.781249900000001,8.79123035199674,-2.7335142023361536,-0.4383256179995265,-27.190683176808463,0.7326954294125245,24.06729238047651
6.7912499,8.682173638095842,-2.6175454654438295,-0.5099840019345931,-28.601550678869692,-0.715488528665278,26.534716515682867
6.8012499,8.563295352431725,-2.55930475590444,-0.5245832606896207,-30.14269644076196,-2.7261043439539954,29.787391102959408
6.811249900000001,8.423431872035227,-2.516877094740281,-0.5600877266097344,-31.535454276914002,-4.8383723841798005,34.111587631183
6.821249900000001,8.325049595055894,-2.3816972311824838,-0.7478393739809283,-33.22120831636438,-7.1759912523321026,39.284429835223484
6.8312499,8.21479631108195,-2.1852645875143213,-0.9417230298764593,-35.89880196775562,-9.838858328718429,45.03784978232544
6.8412499,8.12452401009864,-2.019459947632333,-1.0520515185080628,-39.51197266274955,-12.236527700893989,51.64362806010077
6.851249900000001,8.082843962452207,-1.838860151175351,-1.2232792668016979,-44.360353195654106,-14.558964302629475,58.81463623060266
6.861249900000001,8.060655276516203,-1.6706789090204985,-1.4376948819641044,-50.12767543965249,-17.181251657802765,66.41484781732431
6.8712499000000005,8.236133627148245,-1.5553028550656367,-1.6363877430591818,-56.284129508721165,-19.4020548176857,74.18897780305326
6.8812499,8.581267543792757,-1.4240582183987869,-1.8303152266626284,-62.25494467910937,-21.54480210881133,81.97692659312327
6.891249900000001,8.87264324375714,-1.3262869701653093,-1.9110043615792367,-67.90418479075599,-24.258394329395447,89.6929244854065
6.901249900000001,9.027738163209523,-1.4031698051518902,-1.896699484903389,-72.81060063850366,-26.906212348795655,97.43102603812954
6.9112499000000005,9.1774697022772,-1.4999723545319361,-1.9195654461364602,-76.83666960343817,-29.73093104022857,106.26175751653128
6.9212499,9.322804467429885,-1.4720277871827827,-1.984142460336004,-80.69427879332125,-33.64482378426268,115.3156895388709
6.9312499,9.383140108008492,-1.427615309110535,-2.0044728717790226,-84.29678731786386,-38.48853637553031,123.524478624025
6.941249900000001,9.545922968172606,-1.3683882624948982,-2.0753456525549225,-87.9687435837179,-44.22460725472389,131.39027552031393
6.9512499000000005,10.006032516977218,-1.309328823807973,-2.1933488266565093,-91.68463318693736,-51.253518006970076,138.37576268336136
6.9612499,10.655192636868225,-1.3122329551538445,-2.2300252541734698,-95.31762649200658,-60.22950533826158,144.19342626921906
6.9712499,11.202617136788904,-1.2407889551798386,-2.2408257910207023,-99.88577828014412,-72.05260122708306,149.0595036131431
6.981249900000001,11.83510983197105,-0.9864623862314758,-2.5144031683477475,-107.14476965382255,-87.81762724608974,152.35326537575108
6.991249900000001,13.142107510053254,-0.716936241477942,-3.298102488816395,-117.1748939426155,-107.57598887138424,153.0076161989688
7.0012499,14.964307804587573,-0.39750146529626107,-4.1993988971414495,-129.76546554353473,-130.6442738417022,150.54587113066637
7.0112499,17.064458716104983,0.0491247985311906,-4.476198976049013,-145.42491493796544,-155.93500570077651,144.56733966831663
7.021249900000001,19.88280276607324,0.22583632937323458,-4.258604553426425,-160.53529937742297,-181.21484365416734,136.76126942964362
7.031249900000001,22.947641469473023,0.10244095929192373,-4.176603230701127,-174.7872283843216,-203.8774468621661,128.5038759150003
7.0412499,25.722948603090867,0.0987125715716416,-4.05579364410889,-189.13726940397837,-222.67917655312044,120.3458722562563
7.0512499,28.175367961181415,0.196066860161696,-3.4770574897310444,-200.6796177431076,-233.9262350789269,113.62923062115682
7.061249900000001,30.198502908267663,0.1044550311205578,-2.1989407446650464,-207.06510387230588,-235.43500466906403,110.8732925244818
7.071249900000001,32.03866459550756,-0.41932719924646267,-0.4883509455781965,-211.4487970976155,-228.41893262397852,115.43429885821476
7.0812499,33.01776389226362,-0.6695702050582211,0.997273227585621,-220.46225692773055,-214.67274559639512,129.6574560814974
7.0912499,31.47021002991928,-0.22646700255353236,1.9429567138563206,-236.77894497799772,-194.50242024099518,153.24771679823732
7.101249900000001,27.23388853566082,1.0044727836981175,2.212018998529988,-259.9881988212953,-172.2479699758658,184.82773326394124
7.111249900000001,21.80488466775393,2.4524724463553342,1.4535958407644864,-292.71668084957054,-153.79563608650324,224.25745998961966
7.1212499000000005,14.106505129306841,3.794334236464461,-0.49013924203342746,-341.05372688534135,-143.92540823176077,268.5761348837752
7.1312499,2.8277497473019686,5.638729672721607,-3.847256516327566,-412.23554504325,-145.02307151513008,311.85507631378283
7.141249900000001,-9.900513120705135,6.190579076350892,-8.034657320469192,-481.1886778226758,-151.13354785629875,349.7869055109811
7.151249900000001,-24.621331790248615,4.047693248547406,-10.31419796095981,-502.02190702654235,-172.84548622969234,387.4872268077276
7.1612499000000005,-40.975426254613346,0.8795626824977515,-12.209420558535323,-498.329721708273,-206.35482399476,425.88967362297836
7.1712499,-56.221577595162614,-2.6730838320495236,-16.655075596813518,-505.34256896799025,-216.04273535123016,445.76646067250005
7.1812499,-66.69911661290591,-8.428402166904636,-19.095772071991437,-446.0085794774807,-185.28012933592984,425.50449091660414
7.191249900000001,-55.81600736085259,-15.855336124662003,-14.308650157603497,-289.31819748252605,-94.09837460458976,355.3900406464183
7.2012499000000005,-26.632086832511487,-16.233893491708873,-3.0485082706398816,-150.58375977221704,42.65283170189296,231.31919893164977
7.2112499,-14.109534372158581,-12.218864840542244,5.013935883517722,-30.837995745454485,120.79787013485762,68.10834510618483
7.2212499,-16.902164325697587,-14.467882319428998,3.72372710064018,152.41345050852883,115.34248584021897,-95.94074853951773
7.231249900000001,-16.786391468239593,-17.57072192208101,-4.358139697680709,325.60534065909263,102.87711487997456,-220.50340280857603
7.241249900000001,-22.46637858183698,-15.846314629351001,-13.721814234631916,429.52602375201593,76.6996736240161,-272.1152861469139
7.2512499,-29.93861074256753,-8.577370205203337,-17.47677077454088,472.83611922690983,25.864450500333763,-270.52861922134724
7.2612499,-26.88521163165716,2.176614883106042,-14.731825129409353,439.6363770996679,-5.38733118820158,-261.67007285715164
7.271249900000001,-18.89534592780068,10.088744409159057,-11.61167182855031,347.4027467956648,-8.63248335289287,-261.2665503709759
7.281249900000001,-12.501005994914435,11.489121759263021,-10.575120244325944,235.8066945504079,1.4555272455578172,-261.16352532888874
7.2912499,-7.972047606742916,8.220641433838898,-9.700731558714395,136.03994198856878,20.33313836565062,-253.35553732867197
7.3012499,-4.273241820149706,4.616780526705275,-9.188851347105533,61.054374541127245,45.83211994903995,-239.69085118349247
7.311249900000001,-1.0741307735761902,1.9446506650617637,-9.29524450751279,11.335684203368878,70.25768552328312,-224.0808895018986
7.321249900000001,1.4606597622219486,-0.7594087104019385,-9.623421970347096,-10.839290424292365,88.2226545163499,-207.63784644620154
7.3312499,3.6891687208261095,-3.5909541635463054,-10.266818939751815,-6.898941438100023,98.02978678064602,-189.4291006753392
7.3412499,5.324126329645649,-5.756824470331411,-10.400958781491319,16.073203528581494,99.0963742781708,-171.07645448819414
7.351249900000001,6.2870146366495705,-7.37761140309149,-9.745185827860565,53.50840421336014,98.15503807000158,-154.04055983569975
7.361249900000001,6.760609777595928,-8.782357991080879,-8.927833359741756,100.40120033673749,99.32788116921735,-132.9823337112238
7.3712499,7.373767856518104,-8.796765763943455,-8.351450579029434,144.51542447602176,103.54101055910914,-109.47447295327542
7.3812499,8.71544014613403,-7.8014917244332,-7.976963511630803,180.39488365007958,111.73059323712566,-91.21442661566957
7.391249900000001,10.290176086195718,-7.353460068550973,-7.520351340722294,212.7424778263725,120.98816157014797,-77.85270019498464
7.401249900000001,11.58193890075097,-7.21479361368556,-7.220302072282772,238.75636631034143,126.1321731687394,-65.83781782628232
7.4112499,12.339653835412678,-7.03908835809691,-7.692275267763597,259.1542167165305,123.95423711472192,-55.490640779758365
7.4212499,12.336504335626246,-6.674839785784243,-8.701715838727722,275.17652058984277,117.14754707045611,-50.09588488102054
7.4312499,11.263967117491198,-5.784689021524107,-9.340440057552328,282.7990479182408,110.02883664586831,-50.634416998610064
7.441249900000001,9.679104458359129,-4.685769028811777,-9.226866851493364,281.6808971110613,103.46557497508738,-56.57280682125879
7.4512499,8.706539282845444,-4.219440206673976,-8.454356076556687,275.2098629391859,99.43723689349935,-67.35105369255523
7.4612499,8.450337636305786,-4.606173106557209,-7.601861762097841,265.79907152238485,98.59405713760744,-79.85896555901817
7.4712499,8.533247374983496,-4.786626784794063,-7.148035569229696,251.05936870425361,99.81520352511163,-93.08134107159583
7.481249900000001,8.774142682065687,-4.569137137862861,-6.866157297327811,232.1333919869322,101.56297553482425,-108.62597267818774
7.491249900000001,9.26357601633119,-4.583616399137916,-6.312623007869116,212.8431040350321,102.00860893275701,-125.0303438058855
7.5012499,9.98377584623698,-4.963229083860153,-5.803021162961105,196.79398703260338,100.9361380664946,-139.04489032900736
7.5112499,10.468953799461872,-5.587520531898825,-5.31290019320921,183.86342275649852,98.82604982268387,-147.64406476262928
7.521249900000001,10.278703592356502,-5.767071637002168,-4.484504902034294,169.5227250765019,97.19943432307487,-149.89838317606475
7.531249900000001,9.634177410615825,-4.922227655474683,-3.8723327471409372,153.03994526303077,97.8911703624793,-150.91293126305774
7.5412499,9.008248075804692,-4.003910235289776,-3.6054960025113294,137.4833873611993,98.8046689777677,-154.33701011537363
7.5512499,8.58321725952866,-3.9006441997991663,-3.1838051224994337,124.7995884335726,97.82523212594127,-156.90603932121505
7.561249900000001,8.440346469308265,-3.9674205532634748,-2.8474195098204222,114.63664259554828,96.39609084007306,-156.94995744080987
7.571249900000001,8.546529397631378,-3.6849339872115294,-2.7516775993920577,106.56520392380271,93.82503293534101,-155.6246142322476
7.5812499,8.806018517282876,-3.4823069376199323,-2.322467926355903,101.67647581009261,88.93626586417759,-153.289484176272
7.5912499,9.060524977483281,-3.300347391465695,-1.746178122045974,100.11053156480261,83.6954764832738,-150.93166881081373
7.601249900000001,9.117957079891612,-3.0515303312055173,-1.1719057868013816,100.64075638598332,78.18656286867666,-149.14713512224526
7.611249900000001,9.078574204584825,-2.975814048474284,-0.597941439159521,103.61464093903214,72.62154638852392,-147.75144882876734
7.6212499,9.208005294015628,-2.6244902928943503,-0.46169288712814976,107.01953402826767,68.11757657339807,-146.74256096835796
7.6312499,9.17877194047306,-2.1513007326425053,-0.3804394108463255,107.4550202974949,62.79762808867194,-144.90385880893353
7.641249900000001,9.077932995530242,-2.130579586528496,-0.15485478812189554,104.34861162960348,57.433047581599276,-140.57099893224833
7.651249900000001,9.33610540376135,-2.2486244883765925,-0.2533027924451394,99.5862237672477,54.59377699351528,-133.09197796240355
7.6612499,9.587029479100432,-1.8643219308830086,-0.49838176535063516,90.90433032723487,52.00032629774841,-122.05236471788174
7.6712499,9.401844488061643,-1.4596361179271675,-0.495542369342251,79.12966347453867,47.23263300814591,-108.68074922823745
7.6812499,8.902307311963733,-1.0470776563998527,-0.39918189937324833,67.07482501499442,41.00065029559736,-96.18408295194465
7.691249900000001,8.448247187210379,-0.34773537031180835,-0.46407072227550294,54.71440878088194,33.02733356807977,-86.3266861357314
7.7012499,8.163068876913243,0.16307023041922195,-0.5178813078571344,41.467098920983574,23.0734268846896,-78.29341529223052
7.7112499,8.118588798902543,0.29151235929191094,-0.552602952921711,27.14901507879088,13.538204533800872,-70.71261078374523
7.7212499,8.429992763924963,0.20918247706021487,-0.6746025801339567,12.293535929449295,6.181124437245181,-62.89610279596355
7.731249900000001,8.915326549675417,0.025064136480627698,-0.6604286108470812,-1.7052010944575486,0.5845817674315101,-54.67096670851924
7.741249900000001,9.313915861649294,-0.2680424187378112,-0.4234891723122756,-13.11631255494881,-3.5948212012183576,-45.71804774973862
7.7512499,9.444427901502696,-0.6441134378121698,-0.024263609179412778,-20.738315229841678,-5.475640917143589,-35.86095686573461
7.7612499,9.297088617084903,-1.112201534511222,0.3913852031687818,-22.404482358453624,-6.135775614884646,-27.088648734545632
7.771249900000001,9.07475914297412,-1.5867789256038467,0.7386945851570853,-18.573265604534733,-6.826755481898445,-19.674353771512482
7.781249900000001,8.923339934234493,-1.8518599602315704,0.7296306501464987,-11.26007841422812,-6.816904409066359,-13.584637679732785
7.7912499,8.842581744513481,-1.9142890134563835,0.40637462054918405,-3.600654264942641,-6.907883397670689,-8.902561918691726
7.8012499,8.914005724649913,-1.9420259468022292,0.34130820091273745,2.022132940618984,-6.771011113207747,-4.801303094083135
7.811249900000001,9.105886165843568,-1.8433681663396475,0.5061584016104701,5.133661106476001,-4.978898715438992,-1.433120003542005
7.821249900000001,9.18131032323256,-1.6709390599485714,0.5748393953911817,5.884939782813541,-2.7322949327162074,1.1721405945593595
7.8312499,9.160286859618113,-1.7096363101901066,0.5967827286022004,5.208428594444502,-0.46032082275978603,3.230962045426411
7.8412499,9.075746059285724,-1.8771288643141029,0.5510952105029331,4.236219632697099,1.2592244021331385,4.848811076264972
7.851249900000001,8.989391129866574,-1.9302276564753242,0.304397506879246,3.666196784897575,1.8054248491931975,6.00867650421291
7.861249900000001,9.068063468955362,-1.9782610114629655,0.05001617085647548,2.866677360883157,1.5495147085564869,6.826734601058924
7.8712499,9.258599274301849,-2.0661488835902184,0.030462956309470227,1.091101347908324,1.29216529566959,7.564201098659144
7.8812499,9.438220174229546,-2.103800833559065,0.2309760883446496,-0.9826055988486909,1.729959499184435,7.84470170483071
7.891249900000001,9.614113417335378,-2.1366958535174363,0.43540049451997165,-2.3310561517529536,2.2516196674428968,7.380129960308506
7.901249900000001,9.760779808968755,-2.3658027168282003,0.5710687477757285,-2.231550777009406,2.6568148246014482,7.007801582931397
7.9112499,9.812155772318922,-2.769881275437881,0.5346625644986468,-0.5427609164558812,3.5087288802653993,7.761974524413485
7.9212499,9.741988436240083,-2.893206580207613,0.3278622321298292,1.5802920927508508,4.0347719762550565,9.028495808530987
7.931249900000001,9.691272113401112,-2.7559595715831127,0.2516826007928469,2.8607623356427654,3.6953928395790423,9.850258922267454
7.941249900000001,9.67468058567525,-2.6107264320658343,0.3169719878530786,3.094921173246691,2.9530951239290935,10.036181435361822
7.9512499,9.667230430810278,-2.492684500124369,0.29179270627845144,2.4419614794628,2.3552375423456673,9.684054457996005
7.9612499,9.655752231580852,-2.5583620646030942,0.18589178815818708,1.2801203866454383,1.7297616619882423,9.526092950431005
7.9712499,9.626800607405514,-2.807149056802009,0.19325745880987819,0.25395803907099507,0.960621724779454,9.709683241096139
7.981249900000001,9.615146471808378,-2.9219563672575615,0.2453122220589342,-0.3204760972417554,0.44805858724623165,9.657368643139245
7.991249900000001,9.600233020641852,-2.8746214197553956,0.3095695874246546,-0.5562888666414211,-0.19776970747353337,8.587556624360385
8.0012499,9.665977655936423,-2.895479306127663,0.37817816029742524,-0.2996589377593714,-0.49239291179259803,6.75117208205563
8.0112499,9.737669319328525,-2.9935617654934745,0.37011219829642383,-0.46771537226016147,-0.5862834349793979,5.560591829644265
8.021249899999999,9.690683388333067,-3.030258142003734,0.2938883595534436,-1.500490913066063,-0.5731730571394077,5.0133781392697525
8.031249899999999,9.579760708448182,-2.9613791347363176,0.3038521162979433,-3.4051324434795744,-0.5332504608708378,4.764012975297782
8.0412499,9.545255680390772,-2.9550370549494027,0.46489772005258195,-5.202076544646689,-0.41623601089312867,4.571953443486999
8.0512499,9.449489103359026,-2.9997012228563213,0.4982375630419111,-6.251691217925251,-0.6022222013568833,3.7512484133821746
8.0612499,9.277183281504279,-3.007400816781522,0.3069171039576293,-7.12026747625548,-1.0710161765601172,2.6209566362188177
8.0712499,9.189041811222351,-3.0508412500906323,0.18664085142657208,-8.246307918033926,-1.9128306168083056,1.992574191647858
8.0812499,9.182103550972412,-3.0920185608988713,0.22133273324343367,-9.304028890363849,-2.8934852375543434,1.7951216495258324
8.0912499,9.151061246712043,-3.1043916260567284,0.19445554895112435,-9.992113193755651,-3.665169558775542,1.7117036034399495
8.1012499,9.104099975064003,-3.158127846798218,0.1270378531063301,-10.331197655452472,-4.295826114952766,2.1338326539191312
8.111249899999999,9.082429044737236,-3.2621782316798753,0.14568912101173961,-10.153912904033575,-4.791577636124842,3.2609781568253045
8.1212499,9.055329803853033,-3.381635001133738,0.20147296945589563,-9.517571989448387,-5.025299001727006,4.943283305834381
8.1312499,9.011871088053294,-3.4433394752333677,0.21547774335616876,-8.611364934414613,-4.724652296951765,6.570775092002328
8.1412499,8.948106993463306,-3.416251961253164,0.17227739370532877,-7.35172207462991,-4.253969278239926,7.722588954194765
8.1512499,8.91789087855172,-3.2516084846559874,0.11659385938413405,-6.598146250366179,-3.905276209115504,8.32231767818013
8.1612499,8.912527215788364,-3.020356423771621,0.07044973708233059,-7.126218713042138,-3.4857324436616937,8.598598216596693
8.1712499,8.903432412803921,-2.8512667796812825,-0.012630179908208767,-8.66877646316563,-2.9197860196401577,9.110093958710074
8.1812499,8.893557752169995,-2.812034588173287,-0.12321778532497676,-10.857948752632755,-2.3694561494668096,9.84011503929702
8.191249899999999,8.941716451131095,-2.8634646079418067,-0.1515431245204941,-12.625222496644033,-1.389217458297748,10.834498141664804
8.201249899999999,9.06815133095563,-2.8984035930954097,-0.07555133619514835,-13.23721841762721,0.11564770501306884,11.603291561501246
8.2112499,9.194543301041104,-2.911799750343436,0.11240295343661937,-12.929604203173588,1.6406121793201467,11.998998925895679
8.2212499,9.256172156361604,-2.951667681893778,0.21362518440538025,-11.95937904471877,3.484729965823781,12.37766556919158
8.2312499,9.270111882005565,-2.9513325262887515,0.036380995794769444,-10.710890195605154,5.349644808182075,12.76093090874591
8.2412499,9.25246336783846,-2.96267623747512,-0.07638406405066214,-9.610409254595588,6.617872408981915,13.331524577373454
8.2512499,9.199704646773014,-2.969493232092228,-0.04623180850243766,-8.790288927385173,8.038567056908393,13.837792989629286
8.2612499,9.113362301345859,-2.8779478714434945,-0.10689089521488108,-8.736014931610539,9.696527557201335,14.02283531990922
8.271249899999999,9.06648988826146,-2.816725281283194,-0.16826834860915826,-9.41585073755325,10.88677472652532,14.050080642711402
8.281249899999999,9.074185420882515,-2.869177559732753,-0.15556784164123372,-10.335939732715847,12.019586728048134,14.073277311096799
8.2912499,9.06046935525928,-2.892623313118017,-0.13549580667517142,-11.04126736749605,13.558847340852944,14.048352158758359
8.3012499,9.002296548777515,-2.810077393114865,-0.12626949037615645,-11.42852674489429,15.083227888562373,13.856920408243342
8.3112499,8.916322289241714,-2.858431512032184,-0.0812145864650142,-10.199113518894789,16.529137242842733,13.62905372165181
8.3212499,8.787630882003356,-3.0037973923289716,0.0027133224679225633,-6.279117096995368,17.378939169183774,13.782679594139573
8.3312499,8.686995182248568,-3.006163215287866,0.015068352991227931,-0.546501627755471,17.592438576006646,14.761695449163291
8.3412499,8.678229151262487,-2.9879587067220705,-0.05295183659684935,6.3247264562875865,17.10809594166515,16.589968450691195
8.3512499,8.730965288818027,-2.9448246982499473,-0.09165412734841914,13.729595853150782,16.078972202814036,19.23944624849329
8.361249899999999,8.716820147659208,-2.647060832697978,-0.14047500438143923,19.40150191214028,14.78809157655396,22.486830534647286
8.3712499,8.621279805208543,-2.1639387702663395,-0.22227009205078832,21.382532884878113,12.704245664935549,26.465046033682157
8.3812499,8.542966585784905,-1.702706139809642,-0.2793072068109314,19.558970834143622,10.142498422899349,31.396466191562354
8.3912499,8.375418800273918,-1.3665370093854694,-0.36974275675925683,14.233770750937357,7.271728202702448,37.088058108199036
8.4012499,8.171336842048818,-1.0342842830744436,-0.5433362659062373,5.671006616241875,4.031255845340054,43.56231329632222
8.4112499,8.056216296566467,-0.7192254379834089,-0.7178148236098646,-6.128902615262153,0.05087836837836518,51.574032095419504
8.4212499,8.035266862702601,-0.6491189333225752,-0.7714640596406782,-18.773005362176722,-4.482661623391367,60.82756400035832
8.4312499,8.141849123621379,-0.7758771692638348,-0.78916947459016,-31.62837659752364,-8.650303998184874,71.81785084511694
8.441249899999999,8.282642236931764,-1.0156077325013115,-0.893326009399576,-43.7871898730213,-12.539352344235631,84.43330412536886
8.451249899999999,8.483934535417044,-1.3601718570253405,-1.1383010088667833,-53.67260222948316,-16.98920487892761,97.97411768905651
8.4612499,8.910314796644238,-1.7323971851840456,-1.387841337796474,-61.58039745305642,-22.192854497455073,111.6974851691444
8.4712499,9.420510735263376,-2.113909464575669,-1.5668597254377403,-67.75534487891284,-27.98503517267864,124.8212382428299
8.4812499,9.97576539978043,-2.3860726258786173,-1.7825112949471775,-73.5572339683807,-34.28905579005594,137.32143492126167
8.4912499,10.753292839802933,-2.4820517370900603,-2.0736786070958555,-80.78808083796073,-41.69448050003729,149.0672742584407
8.5012499,11.664181233486207,-2.5090277204325933,-2.4732570824490065,-91.18082002518648,-50.515989194691905,160.41420181301388
8.5112499,12.682426298861522,-2.2939940719427487,-3.1103779768552333,-106.74987745496679,-60.68762584447391,171.1903977271508
8.521249899999999,14.339303809328397,-1.4521599604517987,-4.096666688955755,-127.73568769159736,-73.91294277850743,180.20445844005056
8.531249899999999,17.013358063049107,-0.1367208345341673,-5.375791616709812,-154.80300495838006,-92.58694148270743,186.2863722887627
8.5412499,20.70376119681241,2.136016656158009,-6.582488683042068,-186.13830777178526,-115.70174283561062,187.85561095869684
8.5512499,25.324808888189743,5.7737418970130685,-6.638674981488354,-220.8598823525984,-142.0684419704303,183.55092292723273
8.5612499,31.44760159637293,8.37939482919611,-5.5594982534374955,-255.33315675845333,-171.85115501274137,176.67952163299486
8.5712499,39.77902970968835,8.493068816283774,-4.008640650897682,-274.42222858264654,-195.3083839791575,177.68520525722172
8.5812499,44.931481344894905,7.916643036430764,-2.3364898855711034,-288.6756479469179,-200.84827468667058,194.32931583389615
8.5912499,41.16310722483752,7.020559388804111,-1.4557152282465193,-318.14739653699337,-198.14081070266167,224.827823174145
8.6012499,34.18844163529238,6.0083329186823695,-1.1206716426408818,-355.3561184363234,-198.12378314354498,261.54311250411985
8.611249899999999,28.789016037112557,5.693713473871436,-0.6564160649184663,-393.15494205103,-197.96760714748203,296.21409067069226
8.6212499,22.53553349034316,5.650020144733424,-0.45047547508292773,-450.1185520576082,-192.9755877186093,320.81116559217816
8.6312499,13.344567085987574,5.61644861334696,-1.7876743809534337,-497.81765593486443,-180.96147915245206,335.244283970794
8.6412499,2.1154448324222237,5.1901160897135625,-4.316009868062775,-501.30681251834784,-172.2905514360183,349.5544387269733
8.6512499,-9.41265565582631,2.0206575257952664,-6.429807931781437,-499.2518855654974,-172.9394407427788,371.2950369343013
8.6612499,-23.99198423725174,-3.470259942317373,-7.2999475885341685,-500.8701403610472,-188.135078294865,399.7425548208347
8.6712499,-45.091436171331246,-6.5145222067548545,-9.44038685093037,-497.0628587124105,-216.74854374326802,430.58674041297445
8.6812499,-66.82948932313236,-10.95798617221876,-18.231781723005188,-507.1274267399761,-237.83248358537492,444.38703116430077
8.691249899999999,-75.3024694790918,-19.81002853007866,-24.72241581811892,-476.8876491586342,-231.20696199082525,416.82351262526157
8.7012499,-54.86034428344412,-22.72751205203632,-14.762640064148865,-326.9437508680557,-145.13908172250257,344.22181712787216
8.7112499,-21.195625088361876,-14.97574811343713,1.6062835618292208,-201.85500204610898,8.193610184606484,220.6386394020976
8.7212499,-10.17527802778928,-9.25663702880563,8.766257661869465,-112.94020990562737,104.7194251790435,67.10878852009239
8.7312499,-12.17074431510689,-11.649969620704834,6.005404251848105,43.52747307079855,122.69119191710536,-83.14288836611905
8.7412499,-11.666389235213407,-15.401570149650038,-1.2463010625263824,213.0961522396514,122.68811244540755,-203.3941486602138
8.7512499,-17.930785247129513,-16.62827448962741,-8.705111183539232,351.2898395590597,98.8110262738732,-268.2426485929671
8.7612499,-26.522772078568444,-11.828448430967269,-12.884675750670983,427.56230551133825,61.45877822949776,-279.2351467442304
8.771249899999999,-28.995888447375062,-3.2913984686657063,-12.632989735491849,446.3359065133253,28.77450289180424,-270.4500768504948
8.781249899999999,-24.98070861367506,4.108747423872641,-11.09021382481359,420.04718495522,4.056682774021148,-266.229422832429
8.7912499,-17.955483352733054,7.806505587969022,-10.189498788117723,354.7026730504434,-6.3812802362939145,-261.875737236321
8.8012499,-12.619619344486736,7.659295329120392,-9.596522696208869,276.80204369954964,-4.926643140917542,-253.05515331160635
8.8112499,-9.371186416507998,6.125060674437572,-9.48266080853709,201.4130533521565,5.359980499066016,-239.0743214893148
8.8212499,-6.329540237620467,5.011833792611757,-10.362567770240325,133.6153855028798,20.105828703847124,-224.3696824777574
8.8312499,-3.252833608162664,3.5977037323765013,-11.185553116341852,80.03217836087772,34.04677544980548,-212.47894956877025
8.8412499,-0.428560710678279,1.5395891311360919,-11.211502966500843,44.53596918788422,45.42925492982548,-201.66002278073464
8.8512499,2.2057811844151654,-0.6151574007211724,-10.821754036646041,26.368588659461793,53.599889371429555,-189.39808610497798
8.861249899999999,4.601598252046198,-2.868423807891444,-10.443754446661892,26.66260609875185,59.37322238926761,-174.0177654299561
8.8712499,6.417840982127076,-4.933087275664229,-10.241094387834975,43.22160296102729,64.29600099491766,-157.10010759974648
8.8812499,7.409208756529328,-7.092119752434441,-9.729875693613062,73.04383834347549,69.87162469719506,-139.05638537884545
8.8912499,7.9815969124970305,-8.898494282272233,-8.957746492029615,108.341223306675,78.36557102199612,-115.94471214228226
8.9012499,8.690971939046982,-9.48682459796588,-8.631688437503144,141.18564762334566,88.19693031248822,-88.649786189038
8.9112499,10.119892931090684,-9.161904204516,-9.072818101318793,171.6404426606416,96.28447457362849,-64.82340460832974
8.9212499,11.4190774381823,-8.640811786868573,-10.020694582821603,201.07666349470642,99.57007373901868,-51.62215030225745
8.9312499,11.713384896600147,-8.434427515310539,-10.968698130774818,230.27126544486686,95.2493885549261,-48.374556920942574
8.941249899999999,12.140954277986253,-8.379924066019992,-11.814235745018458,257.23354738427025,88.00076411430956,-51.17292208379944
8.9512499,12.436813656661565,-7.820459933010254,-12.067700451905646,274.2170492872555,83.60226167075749,-56.9158293790606
8.9612499,11.751887682957191,-6.464951443414467,-11.37998681118103,276.0449040708742,83.08415127103174,-65.51714353077566
8.9712499,11.052128240450989,-5.089860794428317,-10.201262390358519,265.3243866636268,86.76716501437089,-79.37171477147153
8.9812499,11.155585247418047,-4.956019788016597,-8.992372342060035,247.24717489532236,95.01427710333347,-94.50845988187106
8.9912499,11.666532238701398,-5.232074634808865,-8.16537843673772,221.92809967888786,106.34519493326526,-104.32198688971877
9.0012499,11.985100623724247,-4.556737928641521,-7.9443909957534435,190.58541524412908,117.0133798566856,-112.11429858376113
9.0112499,11.805550056256772,-3.9540164279313323,-7.61253488330001,158.14374685623,123.2103638823988,-121.37879456889254
9.0212499,11.286026285072658,-4.24854530692623,-6.767028937960444,133.93467834215866,125.05027924034135,-131.14938993812473
9.0312499,10.83356729481392,-4.462852039467375,-5.803728159030297,119.77648794087173,124.33726709209385,-140.32032264676425
9.0412499,10.224759190978416,-4.564415976196151,-4.757007675238198,112.81118337536556,120.6826709571009,-148.07396865047497
9.0512499,9.231111494421421,-4.6660976119992315,-3.7063762073031676,112.42454274868089,114.07894841490324,-154.54666407919288
9.0612499,8.46782772322219,-4.309776239658893,-3.318763879359515,116.2205239811902,106.35935840293517,-161.23072900746283
9.0712499,8.024458458870937,-3.896667597344399,-3.629388182097419,121.24482889759705,97.90705167516799,-167.67752596287593
9.0812499,7.485308740072884,-3.8973505333300373,-3.9395749095314665,128.48834867590554,88.80198983280694,-172.71756425431195
9.0912499,7.008938696156647,-4.190941359005088,-3.673113020829345,135.49613332412488,78.92075956760264,-176.0086191443034
9.1012499,7.270110707317086,-4.783791897331037,-2.6844303518034796,139.7325845731568,70.67424253726165,-172.60796442763584
9.1112499,7.992442195314801,-4.881372710235693,-1.7147847489134518,141.6861207179355,68.04343283718589,-161.82172712416974
9.1212499,8.344183401184159,-3.711488733438238,-1.6028474385119553,136.9238681430829,69.48102895882516,-150.96396619075927
9.1312499,8.307500000412377,-2.5376097347582123,-1.883311873842279,127.35026908082979,70.80537346101823,-142.93211128489486
9.1412499,8.239691594676549,-2.0326350509642075,-1.8779032992237574,115.95746081495233,71.22020263207074,-136.80967458783647
9.1512499,8.075582795657946,-1.7571871066765277,-1.5953500836400287,103.46323947019054,71.57931181339312,-131.4507081261155
9.1612499,7.747657774770311,-1.5702660524810574,-1.3335185767323288,91.83688604841825,71.98944366942588,-126.99841290163793
9.1712499,7.239893496217208,-1.635155360751982,-1.1966104028028226,82.30976559818349,70.47536658831243,-122.37741629754194
9.1812499,6.791407978198125,-1.923773938325717,-0.9996073426899722,74.53380128451465,66.44390597826202,-115.84790955496993
9.1912499,6.668163289461229,-2.1689865434328923,-0.6427633511017524,67.5767538651802,61.10596582847146,-105.33514289438264
9.2012499,6.8609116901991545,-2.1103957757940157,-0.42152062479845004,58.84329790604502,54.90241855966081,-91.17806039839267
9.2112499,7.321606577318859,-1.610929680992067,-0.35667422126669013,47.362408362670486,47.88063980931027,-75.30274875781524
9.2212499,7.58459575349277,-0.6603295365870951,-0.6162106325589677,32.15554470105971,40.56676216950484,-59.50532260585825
9.2312499,7.468980880154991,0.32930892538116796,-1.299712982803827,14.202570683121701,31.68555984908049,-46.65925077336482
9.2412499,7.586836953058447,1.0484838788882263,-1.604619964264326,-4.528245090012257,21.035286541536045,-38.3923615930417
9.2512499,7.970429025173174,1.197466376123394,-1.5226839985215563,-20.720178905084733,11.945220794008735,-34.564375576392685
9.2612499,8.455766318762974,0.6549989808418775,-1.383909962991335,-33.91127744883375,5.669513928421812,-31.596109577612854
9.2712499,9.134642922968697,-0.23779433629661867,-1.0359916671082467,-43.8090439094086,2.914900710557869,-26.692839363016283
9.2812499,9.66866121387767,-1.0735795402997161,-0.7303215961815602,-48.340204392387115,3.3241895041668577,-21.135335172027425
9.2912499,10.03904354720936,-1.8169478445465919,-0.44758051987983166,-47.159782872412926,5.017117690112726,-16.347072141782206
9.3012499,10.375930609128975,-2.7642722916050015,-0.03264569544400053,-39.4897684980943,8.037345666276938,-12.177811614670983
9.3112499,10.413498003587174,-3.6041995622134784,0.10038000555366565,-26.578306481483683,11.646860766178317,-8.40902467417135
9.3212499,10.132194386248273,-4.038545360655847,-0.1276050002332295,-11.799321223990203,14.164263199795979,-4.756618059513944
9.3312499,9.80113216308509,-4.156488272670191,-0.17563777185199,2.4082953964098355,15.671181070773194,-1.7704333840302862
9.3412499,9.557215780844725,-3.9412984715738433,0.047302881282917535,13.774811777460945,16.866493124867706,0.3101775514309344
9.3512499,9.317415212096895,-3.5671077360623973,0.16461867711504397,20.14794401025548,17.528529958065903,1.6237018610514924
9.3612499,9.042513002391823,-3.1906542695032734,0.13225227457507796,21.069814643925163,17.771084570461436,2.4942653212005
9.3712499,8.909852450355853,-2.725069337755617,0.18389466826028442,17.154690656223387,17.40603510243573,2.7588033450952554
9.3812499,8.937715795767213,-2.363836124747449,0.3684431546097105,10.370420295501042,16.252374198105542,2.4702900845637314
9.3912499,8.96946434114599,-2.240029158456622,0.5690946830139777,2.5338472299422383,14.53441010965895,1.4815174292289592
9.4012499,8.98391144139558,-2.377287140673468,0.6376609686020608,-4.182923276768303,12.360714062003517,0.5675261180205059
9.4112499,8.995638009825964,-2.722292062952683,0.6305414085685783,-8.504540054756191,9.530446897516894,0.742389075046179
9.4212499,8.979828924991976,-3.0360269517366687,0.5481515238547898,-9.877057125294607,6.131092356739806,1.6671563812328483
9.4312499,8.985721753091168,-3.2058391585707926,0.39842053877618383,-9.155105398259312,2.964554468232127,3.234834127677167
9.4412499,9.042643654069757,-3.316183187492864,0.4003273869837282,-7.261363487658358,0.22218189372008662,4.8799767527704265
9.4512499,9.101915982661767,-3.32141859283909,0.48936472256883834,-4.7650263524212155,-2.183009801972222,5.928549227483363
9.4612499,9.142785904631156,-3.191291164514364,0.48686917639643074,-2.572950005636759,-3.9553304883102505,6.338618110949766
9.4712499,9.191654488650569,-3.0989191735733113,0.4574502128763965,-1.334958638944204,-4.840526899176147,6.251874663545763
9.4812499,9.254214259340648,-3.1351283091002324,0.35552529033875163,-0.69993427434149,-5.014994571440131,6.39576777129063
9.4912499,9.236642631047447,-3.1095287028259726,0.10434213994659501,-1.0267721814390223,-5.009023302272048,6.6989179180573135
9.5012499,9.141600964080327,-3.069616359932595,-0.07507055158327336,-2.4106718490726524,-4.9063194197411395,7.097303437999652
