# Time (seconds),Accel_X,Accel_Y,Accel_Z,Gyro_X,Gyro_Y,Gyro_Z
0.0012499,8.999804496765137,-3.691859006881714,2.0398597717285156,-24.444580078125,-12.6953125,15.472412109375
0.0037499,8.983044624328613,-3.7469255924224854,2.0231003761291504,-23.86474609375,-12.5579833984375,15.3656005859375
0.0062499,8.975862503051758,-3.8067808151245117,2.008735179901123,-23.49853515625,-12.1917724609375,15.106201171875
0.0087499,8.975862503051758,-3.866635799407959,2.0015525817871094,-22.796630859375,-12.1307373046875,14.8468017578125
0.0112499,8.980650901794434,-3.9240965843200684,2.0039467811584473,-21.9268798828125,-12.2833251953125,14.7247314453125
0.0137499,8.980650901794434,-3.974374771118164,2.0039467811584473,-21.1029052734375,-11.810302734375,14.434814453125
0.016249899999999998,8.983044624328613,-4.022258758544922,2.013523578643799,-20.2789306640625,-11.749267578125,14.068603515625
0.0187499,8.980650901794434,-4.065354347229004,2.0183119773864746,-19.3634033203125,-11.8255615234375,14.0533447265625
0.021249900000000002,8.983044624328613,-4.108449935913086,2.03507137298584,-18.5546875,-11.4593505859375,13.9312744140625
0.023749899999999997,8.971074104309082,-4.146757125854492,2.0398597717285156,-17.5323486328125,-11.444091796875,13.85498046875
0.0262499,8.956708908081055,-4.185064792633057,2.0470423698425293,-16.4337158203125,-11.53564453125,13.85498046875
0.028749900000000002,8.923190116882324,-4.223371982574463,2.0446481704711914,-15.6097412109375,-11.0626220703125,13.580322265625
0.031249899999999997,8.887276649475098,-4.259284973144531,2.03507137298584,-14.434814453125,-11.3525390625,13.5498046875
0.0337499,8.846575736999512,-4.288015365600586,2.0231003761291504,-13.4124755859375,-11.383056640625,13.671875
0.0362499,8.822632789611816,-4.314351558685303,2.011129379272461,-12.02392578125,-11.383056640625,13.61083984375
0.0387499,8.801085472106934,-4.331110954284668,1.9991583824157715,-10.9710693359375,-11.1541748046875,13.5955810546875
0.0412499,8.786720275878906,-4.3406877517700195,1.9847931861877441,-10.1776123046875,-11.0015869140625,13.5650634765625
0.0437499,8.777143478393555,-4.352658748626709,1.965639591217041,-9.246826171875,-11.23046875,13.61083984375
0.0462499,8.762778282165527,-4.355052947998047,1.9393033981323242,-8.392333984375,-11.016845703125,13.5498046875
0.0487499,8.760383605957031,-4.357447147369385,1.9129672050476074,-7.50732421875,-10.8642578125,13.916015625
0.0512499,8.760383605957031,-4.352658748626709,1.8842366933822632,-6.500244140625,-10.5133056640625,14.1754150390625
0.053749899999999996,8.765172004699707,-4.335899353027344,1.8579005002975464,-5.828857421875,-10.4522705078125,13.9007568359375
0.0562499,8.772355079650879,-4.302380561828613,1.8291701078414917,-5.3558349609375,-10.4217529296875,13.97705078125
0.0587499,8.78432559967041,-4.2544965744018555,1.8052281141281128,-4.9591064453125,-10.1165771484375,13.97705078125
0.061249899999999996,8.796297073364258,-4.201824188232422,1.7860745191574097,-4.82177734375,-9.9029541015625,14.1448974609375
0.0637499,8.810662269592285,-4.1611223220825195,1.7621324062347412,-4.913330078125,-9.5062255859375,13.885498046875
0.0662499,8.813055992126465,-4.146757125854492,1.7477672100067139,-4.364013671875,-9.1094970703125,13.5345458984375
0.0687499,8.80587387084961,-4.1611223220825195,1.7310078144073486,-3.8909912109375,-8.819580078125,13.519287109375
0.0712499,8.793902397155762,-4.1874589920043945,1.7190368175506592,-3.3416748046875,-8.36181640625,13.4429931640625
0.0737499,8.78193187713623,-4.20421838760376,1.7118542194366455,-2.899169921875,-8.453369140625,13.1988525390625
0.0762499,8.78193187713623,-4.20421838760376,1.7118542194366455,-2.532958984375,-8.392333984375,13.12255859375
0.0787499,8.801085472106934,-4.180276393890381,1.7118542194366455,-2.227783203125,-8.11767578125,12.8326416015625
0.0812499,8.83699893951416,-4.141968727111816,1.7166426181793213,-2.1514892578125,-7.843017578125,12.451171875
0.0837499,8.892065048217773,-4.101267337799072,1.7166426181793213,-2.105712890625,-7.3699951171875,12.4969482421875
0.0862499,8.954314231872559,-4.065354347229004,1.7166426181793213,-2.38037109375,-7.049560546875,11.932373046875
0.0887499,9.009381294250488,-4.039018154144287,1.7094600200653076,-2.593994140625,-6.5460205078125,11.71875
0.0912499,9.050082206726074,-4.027047157287598,1.7046716213226318,-2.7923583984375,-6.2713623046875,11.65771484375
0.0937499,9.071630477905273,-4.031835556030273,1.7094600200653076,-2.99072265625,-5.6610107421875,11.077880859375
0.0962499,9.066842079162598,-4.046200752258301,1.7166426181793213,-3.204345703125,-5.37109375,10.6964111328125
0.0987499,9.047688484191895,-4.067748546600342,1.7286136150360107,-3.0517578125,-5.1116943359375,10.2996826171875
0.1012499,9.02135181427002,-4.089296340942383,1.742978811264038,-3.2196044921875,-4.791259765625,9.8724365234375
0.1037499,8.987833023071289,-4.0964789390563965,1.7549498081207275,-3.0975341796875,-4.39453125,9.429931640625
0.1062499,8.968679428100586,-4.091690540313721,1.766920804977417,-2.960205078125,-4.1046142578125,8.941650390625
0.1087499,8.951920509338379,-4.07014274597168,1.7836803197860718,-3.2196044921875,-3.96728515625,8.60595703125
0.1112499,8.951920509338379,-4.046200752258301,1.7980455160140991,-3.5400390625,-3.753662109375,7.9803466796875
0.1137499,8.968679428100586,-4.036623954772949,1.821987509727478,-3.5247802734375,-3.5247802734375,7.568359375
0.1162499,8.992621421813965,-4.048594951629639,1.843535304069519,-3.753662109375,-3.4637451171875,7.1563720703125
0.1187499,9.01895809173584,-4.086902141571045,1.86508309841156,-3.7841796875,-3.3111572265625,6.8511962890625
0.1212499,9.040505409240723,-4.137180328369141,1.8818424940109253,-3.753662109375,-2.7618408203125,6.500244140625
0.1237499,9.057265281677246,-4.189853191375732,1.886630892753601,-3.72314453125,-2.777099609375,6.3323974609375
0.1262499,9.062053680419922,-4.242525577545166,1.8770540952682495,-3.692626953125,-2.6702880859375,6.1798095703125
0.1287499,9.062053680419922,-4.290409564971924,1.8483237028121948,-3.5247802734375,-2.288818359375,5.9051513671875
0.1312499,9.045293807983398,-4.326322555541992,1.8100165128707886,-3.4332275390625,-2.227783203125,5.767822265625
0.1337499,9.028534889221191,-4.357447147369385,1.764526605606079,-3.326416015625,-2.2735595703125,5.4779052734375
0.1362499,9.011775016784668,-4.381389141082764,1.6927006244659424,-3.0364990234375,-2.3651123046875,5.2642822265625
0.1387499,9.01895809173584,-4.381389141082764,1.6711528301239014,-2.8228759765625,-2.3193359375,5.126953125
0.1412499,9.038111686706543,-4.381389141082764,1.6663644313812256,-2.349853515625,-2.4871826171875,4.7760009765625
0.1437499,9.05247688293457,-4.381389141082764,1.6615760326385498,-2.197265625,-2.7008056640625,4.608154296875
0.1462499,9.074024200439453,-4.3861775398254395,1.6735470294952393,-1.8310546875,-2.7008056640625,4.6234130859375
0.1487499,9.093177795410156,-4.390965938568115,1.6903064250946045,-1.190185546875,-2.7923583984375,4.45556640625
0.1512499,9.121908187866211,-4.405331134796143,1.7190368175506592,-0.5950927734375,-3.0059814453125,4.150390625
0.1537499,9.153033256530762,-4.4077253341674805,1.7549498081207275,-0.152587890625,-2.9754638671875,4.119873046875
0.1562499,9.186552047729492,-4.410119533538818,1.7812861204147339,0.3814697265625,-3.0059814453125,3.8299560546875
0.1587499,9.215282440185547,-4.410119533538818,1.800439715385437,0.9002685546875,-3.082275390625,3.692626953125
0.1612499,9.23682975769043,-4.405331134796143,1.802833914756775,1.64794921875,-3.2196044921875,3.60107421875
0.1637499,9.251194953918457,-4.405331134796143,1.7884687185287476,2.01416015625,-3.5400390625,3.5858154296875
0.1662499,9.253589630126953,-4.402936935424805,1.7741034030914307,2.4261474609375,-3.8299560546875,3.5400390625
0.1687499,9.255983352661133,-4.4077253341674805,1.7501614093780518,2.9754638671875,-3.9825439453125,3.5858154296875
0.1712499,9.258378028869629,-4.410119533538818,1.7310078144073486,3.1280517578125,-4.2877197265625,3.60107421875
0.1737499,9.265560150146484,-4.417302131652832,1.7166426181793213,3.47900390625,-4.3792724609375,3.90625
0.17624990000000001,9.272743225097656,-4.417302131652832,1.6974890232086182,3.8909912109375,-4.5623779296875,4.1046142578125
0.1787499,9.284713745117188,-4.393360137939453,1.6759412288665771,4.302978515625,-4.9591064453125,4.4097900390625
0.1812499,9.289502143859863,-4.357447147369385,1.644816517829895,4.119873046875,-5.0048828125,4.7454833984375
0.1837499,9.299078941345215,-4.302380561828613,1.601720929145813,3.9520263671875,-5.401611328125,4.730224609375
0.1862499,9.296685218811035,-4.2329487800598145,1.558625340461731,4.1656494140625,-5.8441162109375,4.9896240234375
0.1887499,9.294290542602539,-4.163516521453857,1.5107412338256836,3.8909912109375,-6.2255859375,5.2490234375
0.1912499,9.294290542602539,-4.091690540313721,1.4676456451416016,3.5247802734375,-6.8359375,5.4779052734375
0.1937499,9.296685218811035,-4.017470359802246,1.4317326545715332,3.0059814453125,-7.4005126953125,5.401611328125
0.1962499,9.311050415039062,-3.950432777404785,1.403002142906189,2.1209716796875,-7.781982421875,5.4473876953125
0.1987499,9.332598686218262,-3.88818359375,1.37906014919281,1.2969970703125,-8.4075927734375,5.4473876953125
0.2012499,9.35654067993164,-3.8379054069519043,1.357512354850769,0.42724609375,-8.85009765625,5.5999755859375
0.2037499,9.373299598693848,-3.799597978591919,1.3431471586227417,0,-9.3536376953125,5.55419921875
0.2062499,9.387664794921875,-3.7636849880218506,1.3335703611373901,-0.579833984375,-9.5062255859375,5.31005859375
0.20874990000000002,9.387664794921875,-3.734954595565796,1.3335703611373901,-1.312255859375,-9.8876953125,5.06591796875
0.2112499,9.399636268615723,-3.691859006881714,1.3431471586227417,-2.0599365234375,-10.4522705078125,4.7149658203125
0.2137499,9.409213066101074,-3.643975019454956,1.359906554222107,-3.0364990234375,-11.0321044921875,4.6234130859375
0.2162499,9.425971984863281,-3.5913026332855225,1.3766659498214722,-4.33349609375,-11.1083984375,3.96728515625
0.2187499,9.445125579833984,-3.5482068061828613,1.3982137441635132,-5.218505859375,-11.2762451171875,3.570556640625
0.2212499,9.464279174804688,-3.5194764137268066,1.414973258972168,-6.1798095703125,-11.90185546875,3.1585693359375
0.2237499,9.490615844726562,-3.507505416870117,1.4293384552001953,-7.14111328125,-12.2222900390625,2.6702880859375
0.2262499,9.521739959716797,-3.5218706130981445,1.4413094520568848,-7.9803466796875,-12.7105712890625,2.227783203125
0.2287499,9.550470352172852,-3.5458126068115234,1.4508862495422363,-8.7432861328125,-13.2598876953125,1.89208984375
0.2312499,9.576807022094727,-3.5865142345428467,1.4628572463989258,-9.8419189453125,-13.4429931640625,1.5411376953125
0.2337499,9.586383819580078,-3.622427225112915,1.4724340438842773,-10.833740234375,-13.61083984375,1.007080078125
0.2362499,9.593565940856934,-3.665522813796997,1.4867992401123047,-11.6119384765625,-13.824462890625,0.42724609375
0.23874990000000001,9.583989143371582,-3.7014358043670654,1.501164436340332,-12.7105712890625,-14.251708984375,0.3509521484375
0.2412499,9.567230224609375,-3.737348794937134,1.5155296325683594,-13.275146484375,-14.434814453125,0.06103515625
0.2437499,9.543288230895996,-3.773261785507202,1.5298948287963867,-14.1448974609375,-14.4500732421875,-0.1373291015625
0.2462499,9.514557838439941,-3.8067808151245117,1.534683346748352,-15.0299072265625,-14.801025390625,-0.5340576171875
0.2487499,9.488221168518066,-3.8307228088378906,1.534683346748352,-15.31982421875,-14.892578125,-0.6256103515625
0.2512499,9.457097053527832,-3.8498764038085938,1.5322890281677246,-16.0980224609375,-14.923095703125,-0.67138671875
0.25374990000000003,9.435548782348633,-3.864241600036621,1.5275006294250488,-16.8914794921875,-15.07568359375,-1.28173828125
0.25624990000000003,9.41400146484375,-3.8762125968933105,1.525106430053711,-17.39501953125,-14.9993896484375,-1.617431640625
0.25874990000000003,9.394847869873047,-3.890577793121338,1.5275006294250488,-17.6849365234375,-14.9688720703125,-1.9989013671875
0.26124990000000003,9.375694274902344,-3.912125587463379,1.522712230682373,-18.2037353515625,-15.167236328125,-2.227783203125
0.26374990000000004,9.35654067993164,-3.936067581176758,1.5203180313110352,-18.463134765625,-15.5029296875,-2.471923828125
0.26624990000000004,9.332598686218262,-3.9647979736328125,1.5179238319396973,-19.012451171875,-15.5029296875,-3.0517578125
0.26874990000000004,9.308655738830566,-3.9911341667175293,1.522712230682373,-19.10400390625,-15.3961181640625,-3.387451171875
0.27124990000000004,9.287108421325684,-4.015076160430908,1.5275006294250488,-19.1192626953125,-15.56396484375,-3.7994384765625
0.27374990000000005,9.26795482635498,-4.036623954772949,1.5418659448623657,-19.2108154296875,-15.869140625,-4.1656494140625
0.27624990000000005,9.253589630126953,-4.055777549743652,1.5466543436050415,-19.2718505859375,-15.93017578125,-4.6844482421875
0.27874990000000005,9.239224433898926,-4.0749311447143555,1.5538369417190552,-19.10400390625,-16.1285400390625,-4.974365234375
0.28124990000000005,9.222464561462402,-4.098873138427734,1.5538369417190552,-18.9666748046875,-16.204833984375,-5.31005859375
0.28374990000000005,9.20091724395752,-4.127603530883789,1.5442601442337036,-19.22607421875,-16.0980224609375,-5.67626953125
0.28624990000000006,9.174580574035645,-4.165910720825195,1.53707754611969,-18.85986328125,-16.2506103515625,-5.9814453125
0.28874990000000006,9.14345645904541,-4.2090067863464355,1.5131354331970215,-18.6614990234375,-16.4337158203125,-6.3018798828125
0.2912499,9.11233139038086,-4.240131378173828,1.4939818382263184,-18.280029296875,-16.448974609375,-6.439208984375
0.2937499,9.071630477905273,-4.2544965744018555,1.460463047027588,-17.6849365234375,-16.387939453125,-6.4849853515625
0.2962499,9.038111686706543,-4.247313976287842,1.434126853942871,-17.39501953125,-16.4337158203125,-6.988525390625
0.2987499,9.011775016784668,-4.220977783203125,1.4077905416488647,-17.0135498046875,-16.3421630859375,-7.2021484375
0.3012499,8.995016098022461,-4.1874589920043945,1.3838485479354858,-16.845703125,-16.387939453125,-7.2784423828125
0.3037499,8.990227699279785,-4.156333923339844,1.357512354850769,-16.6473388671875,-16.4642333984375,-7.5836181640625
0.3062499,8.992621421813965,-4.134786128997803,1.3335703611373901,-16.2506103515625,-16.41845703125,-7.9193115234375
0.3087499,9.002198219299316,-4.127603530883789,1.3048399686813354,-15.716552734375,-16.3116455078125,-8.1024169921875
0.3112499,9.011775016784668,-4.125209331512451,1.2880805730819702,-15.0299072265625,-16.571044921875,-8.1787109375
0.3137499,9.02135181427002,-4.127603530883789,1.2713210582733154,-14.678955078125,-16.7083740234375,-8.30078125
0.31624990000000003,9.028534889221191,-4.134786128997803,1.2641384601593018,-14.0838623046875,-16.632080078125,-8.60595703125
0.31874990000000003,9.030928611755371,-4.137180328369141,1.256955862045288,-13.671875,-16.6015625,-8.7127685546875
0.32124990000000003,9.028534889221191,-4.141968727111816,1.2641384601593018,-13.0615234375,-16.54052734375,-8.85009765625
0.32374990000000003,9.026140213012695,-4.134786128997803,1.2761094570159912,-12.3138427734375,-16.6778564453125,-8.6517333984375
0.32624990000000004,9.033323287963867,-4.127603530883789,1.290474772453308,-12.0697021484375,-16.6015625,-8.72802734375
0.32874990000000004,9.045293807983398,-4.110844135284424,1.3000515699386597,-11.71875,-16.6168212890625,-8.941650390625
0.33124990000000004,9.062053680419922,-4.089296340942383,1.3120225667953491,-11.16943359375,-16.4642333984375,-8.8348388671875
0.33374990000000004,9.078812599182129,-4.07014274597168,1.3192051649093628,-10.8642578125,-16.2506103515625,-8.8653564453125
0.33624990000000005,9.083600997924805,-4.048594951629639,1.3311761617660522,-10.4217529296875,-16.1895751953125,-8.8348388671875
0.33874990000000005,9.081207275390625,-4.034229755401611,1.338358759880066,-9.857177734375,-16.0980224609375,-8.85009765625
0.34124990000000005,9.071630477905273,-4.022258758544922,1.3479355573654175,-9.5367431640625,-16.0675048828125,-8.7127685546875
0.34374990000000005,9.040505409240723,-4.01268196105957,1.357512354850769,-8.5296630859375,-15.9912109375,-8.4991455078125
0.34624990000000005,9.028534889221191,-4.01268196105957,1.3551181554794312,-7.9345703125,-15.93017578125,-8.30078125
0.34874990000000006,9.02135181427002,-4.01268196105957,1.3503297567367554,-7.598876953125,-15.777587890625,-8.2244873046875
0.35124990000000006,9.011775016784668,-4.01268196105957,1.3287819623947144,-7.2021484375,-15.4876708984375,-8.23974609375
0.3537499,9.004592895507812,-4.010287761688232,1.3096283674240112,-6.8359375,-15.6402587890625,-7.9345703125
0.3562499,8.99740982055664,-4.0078935623168945,1.278503656387329,-6.591796875,-15.380859375,-7.8887939453125
0.3587499,8.98543930053711,-4.000710964202881,1.2521674633026123,-6.1187744140625,-15.2587890625,-7.7972412109375
0.3612499,8.975862503051758,-3.9863457679748535,1.2234370708465576,-5.6915283203125,-15.4876708984375,-7.5836181640625
0.3637499,8.959102630615234,-3.9671921730041504,1.2018892765045166,-5.096435546875,-15.2740478515625,-7.3089599609375
0.3662499,8.942343711853027,-3.936067581176758,1.1803414821624756,-4.8828125,-15.13671875,-7.3394775390625
0.3687499,8.920795440673828,-3.9025487899780273,1.1635819673538208,-4.6539306640625,-14.7552490234375,-7.3089599609375
0.3712499,8.9064302444458,-3.861847400665283,1.1468225717544556,-4.364013671875,-14.83154296875,-7.232666015625
0.3737499,8.899248123168945,-3.825934410095215,1.1324573755264282,-4.0283203125,-15.0909423828125,-6.89697265625
0.3762499,8.892065048217773,-3.7924153804779053,1.1228805780410767,-3.6773681640625,-15.106201171875,-6.8206787109375
0.37874990000000003,8.892065048217773,-3.7636849880218506,1.113303780555725,-3.41796875,-14.8773193359375,-6.7291259765625
0.38124990000000003,8.892065048217773,-3.7445313930511475,1.1085153818130493,-3.41796875,-14.739990234375,-6.622314453125
0.38374990000000003,8.889671325683594,-3.7277719974517822,1.1037269830703735,-3.204345703125,-14.7705078125,-6.6680908203125
0.38624990000000003,8.884882926940918,-3.7229835987091064,1.0989385843276978,-2.9144287109375,-14.6636962890625,-6.4239501953125
0.38874990000000004,8.87291145324707,-3.7253777980804443,1.0893617868423462,-2.655029296875,-14.46533203125,-6.2713623046875
0.39124990000000004,8.858546257019043,-3.732560396194458,1.0821791887283325,-2.4261474609375,-14.2974853515625,-6.16455078125
0.39374990000000004,8.834604263305664,-3.7421371936798096,1.070208191871643,-2.2735595703125,-14.5111083984375,-5.8135986328125
0.39624990000000004,8.813055992126465,-3.7493197917938232,1.0582371950149536,-1.9989013671875,-14.1754150390625,-5.6915283203125
0.39874990000000005,8.793902397155762,-3.7469255924224854,1.039083480834961,-1.7242431640625,-14.2822265625,-5.31005859375
0.40124990000000005,8.78193187713623,-3.7397429943084717,1.0199298858642578,-1.5106201171875,-14.2974853515625,-5.0506591796875
0.40374990000000005,8.769960403442383,-3.7229835987091064,0.9959878921508789,-1.4190673828125,-14.068603515625,-4.94384765625
0.40624990000000005,8.765172004699707,-3.6966474056243896,0.9768342971801758,-1.2664794921875,-13.73291015625,-4.669189453125
0.40874990000000005,8.762778282165527,-3.670311212539673,0.9576807022094727,-1.1138916015625,-13.763427734375,-4.638671875
0.41124990000000006,8.757989883422852,-3.6320040225982666,0.9409212470054626,-1.0986328125,-13.7939453125,-4.364013671875
0.41374990000000006,8.767566680908203,-3.5960910320281982,0.9241618514060974,-1.0223388671875,-13.48876953125,-4.1961669921875
0.41624990000000006,8.777143478393555,-3.56017804145813,0.9050082564353943,-1.3580322265625,-13.5498046875,-4.058837890625
0.4187499,8.789113998413086,-3.531447410583496,0.8882488012313843,-1.15966796875,-13.6260986328125,-3.570556640625
0.4212499,8.798690795898438,-3.509899616241455,0.8786720037460327,-1.068115234375,-13.458251953125,-3.570556640625
0.4237499,8.803479194641113,-3.4955344200134277,0.8690952062606812,-1.2969970703125,-13.580322265625,-3.1585693359375
0.4262499,8.808267593383789,-3.49314022064209,0.8643068075180054,-1.068115234375,-13.3056640625,-3.0670166015625
0.4287499,8.810662269592285,-3.4955344200134277,0.8547300100326538,-0.91552734375,-13.336181640625,-3.143310546875
0.4312499,8.813055992126465,-3.4955344200134277,0.8475474119186401,-0.8697509765625,-13.12255859375,-2.777099609375
0.4337499,8.813055992126465,-3.4979286193847656,0.8355764150619507,-0.9613037109375,-13.0767822265625,-2.593994140625
0.4362499,8.808267593383789,-3.485957622528076,0.8212111592292786,-0.9002685546875,-12.969970703125,-2.4566650390625
0.4387499,8.801085472106934,-3.471592426300049,0.8068459630012512,-1.1138916015625,-12.8936767578125,-2.38037109375
0.44124990000000003,8.803479194641113,-3.4572272300720215,0.7852981686592102,-1.1749267578125,-12.7410888671875,-2.0904541015625
0.44374990000000003,8.810662269592285,-3.44765043258667,0.7733271718025208,-1.2969970703125,-12.420654296875,-1.89208984375
0.44624990000000003,8.832210540771484,-3.445256233215332,0.7661445140838623,-1.4190673828125,-12.4053955078125,-1.8768310546875
0.44874990000000003,8.858546257019043,-3.44765043258667,0.7637503147125244,-1.46484375,-12.26806640625,-1.40380859375
0.45124990000000004,8.884882926940918,-3.44765043258667,0.7613561153411865,-1.64794921875,-12.115478515625,-1.190185546875
0.45374990000000004,8.9064302444458,-3.4404678344726562,0.7565677165985107,-1.9683837890625,-11.932373046875,-0.8544921875
0.45624990000000004,8.923190116882324,-3.4308910369873047,0.7422025203704834,-2.4871826171875,-11.5203857421875,-0.4730224609375
0.45874990000000004,8.93037223815918,-3.423708438873291,0.7230489253997803,-2.7313232421875,-11.4288330078125,-0.1678466796875
0.46124990000000005,8.939949035644531,-3.423708438873291,0.6991068720817566,-2.9296875,-11.077880859375,0.18310546875
0.46374990000000005,8.942343711853027,-3.426102638244629,0.6727706789970398,-3.1585693359375,-10.8184814453125,0.4119873046875
0.46624990000000005,8.947132110595703,-3.4308910369873047,0.6560112833976746,-3.387451171875,-10.6964111328125,0.640869140625
0.46874990000000005,8.947132110595703,-3.4332852363586426,0.6416460275650024,-3.692626953125,-10.498046875,0.946044921875
0.47124990000000005,8.942343711853027,-3.426102638244629,0.6392518281936646,-4.150390625,-10.3302001953125,1.0833740234375
0.47374990000000006,8.949525833129883,-3.423708438873291,0.6368576288223267,-4.0283203125,-10.2996826171875,1.3427734375
0.47624990000000006,8.949525833129883,-3.428496837615967,0.6416460275650024,-4.2724609375,-10.0250244140625,1.46484375
0.47874990000000006,8.951920509338379,-3.4332852363586426,0.6416460275650024,-4.45556640625,-9.9334716796875,1.7242431640625
0.4812499,8.956708908081055,-3.445256233215332,0.6488286852836609,-4.486083984375,-9.8419189453125,1.8157958984375
0.4837499,8.96389102935791,-3.4572272300720215,0.6512228846549988,-4.638671875,-9.82666015625,2.0294189453125
0.4862499,8.968679428100586,-3.469198226928711,0.6536170840263367,-4.6844482421875,-9.4451904296875,2.1514892578125
0.4887499,8.987833023071289,-3.490746021270752,0.646434485912323,-4.7760009765625,-9.1705322265625,2.227783203125
0.4912499,9.004592895507812,-3.514688014984131,0.6416460275650024,-4.6539306640625,-9.124755859375,2.105712890625
0.4937499,9.023746490478516,-3.550601005554199,0.6248866319656372,-4.6234130859375,-8.7738037109375,2.2125244140625
0.4962499,9.038111686706543,-3.5865142345428467,0.6224924325942993,-4.5013427734375,-8.60595703125,2.166748046875
0.4987499,9.042900085449219,-3.6296098232269287,0.6129156351089478,-4.3182373046875,-8.4228515625,2.166748046875
0.5012499,9.030928611755371,-3.663128614425659,0.6153098344802856,-4.0740966796875,-8.2855224609375,2.410888671875
0.5037499000000001,9.016563415527344,-3.7038300037384033,0.6224924325942993,-3.84521484375,-8.331298828125,2.5787353515625
0.5062499,8.999804496765137,-3.7445313930511475,0.6320692300796509,-3.6163330078125,-8.1634521484375,2.685546875
0.5087499000000001,8.983044624328613,-3.7876269817352295,0.646434485912323,-3.326416015625,-8.1634521484375,2.8228759765625
0.5112499,8.968679428100586,-3.840299606323242,0.6536170840263367,-3.0364990234375,-8.1024169921875,2.9296875
0.5137499,8.956708908081055,-3.88818359375,0.6560112833976746,-2.6092529296875,-7.7972412109375,3.082275390625
0.5162499,8.949525833129883,-3.931279182434082,0.646434485912323,-1.8768310546875,-7.6751708984375,3.2501220703125
0.5187499,8.947132110595703,-3.957615375518799,0.6272808313369751,-1.4801025390625,-7.6751708984375,3.631591796875
0.5212499,8.947132110595703,-3.9671921730041504,0.6033388376235962,-1.129150390625,-7.75146484375,3.90625
0.5237499,8.949525833129883,-3.9600095748901367,0.5841852426528931,-1.0223388671875,-7.7972412109375,3.8299560546875
0.5262499,8.954314231872559,-3.9480385780334473,0.5650315880775452,-0.762939453125,-7.7972412109375,4.241943359375
0.5287499,8.96389102935791,-3.9480385780334473,0.5554547905921936,-0.3814697265625,-7.843017578125,4.364013671875
0.5312499,8.978256225585938,-3.955221176147461,0.5554547905921936,0.0152587890625,-7.75146484375,4.3487548828125
0.5337499,8.992621421813965,-3.97916316986084,0.5626373887062073,0.213623046875,-7.6751708984375,4.5928955078125
0.5362499000000001,9.004592895507812,-4.0078935623168945,0.5817909836769104,0.885009765625,-8.026123046875,4.7454833984375
0.5387499,9.016563415527344,-4.039018154144287,0.6033388376235962,1.1138916015625,-7.75146484375,4.791259765625
0.5412499000000001,9.023746490478516,-4.065354347229004,0.6248866319656372,1.4495849609375,-7.62939453125,4.9591064453125
0.5437499,9.033323287963867,-4.079719543457031,0.6368576288223267,1.6632080078125,-7.843017578125,4.9896240234375
0.5462499000000001,9.040505409240723,-4.079719543457031,0.6440402865409851,1.9683837890625,-7.5225830078125,5.2490234375
0.5487499,9.045293807983398,-4.072536945343018,0.6392518281936646,2.105712890625,-7.5531005859375,5.218505859375
0.5512499000000001,9.050082206726074,-4.060565948486328,0.629675030708313,2.25830078125,-7.7056884765625,5.37109375
0.5537499,9.066842079162598,-4.039018154144287,0.6105214357376099,2.3651123046875,-7.50732421875,5.4931640625
0.5562499000000001,9.081207275390625,-4.0294413566589355,0.5985504388809204,2.0294189453125,-7.537841796875,5.6304931640625
0.5587499,9.093177795410156,-4.01268196105957,0.5889736413955688,2.166748046875,-7.4920654296875,5.7373046875
0.5612499000000001,9.105149269104004,-4.000710964202881,0.5746083855628967,1.7852783203125,-7.110595703125,5.645751953125
0.5637499,9.117119789123535,-3.9863457679748535,0.5554547905921936,1.28173828125,-7.0343017578125,5.5389404296875
0.5662499000000001,9.124302864074707,-3.976768970489502,0.5363011956214905,0.8392333984375,-6.500244140625,5.43212890625
0.5687499,9.133879661560059,-3.9647979736328125,0.5123591423034668,0.6103515625,-6.7138671875,5.7220458984375
0.5712499000000001,9.138668060302734,-3.9600095748901367,0.49320554733276367,0.18310546875,-6.5155029296875,5.5389404296875
0.5737499,9.14345645904541,-3.952826976776123,0.47884035110473633,-0.30517578125,-6.134033203125,5.401611328125
0.5762499000000001,9.138668060302734,-3.950432777404785,0.4596867263317108,-0.8087158203125,-5.9814453125,5.340576171875
0.5787499,9.126696586608887,-3.955221176147461,0.44532153010368347,-1.312255859375,-5.950927734375,5.0506591796875
0.5812499,9.107542991638184,-3.9600095748901367,0.42856210470199585,-1.8768310546875,-5.6915283203125,4.730224609375
0.5837499,9.08838939666748,-3.9671921730041504,0.40940847992897034,-2.349853515625,-5.8135986328125,4.5928955078125
0.5862499,9.066842079162598,-3.976768970489502,0.3926490843296051,-2.8228759765625,-5.8135986328125,4.425048828125
0.5887499,9.057265281677246,-3.9815573692321777,0.3734954595565796,-3.509521484375,-5.4931640625,4.058837890625
0.5912499,9.045293807983398,-3.9863457679748535,0.35913026332855225,-3.631591796875,-5.4473876953125,3.90625
0.5937499,9.050082206726074,-3.993528366088867,0.3447650372982025,-4.33349609375,-5.4168701171875,3.5858154296875
0.5962499,9.050082206726074,-4.005499362945557,0.33518823981285095,-4.7607421875,-5.2490234375,2.9754638671875
0.5987499000000001,9.05487060546875,-4.027047157287598,0.3256114423274994,-5.2032470703125,-5.0506591796875,2.86865234375
0.6012499,9.05247688293457,-4.048594951629639,0.3208230137825012,-5.6304931640625,-4.82177734375,2.777099609375
0.6037499000000001,9.042900085449219,-4.067748546600342,0.31603461503982544,-6.011962890625,-4.9896240234375,2.3040771484375
0.6062499,9.028534889221191,-4.089296340942383,0.31842881441116333,-6.6680908203125,-4.7760009765625,1.9073486328125
0.6087499000000001,9.006986618041992,-4.10366153717041,0.31842881441116333,-7.110595703125,-4.4403076171875,1.5716552734375
0.6112499,8.990227699279785,-4.120420932769775,0.3232172429561615,-7.598876953125,-4.6234130859375,1.4190673828125
0.6137499000000001,8.978256225585938,-4.141968727111816,0.33039984107017517,-8.0108642578125,-4.6234130859375,1.2664794921875
0.6162499,8.973467826843262,-4.165910720825195,0.33997663855552673,-8.4381103515625,-4.3792724609375,1.1138916015625
0.6187499000000001,8.971074104309082,-4.194641590118408,0.35673606395721436,-8.575439453125,-4.21142578125,0.7781982421875
0.6212499,8.971074104309082,-4.223371982574463,0.3687070608139038,-8.544921875,-4.3792724609375,0.6256103515625
0.6237499000000001,8.975862503051758,-4.242525577545166,0.38067805767059326,-8.7432861328125,-4.241943359375,0.457763671875
0.6262499,8.975862503051758,-4.256890773773193,0.38546648621559143,-8.819580078125,-4.21142578125,0.335693359375
0.6287499000000001,8.978256225585938,-4.261679172515869,0.38307225704193115,-8.9569091796875,-3.936767578125,0.1373291015625
0.6312499,8.978256225585938,-4.264073371887207,0.38546648621559143,-8.9263916015625,-4.1961669921875,0.152587890625
0.6337499000000001,8.975862503051758,-4.264073371887207,0.37828385829925537,-9.2315673828125,-3.9215087890625,0.0762939453125
0.6362499,8.966285705566406,-4.261679172515869,0.3734954595565796,-9.1094970703125,-3.84521484375,0.1373291015625
0.6387499000000001,8.959102630615234,-4.261679172515869,0.35913026332855225,-9.307861328125,-4.0435791015625,0.213623046875
0.6412499,8.944737434387207,-4.273650169372559,0.33518823981285095,-9.429931640625,-3.997802734375,0.3662109375
0.6437499,8.93037223815918,-4.290409564971924,0.30885201692581177,-9.3994140625,-3.9520263671875,0.3662109375
0.6462499,8.913613319396973,-4.316745758056641,0.2753331959247589,-9.3994140625,-4.0740966796875,0.4425048828125
0.6487499,8.89685344696045,-4.335899353027344,0.24899697303771973,-9.1552734375,-4.3792724609375,0.7476806640625
0.6512499,8.875306129455566,-4.350264549255371,0.22505496442317963,-9.002685546875,-4.364013671875,1.129150390625
0.6537499,8.858546257019043,-4.352658748626709,0.20350714027881622,-9.185791015625,-4.4403076171875,1.251220703125
0.6562499,8.844181060791016,-4.3406877517700195,0.17956513166427612,-9.1705322265625,-4.608154296875,1.4495849609375
0.6587499,8.83699893951416,-4.323928356170654,0.1604115068912506,-9.063720703125,-4.8065185546875,1.800537109375
0.6612499000000001,8.83939266204834,-4.292803764343262,0.1388636976480484,-9.246826171875,-4.669189453125,1.8463134765625
0.6637499,8.846575736999512,-4.24970817565918,0.11971008777618408,-9.5367431640625,-4.730224609375,2.044677734375
0.6662499000000001,8.860940933227539,-4.20421838760376,0.10773907601833344,-9.5367431640625,-4.8370361328125,2.2430419921875
0.6687499,8.87291145324707,-4.146757125854492,0.09576806426048279,-9.8114013671875,-5.0506591796875,2.3956298828125
0.6712499000000001,8.889671325683594,-4.101267337799072,0.0933738648891449,-10.0555419921875,-5.157470703125,2.3956298828125
0.6737499,8.904036521911621,-4.060565948486328,0.090979665517807,-10.711669921875,-5.1727294921875,2.5177001953125
0.6762499000000001,8.913613319396973,-4.034229755401611,0.09576806426048279,-10.8795166015625,-5.1727294921875,2.3651123046875
0.6787499,8.918401718139648,-4.022258758544922,0.09816227108240128,-10.9710693359375,-5.2337646484375,2.3651123046875
0.6812499000000001,8.918401718139648,-4.017470359802246,0.11013327538967133,-11.260986328125,-5.3558349609375,2.288818359375
0.6837499,8.911218643188477,-4.022258758544922,0.12449848651885986,-11.444091796875,-5.340576171875,2.227783203125
0.6862499000000001,8.9064302444458,-4.031835556030273,0.1412578970193863,-11.7950439453125,-5.2032470703125,2.2430419921875
0.6887499,8.899248123168945,-4.046200752258301,0.14844051003456116,-12.115478515625,-5.18798828125,2.4566650390625
0.6912499000000001,8.901641845703125,-4.060565948486328,0.15801730751991272,-12.481689453125,-5.1116943359375,2.5482177734375
0.6937499,8.904036521911621,-4.077325344085693,0.15801730751991272,-12.8326416015625,-5.279541015625,2.777099609375
0.6962499000000001,8.913613319396973,-4.089296340942383,0.15562310814857483,-13.214111328125,-5.1727294921875,2.9144287109375
0.6987499,8.923190116882324,-4.10366153717041,0.15322890877723694,-13.5345458984375,-5.096435546875,3.23486328125
0.7012499000000001,8.932766914367676,-4.1180267333984375,0.15562310814857483,-13.6871337890625,-4.913330078125,3.3111572265625
0.7037499,8.939949035644531,-4.129997730255127,0.1628057211637497,-13.9617919921875,-4.5318603515625,3.387451171875
0.7062499,8.942343711853027,-4.141968727111816,0.16998831927776337,-14.2059326171875,-4.7607421875,3.5552978515625
0.7087499,8.939949035644531,-4.14915132522583,0.181959331035614,-14.16015625,-4.7454833984375,3.6773681640625
0.7112499,8.932766914367676,-4.14915132522583,0.17956513166427612,-14.46533203125,-4.6234130859375,3.90625
0.7137499,8.916007041931152,-4.153939723968506,0.17238251864910126,-14.6331787109375,-4.425048828125,4.0435791015625
0.7162499,8.89445972442627,-4.158728122711182,0.15801730751991272,-14.5416259765625,-4.5166015625,4.2266845703125
0.7187499,8.865729331970215,-4.170699596405029,0.1388636976480484,-14.5721435546875,-4.57763671875,4.39453125
0.7212499,8.841787338256836,-4.19224739074707,0.12449848651885986,-14.2822265625,-4.638671875,4.4403076171875
0.7237499000000001,8.815450668334961,-4.220977783203125,0.11252748221158981,-14.3890380859375,-4.6539306640625,4.5928955078125
0.7262499,8.798690795898438,-4.2544965744018555,0.11013327538967133,-14.373779296875,-4.638671875,4.6844482421875
0.7287499000000001,8.78432559967041,-4.280832767486572,0.11252748221158981,-14.2669677734375,-4.8065185546875,4.852294921875
0.7312499,8.772355079650879,-4.299986362457275,0.11971008777618408,-14.2822265625,-5.1116943359375,5.126953125
0.7337499000000001,8.762778282165527,-4.311957359313965,0.11971008777618408,-14.251708984375,-5.18798828125,5.0811767578125
0.7362499,8.757989883422852,-4.3191399574279785,0.12449848651885986,-14.2059326171875,-5.035400390625,4.913330078125
0.7387499000000001,8.753201484680176,-4.331110954284668,0.11971008777618408,-14.0838623046875,-5.0201416015625,5.0811767578125
0.7412499,8.755595207214355,-4.335899353027344,0.1173158809542656,-14.09912109375,-4.9285888671875,5.4473876953125
0.7437499000000001,8.760383605957031,-4.343081951141357,0.1149216815829277,-13.9923095703125,-5.096435546875,5.340576171875
0.7462499,8.767566680908203,-4.3406877517700195,0.10295066982507706,-13.641357421875,-5.0811767578125,5.3863525390625
0.7487499000000001,8.777143478393555,-4.338293552398682,0.0933738648891449,-13.85498046875,-5.1116943359375,5.4168701171875
0.7512499,8.78193187713623,-4.333505153656006,0.08379705995321274,-13.8702392578125,-5.035400390625,5.43212890625
0.7537499000000001,8.791508674621582,-4.331110954284668,0.07661445438861847,-14.0228271484375,-5.035400390625,5.4931640625
0.7562499,8.791508674621582,-4.32871675491333,0.07422025501728058,-14.007568359375,-5.096435546875,5.4779052734375
0.7587499000000001,8.798690795898438,-4.331110954284668,0.06703764945268631,-13.9617919921875,-5.0811767578125,5.5389404296875
0.7612499,8.803479194641113,-4.335899353027344,0.05985504388809204,-14.129638671875,-4.913330078125,5.157470703125
0.7637499000000001,8.808267593383789,-4.331110954284668,0.05985504388809204,-13.9923095703125,-4.9896240234375,5.0048828125
0.7662499,8.80587387084961,-4.321534156799316,0.07182604819536209,-14.1143798828125,-4.9285888671875,4.8065185546875
0.7687499000000001,8.813055992126465,-4.307168960571289,0.08619125932455063,-14.434814453125,-4.7760009765625,4.8370361328125
0.7712499,8.81784439086914,-4.2951979637146,0.10055647045373917,-14.70947265625,-4.7454833984375,4.5013427734375
0.7737499,8.834604263305664,-4.288015365600586,0.11971008777618408,-14.7705078125,-4.638671875,4.2572021484375
0.7762499,8.856152534484863,-4.285621166229248,0.1364694982767105,-14.7857666015625,-4.2266845703125,3.90625
0.7787499,8.880094528198242,-4.288015365600586,0.15083470940589905,-15.1214599609375,-3.9520263671875,3.6468505859375
0.7812499,8.908824920654297,-4.292803764343262,0.15562310814857483,-15.3656005859375,-3.997802734375,3.692626953125
0.7837499,8.927978515625,-4.2975921630859375,0.1604115068912506,-15.380859375,-3.8299560546875,3.448486328125
0.7862499000000001,8.942343711853027,-4.304774761199951,0.1628057211637497,-15.5029296875,-3.5400390625,3.23486328125
0.7887499,8.947132110595703,-4.309563159942627,0.15801730751991272,-15.6707763671875,-3.2806396484375,3.0975341796875
0.7912499000000001,8.947132110595703,-4.311957359313965,0.15801730751991272,-15.716552734375,-3.082275390625,2.9754638671875
0.7937499,8.942343711853027,-4.304774761199951,0.14604631066322327,-15.8843994140625,-3.173828125,2.9296875
0.7962499000000001,8.947132110595703,-4.288015365600586,0.12928688526153564,-15.8538818359375,-2.9144287109375,2.62451171875
0.7987499,8.951920509338379,-4.264073371887207,0.11252748221158981,-16.11328125,-2.532958984375,2.410888671875
0.8012499000000001,8.959102630615234,-4.23773717880249,0.09576806426048279,-16.204833984375,-2.38037109375,2.3345947265625
0.8037499,8.966285705566406,-4.216189384460449,0.08858546614646912,-16.11328125,-2.2735595703125,2.0904541015625
0.8062499000000001,8.971074104309082,-4.20421838760376,0.08858546614646912,-16.2200927734375,-2.0751953125,1.9683837890625
0.8087499,8.968679428100586,-4.197035789489746,0.0933738648891449,-16.17431640625,-1.983642578125,1.8463134765625
0.8112499000000001,8.966285705566406,-4.197035789489746,0.09816227108240128,-16.021728515625,-1.89208984375,1.5106201171875
0.8137499,8.96149730682373,-4.194641590118408,0.11013327538967133,-15.7318115234375,-1.7852783203125,1.556396484375
0.8162499000000001,8.956708908081055,-4.1874589920043945,0.12210428714752197,-15.472412109375,-1.6632080078125,1.3580322265625
0.8187499,8.956708908081055,-4.175487995147705,0.13168109953403473,-15.3656005859375,-1.373291015625,1.2664794921875
0.8212499000000001,8.959102630615234,-4.158728122711182,0.1412578970193863,-15.1824951171875,-1.373291015625,1.007080078125
0.8237499,8.968679428100586,-4.141968727111816,0.14365209639072418,-15.13671875,-1.2969970703125,0.8087158203125
0.8262499000000001,8.973467826843262,-4.132391929626465,0.14365209639072418,-14.9993896484375,-1.0833740234375,0.7171630859375
0.8287499,8.980650901794434,-4.127603530883789,0.1412578970193863,-15.045166015625,-0.3814697265625,0.5340576171875
0.8312499000000001,8.980650901794434,-4.127603530883789,0.1364694982767105,-14.70947265625,-0.3204345703125,0.3814697265625
0.8337499,8.971074104309082,-4.129997730255127,0.1388636976480484,-14.251708984375,-0.4119873046875,0.3814697265625
0.8362499,8.966285705566406,-4.129997730255127,0.1412578970193863,-14.1143798828125,-0.396728515625,0.335693359375
0.8387499,8.96149730682373,-4.127603530883789,0.1412578970193863,-14.190673828125,-0.3662109375,0.3814697265625
0.8412499,8.968679428100586,-4.122815132141113,0.1412578970193863,-14.2364501953125,0.152587890625,0.3662109375
0.8437499,8.978256225585938,-4.1180267333984375,0.13407529890537262,-14.0838623046875,0.3204345703125,0.3509521484375
0.8462499,8.990227699279785,-4.10366153717041,0.12210428714752197,-14.007568359375,0.396728515625,0.5035400390625
0.8487499000000001,8.995016098022461,-4.0964789390563965,0.10773907601833344,-13.8397216796875,0.579833984375,0.7781982421875
0.8512499,8.992621421813965,-4.082113742828369,0.09816227108240128,-13.8397216796875,0.732421875,0.67138671875
0.8537499000000001,8.983044624328613,-4.067748546600342,0.0933738648891449,-13.916015625,0.701904296875,0.5950927734375
0.8562499,8.978256225585938,-4.0533833503723145,0.09576806426048279,-14.0228271484375,0.8392333984375,1.03759765625
0.8587499000000001,8.971074104309082,-4.031835556030273,0.090979665517807,-14.1448974609375,0.762939453125,1.0833740234375
0.8612499,8.975862503051758,-4.010287761688232,0.08619125932455063,-14.2974853515625,1.03759765625,1.0986328125
0.8637499000000001,8.98543930053711,-3.9839515686035156,0.07422025501728058,-14.5721435546875,1.28173828125,1.0833740234375
0.8662499,8.995016098022461,-3.9647979736328125,0.05746084079146385,-14.7857666015625,1.3885498046875,0.9918212890625
0.8687499000000001,9.004592895507812,-3.952826976776123,0.047884032130241394,-14.862060546875,1.5106201171875,1.03759765625
0.8712499,9.004592895507812,-3.9456443786621094,0.035913024097681046,-15.07568359375,1.8463134765625,0.9613037109375
0.8737499000000001,9.009381294250488,-3.9456443786621094,0.023942016065120697,-15.1519775390625,1.8310546875,0.7781982421875
0.8762499,9.006986618041992,-3.9480385780334473,0.009576806798577309,-15.2435302734375,1.861572265625,0.6561279296875
0.8787499000000001,9.006986618041992,-3.9480385780334473,-0.002394201699644327,-15.594482421875,2.288818359375,0.48828125
0.8812499,9.009381294250488,-3.950432777404785,-0.011971008032560349,-15.777587890625,2.38037109375,0.579833984375
0.8837499000000001,9.009381294250488,-3.952826976776123,-0.004788403399288654,-15.80810546875,2.5634765625,0.54931640625
0.8862499,9.009381294250488,-3.955221176147461,0.0071826050989329815,-16.05224609375,2.7923583984375,0.2899169921875
0.8887499000000001,9.011775016784668,-3.9647979736328125,0.033518824726343155,-16.082763671875,2.9296875,0.1678466796875
0.8912499,9.009381294250488,-3.976768970489502,0.06224924325942993,-16.2200927734375,3.021240234375,0.4425048828125
0.8937499000000001,9.011775016784668,-3.9887399673461914,0.08619125932455063,-16.1895751953125,3.265380859375,0.42724609375
0.8962499,9.011775016784668,-4.0078935623168945,0.10295066982507706,-16.2353515625,3.4637451171875,0.4119873046875
0.8987499,9.009381294250488,-4.022258758544922,0.11013327538967133,-16.29638671875,3.662109375,0.2593994140625
0.9012499,9.004592895507812,-4.039018154144287,0.10773907601833344,-16.387939453125,4.1046142578125,0.2899169921875
0.9037499,8.995016098022461,-4.046200752258301,0.10295066982507706,-16.3421630859375,4.2877197265625,0.4425048828125
0.9062499,8.980650901794434,-4.048594951629639,0.08858546614646912,-16.17431640625,4.21142578125,0.396728515625
0.9087499,8.971074104309082,-4.043806552886963,0.07661445438861847,-16.1590576171875,4.364013671875,0.396728515625
0.9112499000000001,8.959102630615234,-4.036623954772949,0.05746084079146385,-16.082763671875,4.486083984375,0.5035400390625
0.9137499,8.954314231872559,-4.031835556030273,0.0454898327589035,-16.11328125,4.7454833984375,0.6866455078125
0.9162499000000001,8.949525833129883,-4.034229755401611,0.033518824726343155,-15.8843994140625,4.82177734375,0.8087158203125
0.9187499,8.942343711853027,-4.048594951629639,0.023942016065120697,-15.655517578125,4.7607421875,0.8087158203125
0.9212499000000001,8.937555313110352,-4.060565948486328,0.021547814831137657,-15.594482421875,4.852294921875,0.885009765625
0.9237499,8.920795440673828,-4.072536945343018,0.016759412363171577,-15.2130126953125,4.8980712890625,0.9765625
0.9262499000000001,8.9064302444458,-4.079719543457031,0.016759412363171577,-14.8162841796875,4.9896240234375,1.220703125
0.9287499,8.882488250732422,-4.084507942199707,0.014365210197865963,-14.739990234375,4.7454833984375,1.40380859375
0.9312499000000001,8.851364135742188,-4.089296340942383,0.016759412363171577,-14.6484375,4.913330078125,1.7547607421875
0.9337499,8.822632789611816,-4.094084739685059,0.016759412363171577,-14.3890380859375,4.7454833984375,1.9378662109375
0.9362499000000001,8.789113998413086,-4.094084739685059,0.019153613597154617,-14.1448974609375,4.6234130859375,1.9989013671875
0.9387499,8.762778282165527,-4.082113742828369,0.011971008032560349,-13.946533203125,4.638671875,2.1820068359375
0.9412499000000001,8.743624687194824,-4.055777549743652,0.002394201699644327,-13.6566162109375,4.638671875,2.2735595703125
0.9437499,8.731653213500977,-4.019864559173584,-0.019153613597154617,-13.8702392578125,4.5318603515625,2.3956298828125
0.9462499000000001,8.734047889709473,-3.97916316986084,-0.040701430290937424,-13.9007568359375,4.5318603515625,2.7618408203125
0.9487499,8.738836288452148,-3.9384617805480957,-0.06703764945268631,-13.824462890625,4.638671875,2.7618408203125
0.9512499000000001,8.753201484680176,-3.907337188720703,-0.090979665517807,-13.9007568359375,4.4403076171875,2.716064453125
0.9537499,8.769960403442383,-3.8762125968933105,-0.10534487664699554,-13.9923095703125,4.2877197265625,2.8076171875
0.9562499000000001,8.793902397155762,-3.8546648025512695,-0.11252748221158981,-14.09912109375,4.39453125,2.99072265625
0.9587499,8.820239067077637,-3.8331170082092285,-0.10773907601833344,-14.2364501953125,4.4097900390625,3.0517578125
0.9612499,8.841787338256836,-3.8163576126098633,-0.09576806426048279,-14.4805908203125,4.33349609375,3.0670166015625
0.9637499,8.853757858276367,-3.8091750144958496,-0.07900865375995636,-14.6636962890625,4.3487548828125,3.0517578125
0.9662499,8.858546257019043,-3.8091750144958496,-0.06703764945268631,-14.83154296875,4.2266845703125,3.387451171875
0.9687499,8.856152534484863,-3.8139634132385254,-0.05267243832349777,-15.2740478515625,4.5166015625,3.84521484375
0.9712499,8.846575736999512,-3.840299606323242,-0.0454898327589035,-15.93017578125,4.730224609375,3.9215087890625
0.9737499000000001,8.83699893951416,-3.8546648025512695,-0.043095629662275314,-16.3421630859375,5.0048828125,4.1961669921875
0.9762499,8.827422142028809,-3.861847400665283,-0.035913024097681046,-16.845703125,5.4168701171875,4.425048828125
0.9787499000000001,8.820239067077637,-3.8594532012939453,-0.031124621629714966,-17.3492431640625,5.340576171875,4.547119140625
0.9812499,8.815450668334961,-3.8546648025512695,-0.026336219161748886,-17.51708984375,5.43212890625,4.8370361328125
0.9837499000000001,8.822632789611816,-3.84269380569458,-0.031124621629714966,-17.669677734375,5.6304931640625,5.096435546875
0.9862499,8.827422142028809,-3.8331170082092285,-0.035913024097681046,-18.0511474609375,5.706787109375,5.0201416015625
0.9887499000000001,8.827422142028809,-3.825934410095215,-0.0454898327589035,-18.402099609375,5.6610107421875,5.3558349609375
0.9912499,8.827422142028809,-3.823540210723877,-0.05506663769483566,-18.5089111328125,5.7220458984375,5.6610107421875
0.9937499000000001,8.822632789611816,-3.825934410095215,-0.05985504388809204,-18.9208984375,5.889892578125,5.7525634765625
0.9962499,8.820239067077637,-3.8355112075805664,-0.06464344263076782,-19.0582275390625,5.9967041015625,5.5389404296875
0.9987499000000001,8.822632789611816,-3.847482204437256,-0.05985504388809204,-19.256591796875,6.1187744140625,5.6915283203125
1.0012499,8.827422142028809,-3.869029998779297,-0.047884032130241394,-19.34814453125,5.9356689453125,5.8746337890625
1.0037498999999999,8.829815864562988,-3.890577793121338,-0.033518824726343155,-19.3328857421875,5.92041015625,6.134033203125
1.0062499,8.841787338256836,-3.914519786834717,-0.019153613597154617,-19.0582275390625,5.889892578125,6.3323974609375
1.0087499,8.848969459533691,-3.931279182434082,-0.004788403399288654,-18.9971923828125,6.011962890625,6.28662109375
1.0112499,8.856152534484863,-3.936067581176758,0.002394201699644327,-19.0277099609375,6.0577392578125,6.4544677734375
1.0137498999999999,8.868123054504395,-3.931279182434082,0.009576806798577309,-19.073486328125,5.6915283203125,6.5765380859375
1.0162499,8.880094528198242,-3.9264907836914062,0.0071826050989329815,-18.890380859375,5.4473876953125,6.561279296875
1.0187499,8.89685344696045,-3.9240965843200684,0.009576806798577309,-18.7835693359375,5.645751953125,6.683349609375
1.0212499,8.918401718139648,-3.936067581176758,0.011971008032560349,-18.5394287109375,5.5694580078125,6.8511962890625
1.0237498999999999,8.942343711853027,-3.955221176147461,0.019153613597154617,-18.2647705078125,5.4473876953125,6.9122314453125
1.0262498999999998,8.959102630615234,-3.9887399673461914,0.021547814831137657,-18.0206298828125,5.3558349609375,7.0343017578125
1.0287499,8.971074104309082,-4.022258758544922,0.026336219161748886,-17.730712890625,5.18798828125,7.26318359375
1.0312499,8.975862503051758,-4.050989151000977,0.021547814831137657,-17.5323486328125,5.157470703125,7.32421875
1.0337498999999999,8.975862503051758,-4.077325344085693,0.014365210197865963,-17.4102783203125,4.852294921875,7.5225830078125
1.0362498999999998,8.975862503051758,-4.0964789390563965,0.002394201699644327,-17.242431640625,4.974365234375,7.6904296875
1.0387499,8.975862503051758,-4.106055736541748,-0.009576806798577309,-17.181396484375,4.791259765625,8.0718994140625
1.0412499,8.975862503051758,-4.108449935913086,-0.023942016065120697,-17.08984375,4.7454833984375,8.1024169921875
1.0437499,8.980650901794434,-4.106055736541748,-0.033518824726343155,-17.0440673828125,4.7149658203125,8.2855224609375
1.0462498999999998,8.983044624328613,-4.094084739685059,-0.0454898327589035,-16.571044921875,4.33349609375,8.544921875
1.0487499,8.990227699279785,-4.082113742828369,-0.05027823522686958,-16.632080078125,4.364013671875,8.36181640625
1.0512499,8.99740982055664,-4.07014274597168,-0.05027823522686958,-16.5557861328125,4.08935546875,8.331298828125
1.0537499,9.002198219299316,-4.05817174911499,-0.043095629662275314,-16.448974609375,4.08935546875,8.3160400390625
1.0562498999999999,9.011775016784668,-4.055777549743652,-0.031124621629714966,-16.5863037109375,4.1961669921875,8.4075927734375
1.0587499,9.016563415527344,-4.041412353515625,-0.019153613597154617,-16.510009765625,4.08935546875,8.30078125
1.0612499,9.028534889221191,-4.0294413566589355,-0.0071826050989329815,-16.3726806640625,3.8604736328125,8.2550048828125
1.0637499,9.042900085449219,-4.0078935623168945,0,-16.4642333984375,3.8604736328125,8.0108642578125
1.0662498999999999,9.059659004211426,-3.9887399673461914,0,-16.7083740234375,3.6468505859375,7.965087890625
1.0687499,9.095572471618652,-3.9695863723754883,-0.002394201699644327,-16.5863037109375,3.5858154296875,7.720947265625
1.0712499,9.126696586608887,-3.955221176147461,-0.002394201699644327,-16.6778564453125,3.814697265625,7.6446533203125
1.0737499,9.160215377807617,-3.950432777404785,-0.0071826050989329815,-16.6778564453125,3.662109375,7.4920654296875
1.0762498999999999,9.184157371520996,-3.9432501792907715,-0.004788403399288654,-16.693115234375,3.5400390625,7.2784423828125
1.0787499,9.193734169006348,-3.955221176147461,0.004788403399288654,-16.693115234375,3.90625,6.89697265625
1.0812499,9.210494041442871,-3.971980571746826,0.009576806798577309,-16.571044921875,3.692626953125,6.7138671875
1.0837499,9.21288776397705,-3.993528366088867,0.019153613597154617,-16.5557861328125,3.814697265625,6.622314453125
1.0862498999999999,9.220070838928223,-4.017470359802246,0.023942016065120697,-16.4947509765625,3.84521484375,6.4697265625
1.0887499,9.215282440185547,-4.039018154144287,0.028730420395731926,-16.6778564453125,3.8604736328125,6.0577392578125
1.0912499,9.208099365234375,-4.0533833503723145,0.031124621629714966,-16.510009765625,3.9520263671875,5.767822265625
1.0937499,9.196128845214844,-4.07014274597168,0.043095629662275314,-16.4642333984375,3.8604736328125,5.5999755859375
1.0962498999999999,9.191340446472168,-4.084507942199707,0.05267243832349777,-16.4031982421875,3.8909912109375,5.4779052734375
1.0987498999999998,9.184157371520996,-4.101267337799072,0.06464344263076782,-16.3421630859375,3.8604736328125,5.5389404296875
1.1012499,9.191340446472168,-4.122815132141113,0.07422025501728058,-16.2811279296875,3.7078857421875,5.4168701171875
1.1037499,9.193734169006348,-4.144362926483154,0.07900865375995636,-16.1285400390625,3.7689208984375,5.2337646484375
1.1062499,9.210494041442871,-4.170699596405029,0.08379705995321274,-15.7012939453125,3.8909912109375,5.218505859375
1.1087498999999998,9.220070838928223,-4.19224739074707,0.08619125932455063,-15.1824951171875,3.753662109375,5.2337646484375
1.1112499,9.227252960205078,-4.20421838760376,0.08858546614646912,-15.106201171875,3.753662109375,5.126953125
1.1137499,9.239224433898926,-4.206612586975098,0.090979665517807,-14.923095703125,3.5552978515625,4.8675537109375
1.1162499,9.244012832641602,-4.2090067863464355,0.09576806426048279,-14.5721435546875,3.5400390625,5.0506591796875
1.1187498999999999,9.246406555175781,-4.20421838760376,0.0933738648891449,-14.0533447265625,3.509521484375,4.974365234375
1.1212499,9.255983352661133,-4.206612586975098,0.09816227108240128,-13.97705078125,3.60107421875,4.8370361328125
1.1237499,9.260771751403809,-4.197035789489746,0.0933738648891449,-13.36669921875,3.5552978515625,5.0506591796875
1.1262499,9.263166427612305,-4.182670593261719,0.08619125932455063,-13.0462646484375,3.753662109375,4.6234130859375
1.1287498999999999,9.255983352661133,-4.156333923339844,0.07422025501728058,-13.12255859375,3.8299560546875,4.39453125
1.1312499,9.23682975769043,-4.134786128997803,0.05027823522686958,-13.214111328125,3.4942626953125,4.33349609375
1.1337499,9.217676162719727,-4.1180267333984375,0.035913024097681046,-12.9852294921875,3.3111572265625,4.2572021484375
1.1362499,9.208099365234375,-4.1180267333984375,0.019153613597154617,-12.63427734375,3.41796875,3.9215087890625
1.1387498999999999,9.208099365234375,-4.125209331512451,0.009576806798577309,-12.2222900390625,3.570556640625,3.753662109375
1.1412499,9.227252960205078,-4.153939723968506,0.014365210197865963,-11.65771484375,3.35693359375,3.47900390625
1.1437499,9.241618156433105,-4.173093795776367,0.011971008032560349,-11.23046875,3.4637451171875,3.2196044921875
1.1462499,9.248801231384277,-4.194641590118408,0.026336219161748886,-10.8642578125,3.5247802734375,2.960205078125
1.1487498999999999,9.246406555175781,-4.201824188232422,0.040701430290937424,-10.711669921875,3.387451171875,2.8076171875
1.1512499,9.229647636413574,-4.213795185089111,0.06224924325942993,-10.6964111328125,3.143310546875,2.532958984375
1.1537499,9.210494041442871,-4.218583583831787,0.07422025501728058,-10.2081298828125,3.0517578125,2.5177001953125
1.1562499,9.184157371520996,-4.228160381317139,0.09576806426048279,-9.979248046875,3.2958984375,2.227783203125
1.1587498999999999,9.169792175292969,-4.230554580688477,0.10295066982507706,-9.765625,3.2196044921875,2.01416015625
1.1612498999999998,9.157821655273438,-4.228160381317139,0.1173158809542656,-9.613037109375,3.0364990234375,1.77001953125
1.1637499,9.160215377807617,-4.218583583831787,0.1173158809542656,-9.521484375,2.899169921875,1.5106201171875
1.1662499,9.17936897277832,-4.199429988861084,0.11013327538967133,-9.185791015625,3.23486328125,1.2054443359375
1.1687499,9.208099365234375,-4.180276393890381,0.08140286058187485,-8.5906982421875,3.204345703125,0.946044921875
1.1712498999999998,9.241618156433105,-4.1611223220825195,0.05506663769483566,-8.575439453125,3.021240234375,0.7476806640625
1.1737499,9.265560150146484,-4.144362926483154,0.026336219161748886,-8.6517333984375,3.3416748046875,0.640869140625
1.1762499,9.27034854888916,-4.137180328369141,0.009576806798577309,-8.4075927734375,3.265380859375,0.518798828125
1.1787499,9.217676162719727,-4.127603530883789,0.035913024097681046,-7.8582763671875,2.5482177734375,-0.0762939453125
1.1812498999999999,9.17697525024414,-4.1156325340271,0.07661445438861847,-7.904052734375,2.3193359375,-0.5035400390625
1.1837499,9.141061782836914,-4.101267337799072,0.13168109953403473,-7.8277587890625,2.5177001953125,-0.732421875
1.1862499,9.136273384094238,-4.091690540313721,0.19393034279346466,-7.9345703125,2.349853515625,-0.9002685546875
1.1887499,9.14345645904541,-4.091690540313721,0.2585737705230713,-7.5836181640625,2.2430419921875,-1.190185546875
1.1912498999999999,9.17697525024414,-4.094084739685059,0.31603461503982544,-7.4462890625,2.3651123046875,-1.434326171875
1.1937499,9.193734169006348,-4.089296340942383,0.35913026332855225,-7.354736328125,2.5634765625,-1.77001953125
1.1962499,9.208099365234375,-4.077325344085693,0.38546648621559143,-7.354736328125,2.532958984375,-1.8310546875
1.1987499,9.20091724395752,-4.055777549743652,0.3878606855869293,-7.0343017578125,2.4261474609375,-2.1514892578125
1.2012498999999999,9.184157371520996,-4.039018154144287,0.38307225704193115,-6.7596435546875,2.3040771484375,-2.655029296875
1.2037499,9.165003776550293,-4.022258758544922,0.3711012601852417,-6.6375732421875,2.1820068359375,-2.62451171875
1.2062499,9.141061782836914,-4.005499362945557,0.35673606395721436,-6.6070556640625,2.0904541015625,-3.0059814453125
1.2087499,9.121908187866211,-3.993528366088867,0.3447650372982025,-6.28662109375,1.861572265625,-3.448486328125
1.2112498999999999,9.10993766784668,-3.97916316986084,0.3208230137825012,-6.103515625,1.5716552734375,-3.570556640625
1.2137499,9.097966194152832,-3.974374771118164,0.2968810200691223,-5.889892578125,1.4801025390625,-3.7841796875
1.2162499,9.083600997924805,-3.976768970489502,0.2753331959247589,-5.615234375,1.2969970703125,-3.9520263671875
1.2187499,9.066842079162598,-3.9863457679748535,0.2537853717803955,-5.4168701171875,1.0986328125,-3.9825439453125
1.2212498999999999,9.047688484191895,-4.000710964202881,0.23702596127986908,-5.157470703125,1.1444091796875,-3.90625
1.2237498999999998,9.01895809173584,-4.005499362945557,0.22744916379451752,-4.7607421875,0.762939453125,-3.8604736328125
1.2262499,8.98543930053711,-4.005499362945557,0.22026655077934265,-4.82177734375,0.5950927734375,-3.9520263671875
1.2287499,8.951920509338379,-3.995922565460205,0.21547815203666687,-4.69970703125,0.3509521484375,-4.180908203125
1.2312499,8.918401718139648,-3.9839515686035156,0.22266076505184174,-4.6539306640625,0.091552734375,-4.119873046875
1.2337498999999998,8.89445972442627,-3.976768970489502,0.22744916379451752,-4.5318603515625,-0.030517578125,-4.0130615234375
1.2362499,8.880094528198242,-3.971980571746826,0.24181437492370605,-4.638671875,-0.18310546875,-4.08935546875
1.2387499,8.87051773071289,-3.971980571746826,0.24660277366638184,-4.4403076171875,-0.4730224609375,-3.9825439453125
1.2412499,8.868123054504395,-3.9695863723754883,0.2513911724090576,-4.2724609375,-0.579833984375,-3.9215087890625
1.2437498999999999,8.865729331970215,-3.9695863723754883,0.2513911724090576,-4.4403076171875,-0.9307861328125,-4.119873046875
1.2462499,8.858546257019043,-3.955221176147461,0.24420857429504395,-4.180908203125,-1.0223388671875,-3.7689208984375
1.2487499,8.846575736999512,-3.93367338180542,0.24181437492370605,-4.1961669921875,-1.1444091796875,-3.7384033203125
1.2512499,8.829815864562988,-3.9049429893493652,0.2322375625371933,-4.3487548828125,-1.5106201171875,-3.570556640625
1.2537498999999999,8.808267593383789,-3.8738183975219727,0.21547815203666687,-4.08935546875,-2.0294189453125,-3.4637451171875
1.2562499,8.791508674621582,-3.847482204437256,0.18914192914962769,-4.0283203125,-2.166748046875,-3.4332275390625
1.2587499,8.774748802185059,-3.825934410095215,0.15562310814857483,-4.0283203125,-2.1820068359375,-3.265380859375
1.2612499,8.755595207214355,-3.8067808151245117,0.12689268589019775,-4.2266845703125,-2.410888671875,-3.3111572265625
1.2637498999999999,8.736441612243652,-3.7900211811065674,0.10295066982507706,-4.1656494140625,-2.960205078125,-3.1890869140625
1.2662499,8.710105895996094,-3.77565598487854,0.08379705995321274,-4.150390625,-3.082275390625,-3.0364990234375
1.2687499,8.678980827331543,-3.7660791873931885,0.07182604819536209,-4.1351318359375,-3.1890869140625,-2.8839111328125
1.2712499,8.655038833618164,-3.7612907886505127,0.05506663769483566,-4.2572021484375,-3.509521484375,-2.8076171875
1.2737498999999999,8.631096839904785,-3.7684733867645264,0.043095629662275314,-4.0130615234375,-3.7841796875,-2.74658203125
1.2762499,8.619126319885254,-3.773261785507202,0.026336219161748886,-4.0130615234375,-4.058837890625,-2.5787353515625
1.2787499,8.607154846191406,-3.7852327823638916,0.009576806798577309,-4.0740966796875,-4.1351318359375,-2.532958984375
1.2812499,8.595184326171875,-3.7900211811065674,-0.011971008032560349,-3.96728515625,-4.2724609375,-2.44140625
1.2837498999999999,8.588001251220703,-3.7876269817352295,-0.031124621629714966,-3.9825439453125,-4.5166015625,-2.2125244140625
1.2862498999999998,8.585607528686523,-3.7828385829925537,-0.05267243832349777,-3.9520263671875,-4.6844482421875,-2.0294189453125
1.2887499,8.5903959274292,-3.7708675861358643,-0.07182604819536209,-3.7994384765625,-4.974365234375,-1.8768310546875
1.2912499,8.59997272491455,-3.758896589279175,-0.0933738648891449,-3.7384033203125,-5.1422119140625,-1.7547607421875
1.2937499,8.607154846191406,-3.7421371936798096,-0.10773907601833344,-3.662109375,-5.523681640625,-1.708984375
1.2962498999999998,8.619126319885254,-3.73016619682312,-0.11971008777618408,-3.60107421875,-5.828857421875,-1.6021728515625
1.2987499,8.62391471862793,-3.713406801223755,-0.12689268589019775,-3.5400390625,-5.6915283203125,-1.2969970703125
1.3012499,8.633491516113281,-3.6990416049957275,-0.13168109953403473,-3.4027099609375,-5.7830810546875,-1.0986328125
1.3037499,8.643068313598633,-3.6846764087677,-0.1388636976480484,-3.47900390625,-5.950927734375,-1.068115234375
1.3062498999999999,8.652645111083984,-3.6727054119110107,-0.1412578970193863,-3.5858154296875,-5.7525634765625,-0.9765625
1.3087499,8.664615631103516,-3.6607344150543213,-0.1412578970193863,-3.5858154296875,-5.8135986328125,-0.5035400390625
1.3112499,8.676587104797363,-3.6583402156829834,-0.1412578970193863,-3.4637451171875,-5.645751953125,-0.3509521484375
1.3137499,8.69334602355957,-3.6559460163116455,-0.1364694982767105,-3.3416748046875,-5.5999755859375,-0.030517578125
1.3162498999999999,8.700529098510742,-3.6559460163116455,-0.1388636976480484,-3.3111572265625,-5.767822265625,0.030517578125
1.3187499,8.710105895996094,-3.6535518169403076,-0.1412578970193863,-3.204345703125,-5.523681640625,0
1.3212499,8.719682693481445,-3.6535518169403076,-0.15083470940589905,-3.509521484375,-5.3558349609375,0.3814697265625
1.3237499,8.731653213500977,-3.6559460163116455,-0.16519992053508759,-3.509521484375,-5.37109375,0.9613037109375
1.3262498999999999,8.738836288452148,-3.6559460163116455,-0.17956513166427612,-3.387451171875,-5.3253173828125,1.2054443359375
1.3287499,8.755595207214355,-3.667917013168335,-0.20111294090747833,-3.0975341796875,-5.096435546875,1.434326171875
1.3312499,8.767566680908203,-3.6774938106536865,-0.21308395266532898,-2.9144287109375,-4.9896240234375,2.0294189453125
1.3337499,8.779537200927734,-3.691859006881714,-0.22505496442317963,-2.8228759765625,-4.69970703125,2.3040771484375
1.3362498999999999,8.789113998413086,-3.7014358043670654,-0.2298433631658554,-2.4566650390625,-4.8065185546875,2.4566650390625
1.3387499,8.793902397155762,-3.708618402481079,-0.2298433631658554,-2.471923828125,-4.69970703125,2.6397705078125
1.3412499,8.796297073364258,-3.711012601852417,-0.2322375625371933,-2.2125244140625,-4.5318603515625,2.9144287109375
1.3437499,8.791508674621582,-3.706224203109741,-0.2322375625371933,-2.0751953125,-4.3487548828125,3.265380859375
1.3462498999999999,8.789113998413086,-3.6990416049957275,-0.23702596127986908,-2.044677734375,-4.2724609375,3.5552978515625
1.3487498999999998,8.786720275878906,-3.7038300037384033,-0.23942017555236816,-1.8157958984375,-4.1046142578125,3.7994384765625
1.3512499,8.78432559967041,-3.713406801223755,-0.24660277366638184,-1.373291015625,-3.9825439453125,4.0740966796875
1.3537499,8.786720275878906,-3.7421371936798096,-0.2513911724090576,-0.8392333984375,-3.936767578125,4.3792724609375
1.3562499,8.789113998413086,-3.773261785507202,-0.2585737705230713,-0.396728515625,-3.5858154296875,4.5013427734375
1.3587498999999998,8.789113998413086,-3.801992416381836,-0.26575639843940735,0.0457763671875,-3.3416748046875,4.8065185546875
1.3612499,8.78432559967041,-3.821146011352539,-0.272938996553421,0.3662109375,-3.2501220703125,4.9591064453125
1.3637499,8.774748802185059,-3.8379054069519043,-0.2849099934101105,0.8087158203125,-3.1890869140625,5.06591796875
1.3662499,8.760383605957031,-3.8594532012939453,-0.29209262132644653,1.3580322265625,-3.0975341796875,5.096435546875
1.3687498999999999,8.743624687194824,-3.8762125968933105,-0.3016694188117981,1.7547607421875,-2.9296875,5.4473876953125
1.3712499,8.729259490966797,-3.8953661918640137,-0.3064578175544739,2.227783203125,-2.9144287109375,5.706787109375
1.3737499,8.724471092224121,-3.912125587463379,-0.31603461503982544,2.6092529296875,-2.8533935546875,5.79833984375
1.3762499,8.734047889709473,-3.9384617805480957,-0.33039984107017517,3.1280517578125,-2.838134765625,6.103515625
1.3787498999999999,8.755595207214355,-3.9600095748901367,-0.3423708379268646,3.90625,-2.4871826171875,6.195068359375
1.3812499,8.779537200927734,-3.9887399673461914,-0.35673606395721436,4.2266845703125,-2.166748046875,6.378173828125
1.3837499,8.793902397155762,-4.015076160430908,-0.3687070608139038,4.3182373046875,-2.1209716796875,6.9427490234375
1.3862499,8.78193187713623,-4.060565948486328,-0.395043283700943,5.55419921875,-2.166748046875,7.293701171875
1.3887498999999999,8.765172004699707,-4.0749311447143555,-0.3974374830722809,5.7373046875,-2.1820068359375,7.38525390625
1.3912499,8.753201484680176,-4.0749311447143555,-0.395043283700943,6.3018798828125,-1.8310546875,7.598876953125
1.3937499,8.746018409729004,-4.07014274597168,-0.38307225704193115,6.439208984375,-1.800537109375,7.8125
1.3962499,8.741230010986328,-4.060565948486328,-0.3734954595565796,6.6680908203125,-1.4801025390625,7.8277587890625
1.3987498999999999,8.738836288452148,-4.05817174911499,-0.3687070608139038,6.6986083984375,-1.5411376953125,8.1024169921875
1.4012499,8.741230010986328,-4.07014274597168,-0.3687070608139038,7.0953369140625,-1.46484375,8.23974609375
1.4037499,8.741230010986328,-4.089296340942383,-0.37828385829925537,7.32421875,-1.2359619140625,8.4228515625
1.4062499,8.731653213500977,-4.110844135284424,-0.395043283700943,7.4615478515625,-1.0986328125,8.3770751953125
1.4087498999999999,8.71489429473877,-4.122815132141113,-0.4141969084739685,7.568359375,-0.762939453125,8.544921875
1.4112498999999998,8.69334602355957,-4.132391929626465,-0.43335050344467163,7.537841796875,-1.190185546875,8.8958740234375
1.4137499,8.671798706054688,-4.1395745277404785,-0.45010992884635925,7.50732421875,-1.0986328125,9.0484619140625
1.4162499,8.65982723236084,-4.163516521453857,-0.4620809257030487,7.6904296875,-0.946044921875,9.002685546875
1.4187499,8.655038833618164,-4.197035789489746,-0.47165772318840027,8.026123046875,-0.7171630859375,9.246826171875
1.4212498999999998,8.655038833618164,-4.23773717880249,-0.4812345504760742,8.11767578125,-0.6866455078125,9.3536376953125
1.4237499,8.650250434875488,-4.28322696685791,-0.48602294921875,8.4228515625,-0.701904296875,9.4146728515625
1.4262499,8.645462036132812,-4.316745758056641,-0.49559974670410156,8.392333984375,-0.579833984375,9.368896484375
1.4287499,8.633491516113281,-4.335899353027344,-0.49559974670410156,8.453369140625,-0.3814697265625,9.3994140625
1.4312498999999999,8.619126319885254,-4.335899353027344,-0.49799394607543945,8.331298828125,-0.335693359375,9.3231201171875
1.4337499,8.607154846191406,-4.331110954284668,-0.49799394607543945,8.0718994140625,-0.1220703125,9.58251953125
1.4362499,8.592789649963379,-4.3191399574279785,-0.49559974670410156,8.026123046875,-0.152587890625,9.735107421875
1.4387499,8.580819129943848,-4.316745758056641,-0.49559974670410156,7.843017578125,0.0457763671875,9.674072265625
1.4412498999999999,8.56645393371582,-4.323928356170654,-0.4884171485900879,7.8125,0.2593994140625,9.58251953125
1.4437499,8.554482460021973,-4.335899353027344,-0.4812345504760742,7.6446533203125,0.3204345703125,9.490966796875
1.4462499,8.544905662536621,-4.352658748626709,-0.4812345504760742,7.6751708984375,0.3509521484375,9.4757080078125
1.4487499,8.53293514251709,-4.367023944854736,-0.47644615173339844,7.568359375,0.5645751953125,9.46044921875
1.4512498999999999,8.523358345031738,-4.378994941711426,-0.47165772318840027,7.4615478515625,0.6103515625,9.3536376953125
1.4537499,8.513781547546387,-4.383783340454102,-0.4644751250743866,7.1563720703125,0.6256103515625,9.27734375
1.4562499,8.508993148803711,-4.383783340454102,-0.44771572947502136,6.9580078125,0.7171630859375,9.2620849609375
1.4587499,8.508993148803711,-4.381389141082764,-0.4429273009300232,6.591796875,0.7171630859375,9.185791015625
1.4612498999999999,8.525752067565918,-4.383783340454102,-0.43335050344467163,6.195068359375,0.9613037109375,9.307861328125
1.4637499,8.542511940002441,-4.388571739196777,-0.4357447028160095,5.9967041015625,0.9918212890625,9.368896484375
1.4662499,8.561665534973145,-4.398148536682129,-0.42616790533065796,6.0272216796875,1.28173828125,9.33837890625
1.4687499,8.576030731201172,-4.4077253341674805,-0.4141969084739685,5.767822265625,1.2359619140625,9.27734375
1.4712498999999999,8.580819129943848,-4.426878929138184,-0.3878606855869293,5.67626953125,1.28173828125,9.246826171875
1.4737498999999998,8.578424453735352,-4.446032524108887,-0.36152446269989014,5.523681640625,1.3580322265625,9.429931640625
1.4762499,8.573636054992676,-4.467580318450928,-0.33279404044151306,5.2642822265625,1.5106201171875,9.2926025390625
1.4787499,8.561665534973145,-4.484339714050293,-0.31124621629714966,5.2490234375,1.800537109375,9.124755859375
1.4812499,8.542511940002441,-4.49870491027832,-0.28969839215278625,5.0506591796875,1.739501953125,9.4757080078125
1.4837498999999998,8.513781547546387,-4.508281707763672,-0.2777273952960968,5.035400390625,1.922607421875,9.5672607421875
1.4862499,8.482656478881836,-4.5154643058776855,-0.26336219906806946,4.7760009765625,2.01416015625,9.307861328125
1.4887499,8.451532363891602,-4.520252704620361,-0.2537853717803955,4.608154296875,2.3193359375,9.4451904296875
1.4912499,8.425195693969727,-4.525041103363037,-0.24899697303771973,4.69970703125,2.3345947265625,9.490966796875
1.4937498999999999,8.401253700256348,-4.527435302734375,-0.24420857429504395,4.7149658203125,2.197265625,9.735107421875
1.4962499,8.38449478149414,-4.532223701477051,-0.23702596127986908,4.4708251953125,2.4261474609375,9.70458984375
1.4987499,8.372523307800293,-4.5394062995910645,-0.2322375625371933,4.45556640625,2.44140625,9.765625
1.5012499,8.362946510314941,-4.546588897705078,-0.22026655077934265,4.4097900390625,2.62451171875,9.9029541015625
1.5037498999999999,8.360552787780762,-4.553771495819092,-0.21308395266532898,4.3792724609375,2.7008056640625,10.101318359375
1.5062499,8.35336971282959,-4.55616569519043,-0.2059013396501541,4.425048828125,2.716064453125,10.2081298828125
1.5087499,8.35097599029541,-4.548983097076416,-0.20111294090747833,4.3792724609375,2.7008056640625,10.1470947265625
1.5112499,8.343792915344238,-4.5394062995910645,-0.19393034279346466,4.5623779296875,2.593994140625,10.2386474609375
1.5137498999999999,8.33182144165039,-4.522646903991699,-0.1843535304069519,4.608154296875,2.593994140625,10.2081298828125
1.5162499,8.317456245422363,-4.501099109649658,-0.17238251864910126,4.5166015625,2.6397705078125,10.25390625
1.5187499,8.29830265045166,-4.479551315307617,-0.1604115068912506,4.3792724609375,2.7008056640625,10.19287109375
1.5212499,8.274360656738281,-4.455609321594238,-0.14604631066322327,4.5318603515625,2.655029296875,10.2386474609375
1.5237498999999999,8.252813339233398,-4.443638324737549,-0.1412578970193863,4.608154296875,2.4871826171875,10.345458984375
1.5262499,8.224082946777344,-4.431667327880859,-0.12928688526153564,4.638671875,2.44140625,10.3912353515625
1.5287499,8.200140953063965,-4.434061527252197,-0.12449848651885986,4.7607421875,2.593994140625,10.223388671875
1.5312499,8.180987358093262,-4.434061527252197,-0.1173158809542656,4.6539306640625,2.5634765625,10.2691650390625
1.5337498999999999,8.164227485656738,-4.443638324737549,-0.11013327538967133,4.638671875,2.532958984375,10.406494140625
1.5362499,8.152256965637207,-4.4532151222229,-0.10295066982507706,4.730224609375,2.4566650390625,10.68115234375
1.5387499,8.147468566894531,-4.469974517822266,-0.09576806426048279,4.57763671875,2.1209716796875,10.7574462890625
1.5412499,8.145073890686035,-4.484339714050293,-0.08619125932455063,4.5013427734375,2.3956298828125,10.833740234375
1.5437499,8.145073890686035,-4.496310710906982,-0.08140286058187485,4.5318603515625,2.2125244140625,11.199951171875
1.5462498999999998,8.149862289428711,-4.503493309020996,-0.08140286058187485,4.4097900390625,2.1209716796875,11.688232421875
1.5487499,8.154650688171387,-4.49870491027832,-0.090979665517807,3.90625,2.349853515625,12.0849609375
1.5512499,8.154650688171387,-4.477157115936279,-0.11252748221158981,3.753662109375,2.25830078125,12.3443603515625
1.5537499,8.152256965637207,-4.443638324737549,-0.1412578970193863,3.4942626953125,2.288818359375,12.603759765625
1.5562498999999999,8.14028549194336,-4.402936935424805,-0.181959331035614,2.960205078125,2.3956298828125,13.1683349609375
1.5587499,8.125920295715332,-4.357447147369385,-0.22266076505184174,2.38037109375,2.471923828125,13.4735107421875
1.5612499,8.109161376953125,-4.311957359313965,-0.26096799969673157,1.983642578125,2.0904541015625,13.7176513671875
1.5637499,8.097189903259277,-4.271255970001221,-0.28730419278144836,1.5716552734375,2.288818359375,13.97705078125
1.5662498999999999,8.090007781982422,-4.2329487800598145,-0.31364041566848755,1.129150390625,2.3193359375,14.4195556640625
1.5687499,8.092401504516602,-4.199429988861084,-0.33279404044151306,0.701904296875,2.0599365234375,14.6636962890625
1.5712499,8.094796180725098,-4.177882194519043,-0.3495534360408783,-0.1983642578125,2.1514892578125,14.495849609375
1.5737499,8.099584579467773,-4.156333923339844,-0.363918662071228,-0.9307861328125,2.0904541015625,14.6636962890625
1.5762498999999999,8.099584579467773,-4.141968727111816,-0.3734954595565796,-1.617431640625,1.922607421875,15.19775390625
1.5787499,8.092401504516602,-4.134786128997803,-0.38067805767059326,-2.01416015625,1.739501953125,15.3656005859375
1.5812499,8.087613105773926,-4.134786128997803,-0.38067805767059326,-2.62451171875,1.5411376953125,15.4266357421875
1.5837499,8.075642585754395,-4.1395745277404785,-0.38546648621559143,-3.4637451171875,1.556396484375,15.716552734375
1.5862498999999999,8.068459510803223,-4.153939723968506,-0.38067805767059326,-4.058837890625,1.7242431640625,15.8233642578125
1.5887499,8.061277389526367,-4.170699596405029,-0.37828385829925537,-4.2266845703125,1.6937255859375,16.0064697265625
1.5912499,8.056488990783691,-4.194641590118408,-0.37828385829925537,-4.6539306640625,1.708984375,16.357421875
1.5937499,8.039729118347168,-4.225766181945801,-0.37828385829925537,-5.7525634765625,1.77001953125,17.120361328125
1.5962498999999999,8.032546997070312,-4.23773717880249,-0.3758896589279175,-6.317138671875,1.64794921875,17.486572265625
1.5987499,8.032546997070312,-4.244919776916504,-0.3687070608139038,-6.8206787109375,1.5716552734375,17.9290771484375
1.6012499,8.042123794555664,-4.264073371887207,-0.36152446269989014,-7.3394775390625,1.678466796875,18.280029296875
1.6037499,8.051700592041016,-4.273650169372559,-0.35673606395721436,-7.843017578125,1.8768310546875,18.8751220703125
1.6062499,8.056488990783691,-4.288015365600586,-0.35673606395721436,-8.4991455078125,1.89208984375,19.5159912109375
1.6087498999999998,8.061277389526367,-4.290409564971924,-0.36152446269989014,-9.002685546875,1.8463134765625,20.32470703125
1.6112499,8.054094314575195,-4.292803764343262,-0.3734954595565796,-9.2926025390625,2.0751953125,20.8740234375
1.6137499,8.04930591583252,-4.288015365600586,-0.3902548849582672,-9.82666015625,2.1514892578125,21.5301513671875
1.6162499,8.034940719604492,-4.280832767486572,-0.40940847992897034,-10.3302001953125,2.105712890625,22.2015380859375
1.6187498999999999,8.015787124633789,-4.264073371887207,-0.43095630407333374,-10.772705078125,2.044677734375,22.735595703125
1.6212499,7.994239330291748,-4.242525577545166,-0.45250412821769714,-11.41357421875,2.044677734375,23.0865478515625
1.6237499,7.967903137207031,-4.225766181945801,-0.4812345504760742,-11.505126953125,1.739501953125,23.7884521484375
1.6262499,7.9415669441223145,-4.206612586975098,-0.5123591423034668,-12.115478515625,1.9378662109375,24.444580078125
1.6287498999999999,7.9176249504089355,-4.19224739074707,-0.5434837937355042,-12.420654296875,1.4495849609375,25.360107421875
1.6312499,7.891288757324219,-4.180276393890381,-0.5722141861915588,-12.6495361328125,1.129150390625,26.0772705078125
1.6337499,7.864952564239502,-4.175487995147705,-0.5913678407669067,-12.9852294921875,1.129150390625,26.5960693359375
1.6362499,7.848193168640137,-4.170699596405029,-0.5985504388809204,-13.092041015625,0.8392333984375,27.28271484375
1.6387498999999999,7.833827972412109,-4.173093795776367,-0.5985504388809204,-13.2598876953125,0.7476806640625,27.9998779296875
1.6412499,7.826645374298096,-4.173093795776367,-0.5913678407669067,-13.5040283203125,0.518798828125,28.7322998046875
1.6437499,7.819462776184082,-4.180276393890381,-0.5793967843055725,-13.885498046875,0.3662109375,29.3426513671875
1.6462499,7.805097579956055,-4.185064792633057,-0.5602431893348694,-13.9923095703125,-0.152587890625,30.3955078125
1.6487498999999999,7.785943984985352,-4.180276393890381,-0.5482721924781799,-14.312744140625,-0.48828125,31.463623046875
1.6512499,7.752425193786621,-4.168305397033691,-0.5315127968788147,-14.95361328125,-0.8392333984375,32.318115234375
1.6537499,7.711723804473877,-4.156333923339844,-0.5267243981361389,-15.68603515625,-1.220703125,33.4320068359375
1.6562499,7.661445617675781,-4.129997730255127,-0.5363011956214905,-16.3116455078125,-1.6326904296875,34.454345703125
1.6587498999999999,7.618350028991699,-4.1180267333984375,-0.5530605912208557,-16.693115234375,-2.197265625,35.4766845703125
1.6612499,7.577648162841797,-4.101267337799072,-0.5841852426528931,-17.15087890625,-2.4566650390625,36.651611328125
1.6637499,7.532158374786377,-4.086902141571045,-0.6105214357376099,-17.6239013671875,-2.7313232421875,37.65869140625
1.6662499,7.4770917892456055,-4.062960147857666,-0.6392518281936646,-18.341064453125,-3.387451171875,38.5894775390625
1.6687499,7.41484260559082,-4.036623954772949,-0.6536170840263367,-19.195556640625,-4.058837890625,39.55078125
1.6712498999999998,7.3454108238220215,-3.998316764831543,-0.6727706789970398,-19.9432373046875,-4.638671875,40.557861328125
1.6737499,7.29034423828125,-3.974374771118164,-0.6775590777397156,-20.7061767578125,-5.37109375,41.8701171875
1.6762499,7.240066051483154,-3.955221176147461,-0.6871358752250671,-21.270751953125,-5.8135986328125,43.02978515625
1.6787499,7.189787864685059,-3.952826976776123,-0.6943184733390808,-21.942138671875,-6.317138671875,44.189453125
1.6812498999999999,7.139509677886963,-3.957615375518799,-0.7038952708244324,-22.8118896484375,-7.232666015625,45.3033447265625
1.6837499,7.084442615509033,-3.971980571746826,-0.7230489253997803,-23.8037109375,-8.3465576171875,46.600341796875
1.6862499,7.038952827453613,-3.9839515686035156,-0.7493851184844971,-24.71923828125,-8.880615234375,48.0194091796875
1.6887499,7.007828235626221,-3.9911341667175293,-0.7805097699165344,-25.421142578125,-9.70458984375,49.3011474609375
1.6912498999999999,7.000645637512207,-3.9863457679748535,-0.8092401623725891,-26.42822265625,-10.6964111328125,50.6744384765625
1.6937499,7.005434036254883,-3.9671921730041504,-0.8475474119186401,-27.374267578125,-11.8255615234375,52.24609375
1.6962499,7.029376029968262,-3.9384617805480957,-0.8882488012313843,-28.5797119140625,-12.939453125,53.375244140625
1.6987499,7.070077419281006,-3.907337188720703,-0.9289502501487732,-29.510498046875,-14.09912109375,54.779052734375
1.7012498999999999,7.113173484802246,-3.8738183975219727,-0.9672574996948242,-30.45654296875,-14.8773193359375,56.0455322265625
1.7037499,7.1706342697143555,-3.8546648025512695,-0.9864110946655273,-31.3873291015625,-15.960693359375,57.3272705078125
1.7062499,7.216124057769775,-3.825934410095215,-0.9888052940368652,-32.257080078125,-16.8914794921875,58.53271484375
1.7087499,7.2568254470825195,-3.8163576126098633,-0.9744400978088379,-33.172607421875,-18.06640625,60.0128173828125
1.7112498999999999,7.287950038909912,-3.801992416381836,-0.950498104095459,-34.6832275390625,-19.378662109375,61.3555908203125
1.7137499,7.314286231994629,-3.7900211811065674,-0.9265560507774353,-35.675048828125,-20.3399658203125,62.5
1.7162499,7.340622425079346,-3.773261785507202,-0.8978256583213806,-36.4990234375,-21.4385986328125,63.873291015625
1.7187499,7.374141216278076,-3.7636849880218506,-0.8786720037460327,-37.7960205078125,-22.430419921875,65.2008056640625
1.7212498999999999,7.407660007476807,-3.751713991165161,-0.8571242094039917,-38.6962890625,-23.529052734375,66.741943359375
1.7237499,7.448361396789551,-3.751713991165161,-0.8379706144332886,-39.764404296875,-24.566650390625,68.0694580078125
1.7262499,7.489062786102295,-3.7469255924224854,-0.8236053586006165,-41.0308837890625,-25.5889892578125,69.488525390625
1.7287499,7.527369976043701,-3.7469255924224854,-0.8092401623725891,-42.144775390625,-26.5960693359375,70.9381103515625
1.7312499,7.570465564727783,-3.7469255924224854,-0.7996633648872375,-43.5333251953125,-27.89306640625,72.723388671875
1.7337498999999998,7.618350028991699,-3.7493197917938232,-0.7948749661445618,-44.7540283203125,-29.0069580078125,74.2340087890625
1.7362499,7.675810813903809,-3.7708675861358643,-0.7924807667732239,-45.8984375,-29.8919677734375,75.5157470703125
1.7387499,7.7428483963012695,-3.799597978591919,-0.7948749661445618,-47.0123291015625,-30.7464599609375,77.1331787109375
1.7412499,7.814674377441406,-3.8283286094665527,-0.8020575642585754,-48.2177734375,-31.951904296875,78.9337158203125
1.7437498999999999,7.893682956695557,-3.866635799407959,-0.8164227604866028,-49.530029296875,-33.1268310546875,80.6121826171875
1.7462499,7.977479934692383,-3.8810009956359863,-0.8427590131759644,-50.8575439453125,-34.210205078125,82.33642578125
1.7487499,8.068459510803223,-3.892971992492676,-0.871489405632019,-52.2308349609375,-35.430908203125,84.0911865234375
1.7512499,8.164227485656738,-3.883395195007324,-0.8978256583213806,-53.985595703125,-36.3006591796875,85.601806640625
1.7537498999999999,8.26478385925293,-3.8594532012939453,-0.9241618514060974,-55.6793212890625,-37.6434326171875,87.3870849609375
1.7562499,8.38688850402832,-3.8355112075805664,-0.9481038451194763,-57.2357177734375,-38.665771484375,89.080810546875
1.7587499,8.518569946289062,-3.797203779220581,-0.9720458984375,-58.4716796875,-39.73388671875,90.4998779296875
1.7612499,8.676587104797363,-3.7708675861358643,-1.0055646896362305,-60.0128173828125,-40.9698486328125,91.8426513671875
1.7637498999999999,8.83939266204834,-3.734954595565796,-1.0295066833496094,-61.2640380859375,-42.0989990234375,93.07861328125
1.7662499,9.004592895507812,-3.6990416049957275,-1.05105459690094,-62.5,-43.548583984375,94.29931640625
1.7687499,9.167398452758789,-3.663128614425659,-1.0678139925003052,-64.178466796875,-45.074462890625,95.4742431640625
1.7712499,9.32302188873291,-3.6296098232269287,-1.0797849893569946,-65.49072265625,-46.539306640625,96.6339111328125
1.7737498999999999,9.476250648498535,-3.6128504276275635,-1.0821791887283325,-67.0928955078125,-48.126220703125,97.65625
1.7762499,9.619902610778809,-3.6128504276275635,-1.091755986213684,-68.2830810546875,-49.8504638671875,98.81591796875
1.7787499,9.75637149810791,-3.6367924213409424,-1.091755986213684,-69.091796875,-51.544189453125,99.8992919921875
1.7812499,9.904812812805176,-3.6846764087677,-1.1013327836990356,-70.037841796875,-53.2684326171875,100.6622314453125
1.7837498999999999,10.053253173828125,-3.732560396194458,-1.113303780555725,-70.9075927734375,-54.62646484375,101.7608642578125
1.7862499,10.230423927307129,-3.7852327823638916,-1.1204863786697388,-71.4569091796875,-56.15234375,102.630615234375
1.7887499,10.44350814819336,-3.821146011352539,-1.137245774269104,-72.44873046875,-57.9681396484375,103.5919189453125
1.7912499,10.697293281555176,-3.845088005065918,-1.1300631761550903,-73.333740234375,-59.6466064453125,104.43115234375
1.7937499,11.003750801086426,-3.864241600036621,-1.1204863786697388,-74.0814208984375,-61.553955078125,105.46875
1.7962498999999998,11.362881660461426,-3.8762125968933105,-1.0821791887283325,-74.9053955078125,-63.262939453125,106.4300537109375
1.7987499,11.762712478637695,-3.88818359375,-1.0582371950149536,-75.103759765625,-64.910888671875,107.4066162109375
1.8012499,12.188880920410156,-3.890577793121338,-1.01753568649292,-75.5615234375,-66.8792724609375,108.3831787109375
1.8037499,13.069947242736816,-3.8762125968933105,-1.0103530883789062,-76.23291015625,-71.014404296875,109.832763671875
1.8062498999999999,13.503297805786133,-3.866635799407959,-1.01753568649292,-76.7059326171875,-73.1658935546875,110.7177734375
1.8087499,13.929465293884277,-3.840299606323242,-1.05105459690094,-77.0721435546875,-75.2410888671875,111.541748046875
1.8112499,14.353239059448242,-3.8091750144958496,-1.0797849893569946,-77.63671875,-77.545166015625,112.1826171875
1.8137499,14.779407501220703,-3.7684733867645264,-1.113303780555725,-78.216552734375,-79.9713134765625,112.6556396484375
1.8162498999999999,15.210363388061523,-3.7205893993377686,-1.1468225717544556,-78.3843994140625,-82.51953125,113.46435546875
1.8187499,15.660472869873047,-3.667917013168335,-1.1779472827911377,-78.4149169921875,-85.4034423828125,113.983154296875
1.8212499,16.129735946655273,-3.5936968326568604,-1.2066776752471924,-78.521728515625,-88.1195068359375,114.593505859375
1.8237499,16.630125045776367,-3.4979286193847656,-1.2282254695892334,-79.071044921875,-91.12548828125,114.837646484375
1.8262498999999999,17.166425704956055,-3.375824451446533,-1.2401964664459229,-80.047607421875,-94.5281982421875,114.7918701171875
1.8287499,17.74582290649414,-3.2297780513763428,-1.2425906658172607,-80.810546875,-97.83935546875,114.9749755859375
1.8312499,18.363527297973633,-3.071760892868042,-1.2306196689605713,-81.817626953125,-101.4251708984375,115.29541015625
1.8337499,19.02432632446289,-2.896984100341797,-1.2210428714752197,-83.1146240234375,-105.1483154296875,115.2191162109375
1.8362498999999999,19.711462020874023,-2.693476915359497,-1.2090718746185303,-85.0677490234375,-109.19189453125,115.1885986328125
1.8387499,20.429723739624023,-2.4588451385498047,-1.2066776752471924,-87.0361328125,-113.250732421875,114.9139404296875
1.8412499,21.19108009338379,-2.1715409755706787,-1.2186486721038818,-89.447021484375,-117.4468994140625,114.92919921875
1.8437499,22.005107879638672,-1.8291701078414917,-1.2641384601593018,-92.041015625,-121.1700439453125,114.7918701171875
1.8462498999999999,22.89814567565918,-1.436521053314209,-1.3287819623947144,-95.306396484375,-124.481201171875,114.31884765625
1.8487499,23.891738891601562,-1.0055646896362305,-1.4221558570861816,-97.7935791015625,-129.2724609375,113.983154296875
1.8512499,24.990676879882812,-0.5674257874488831,-1.5107412338256836,-101.0284423828125,-134.0789794921875,113.5711669921875
1.8537499,26.209325790405273,-0.15083470940589905,-1.5610195398330688,-104.3701171875,-138.763427734375,112.762451171875
1.8562499,27.552473068237305,0.2346317619085312,-1.5538369417190552,-107.84912109375,-143.37158203125,111.724853515625
1.8587498999999998,29.008148193359375,0.5889736413955688,-1.4700398445129395,-111.4654541015625,-147.7203369140625,110.8856201171875
1.8612499,30.542831420898438,0.9217676520347595,-1.3024457693099976,-115.7684326171875,-151.9317626953125,110.2142333984375
1.8637499,32.115821838378906,1.2090718746185303,-1.0797849893569946,-121.002197265625,-156.036376953125,109.8175048828125
1.8662499,33.64571762084961,1.4413094520568848,-0.7996633648872375,-127.4566650390625,-160.003662109375,109.8480224609375
1.8687498999999999,35.06787109375,1.599326729774475,-0.5099649429321289,-134.490966796875,-164.0625,110.443115234375
1.8712499,36.27215576171875,1.680729627609253,-0.15801730751991272,-142.181396484375,-168.2281494140625,112.1063232421875
1.8737499,37.26335525512695,1.7286136150360107,0.05985504388809204,-147.8271484375,-172.5006103515625,115.386962890625
1.8762499,38.010345458984375,1.6663644313812256,0.3064578175544739,-157.8369140625,-175.8575439453125,116.8670654296875
1.8787498999999999,38.51313018798828,1.556231141090393,0.35673606395721436,-170.196533203125,-179.7943115234375,119.20166015625
1.8812499,38.793251037597656,1.3503297567367554,0.3734954595565796,-179.7027587890625,-181.976318359375,123.1689453125
1.8837499,38.82437515258789,1.0414776802062988,0.3280056416988373,-190.460205078125,-184.1583251953125,127.197265625
1.8862499,38.57059097290039,0.6943184733390808,0.28969839215278625,-202.789306640625,-186.6607666015625,130.3253173828125
1.8887498999999999,38.072593688964844,0.3998316824436188,0.23702596127986908,-211.9140625,-189.7125244140625,134.5367431640625
1.8912499,37.30644989013672,0.17956513166427612,0.14844051003456116,-220.15380859375,-191.0247802734375,139.1143798828125
1.8937499,36.38947296142578,0.06703764945268631,0.0071826050989329815,-229.9957275390625,-193.8323974609375,143.402099609375
1.8962499,35.379119873046875,0.12449848651885986,-0.22026655077934265,-239.4866943359375,-197.0672607421875,148.3612060546875
1.8987498999999999,34.35679626464844,0.21547815203666687,-0.5099649429321289,-248.046875,-198.6541748046875,154.510498046875
1.9012499,33.24109649658203,0.2561795711517334,-0.7876923680305481,-258.1787109375,-199.3255615234375,159.3780517578125
1.9037499,32.091880798339844,0.21308395266532898,-1.0678139925003052,-267.0440673828125,-201.84326171875,163.0096435546875
1.9062499,30.844499588012695,-0.0071826050989329815,-1.2689268589019775,-274.1241455078125,-205.7037353515625,167.90771484375
1.9087498999999999,29.599515914916992,-0.42616790533065796,-1.4053963422775269,-281.9366455078125,-208.3892822265625,173.03466796875
1.9112499,28.411991119384766,-0.7326257228851318,-1.4460978507995605,-286.0870361328125,-210.14404296875,179.26025390625
1.9137499,27.298686981201172,-1.1228805780410767,-1.4484920501708984,-296.7987060546875,-214.141845703125,184.906005859375
1.9162499,26.154258728027344,-1.2952631711959839,-1.3096283674240112,-307.9986572265625,-215.911865234375,189.94140625
1.9187499,24.97870635986328,-1.3742717504501343,-1.115697979927063,-316.40625,-218.1396484375,195.709228515625
1.9212498999999998,23.654712677001953,-1.338358759880066,-0.811634361743927,-327.0263671875,-220.7183837890625,201.6448974609375
1.9237499,22.23495101928711,-1.1420341730117798,-0.49320554733276367,-339.111328125,-222.3663330078125,207.1990966796875
1.9262499,20.64999008178711,-0.8427590131759644,-0.23942017555236816,-351.9439697265625,-222.9156494140625,213.3941650390625
1.9287499,18.89982795715332,-0.5123591423034668,-0.1173158809542656,-366.729736328125,-222.0611572265625,220.1995849609375
1.9312498999999999,16.88630485534668,-0.2537853717803955,-0.14844051003456116,-383.331298828125,-220.977783203125,227.35595703125
1.9337499,14.58308219909668,-0.11252748221158981,-0.33758243918418884,-400.0091552734375,-220.306396484375,235.504150390625
1.9362499,11.973402976989746,-0.08140286058187485,-0.6440402865409851,-417.3126220703125,-220.5810546875,244.5068359375
1.9387499,9.107542991638184,-0.07182604819536209,-1.0630255937576294,-434.9212646484375,-221.3592529296875,254.0283203125
1.9412498999999999,6.0621185302734375,0.0071826050989329815,-1.5514427423477173,-453.887939453125,-222.900390625,262.8936767578125
1.9437499,2.9328970909118652,0.24899697303771973,-2.094926595687866,-472.3052978515625,-225.3265380859375,271.728515625
1.9462499,-0.15322890877723694,0.629675030708313,-2.693476915359497,-490.8294677734375,-228.179931640625,279.510498046875
1.9487499,-3.1220390796661377,1.1180921792984009,-3.3494882583618164,-500,-230.3314208984375,286.376953125
1.9512498999999999,-5.928043365478516,1.625662922859192,-4.127603530883789,-500,-231.2774658203125,292.54150390625
1.9537499,-8.652645111083984,2.0015525817871094,-5.051765441894531,-500,-231.3385009765625,297.4700927734375
1.9562499,-11.367670059204102,2.1308395862579346,-6.069301128387451,-500,-230.8502197265625,301.3153076171875
1.9587499,-14.207192420959473,1.9105730056762695,-7.151480674743652,-500,-230.3466796875,304.656982421875
1.9612498999999999,-17.25022315979004,1.3503297567367554,-8.216899871826172,-500,-229.888916015625,308.0291748046875
1.9637499,-20.5494327545166,0.49799394607543945,-9.193734169006348,-500,-229.1107177734375,312.1490478515625
1.9662499,-24.11918830871582,-0.5291185975074768,-10.096348762512207,-500,-228.8818359375,316.5283203125
1.9687499,-27.94512176513672,-1.6112977266311646,-10.931924819946289,-500,-228.668212890625,321.075439453125
1.9712498999999999,-31.914709091186523,-2.7054479122161865,-11.762712478637695,-500,-228.2257080078125,325.5157470703125
1.9737499,-35.8914794921875,-3.8139634132385254,-12.708422660827637,-500,-227.3712158203125,329.7576904296875
1.9762499,-39.530662536621094,-5.231330871582031,-13.649343490600586,-500,-225.0823974609375,333.6029052734375
1.9787499,-42.85142135620117,-6.7708024978637695,-14.645331382751465,-500,-220.4437255859375,330.4901123046875
1.9812499,-45.722068786621094,-8.063671112060547,-15.971719741821289,-500,-211.0595703125,334.5184326171875
1.9837499,-48.09711837768555,-9.509769439697266,-16.977283477783203,-500,-203.5675048828125,343.841552734375
1.9862499,-49.94544219970703,-10.287884712219238,-18.030733108520508,-500,-196.2738037109375,345.3216552734375
1.9887499,-50.9605827331543,-10.96304988861084,-18.550273895263672,-500,-185.2569580078125,343.536376953125
1.9912499,-50.90790939331055,-11.425130844116211,-18.502389907836914,-500,-170.379638671875,339.3402099609375
1.9937498999999999,-49.64137649536133,-11.57596492767334,-17.9732723236084,-490.631103515625,-153.3203125,332.33642578125
1.9962499,-47.15380096435547,-11.468226432800293,-16.965312957763672,-468.3990478515625,-133.85009765625,322.1893310546875
1.9987499,-43.60799026489258,-11.15697956085205,-15.492878913879395,-447.296142578125,-112.3046875,309.417724609375
2.0012499,-39.31758117675781,-10.697293281555176,-13.591882705688477,-426.0101318359375,-89.7216796875,294.189453125
2.0037499,-34.66804122924805,-10.218452453613281,-11.348516464233398,-402.862548828125,-66.864013671875,276.0467529296875
2.0062499,-30.085538864135742,-9.780313491821289,-8.971074104309082,-376.983642578125,-43.9605712890625,255.0506591796875
2.0087498999999998,-25.94596290588379,-9.53849983215332,-6.596025466918945,-349.1668701171875,-21.4080810546875,232.9559326171875
2.0112499,-19.87187385559082,-9.806650161743164,-2.43011474609375,-285.5072021484375,18.890380859375,185.85205078125
2.0137499,-18.09777069091797,-10.266336441040039,-0.751779317855835,-249.6185302734375,35.186767578125,160.9954833984375
2.0162499,-17.00840950012207,-10.795455932617188,0.6033388376235962,-213.348388671875,48.553466796875,135.8642578125
2.0187499,-16.3883113861084,-11.274295806884766,1.6280571222305298,-176.300048828125,59.112548828125,110.83984375
2.0212499,-15.95017147064209,-11.659762382507324,2.3080103397369385,-137.51220703125,68.023681640625,85.9832763671875
2.0237499,-15.500061988830566,-11.949460983276367,2.604891538619995,-97.0458984375,76.0955810546875,60.943603515625
2.0262499,-14.973337173461914,-12.176909446716309,2.604891538619995,-54.351806640625,83.099365234375,35.858154296875
2.0287498999999998,-14.437036514282227,-12.301408767700195,2.255337953567505,-9.1094970703125,87.921142578125,10.07080078125
2.0312499,-14.018051147460938,-12.322956085205078,1.702277421951294,35.8734130859375,90.484619140625,-15.3045654296875
2.0337499,-13.84566879272461,-12.172121047973633,0.9792284965515137,80.13916015625,90.7745361328125,-39.85595703125
2.0362499,-13.960590362548828,-11.872846603393555,0.16519992053508759,123.0010986328125,89.080810546875,-63.262939453125
2.0387499,-14.362815856933594,-11.45146656036377,-0.6392518281936646,164.5965576171875,85.4034423828125,-85.052490234375
2.0412499,-14.999673843383789,-10.960655212402344,-1.414973258972168,204.1473388671875,81.695556640625,-104.949951171875
2.0437499,-15.804125785827637,-10.438719749450684,-2.121262788772583,240.29541015625,77.7130126953125,-122.528076171875
2.0462499,-16.70913314819336,-9.864110946655273,-2.779668092727661,272.4456787109375,73.3795166015625,-137.0086669921875
2.0487499,-17.652448654174805,-9.186552047729492,-3.404554843902588,300.47607421875,69.3206787109375,-148.6358642578125
2.0512498999999997,-18.559850692749023,-8.343792915344238,-3.998316764831543,323.4405517578125,65.093994140625,-157.9742431640625
2.0537499,-19.361909866333008,-7.283161640167236,-4.551377296447754,341.3848876953125,60.8978271484375,-164.6270751953125
2.0562499,-19.98918914794922,-6.023811340332031,-5.0469770431518555,354.644775390625,56.671142578125,-169.830322265625
2.0587499,-20.386627197265625,-4.630385875701904,-5.446808815002441,363.311767578125,52.642822265625,-173.52294921875
2.0612499,-20.53506851196289,-3.1292216777801514,-5.772420406341553,369.6746826171875,48.8739013671875,-176.8035888671875
2.0637499,-20.444087982177734,-1.6280571222305298,-5.987898349761963,372.9248046875,45.22705078125,-179.5654296875
2.0662499,-20.144813537597656,-0.13407529890537262,-6.162675380706787,373.59619140625,41.473388671875,-181.9610595703125
2.0687499,-19.668367385864258,1.292868971824646,-6.275202751159668,371.826171875,37.7044677734375,-184.051513671875
2.0712498999999998,-19.055450439453125,2.6001031398773193,-6.3733649253845215,367.401123046875,34.2864990234375,-185.7757568359375
2.0737499,-18.34437370300293,3.754108190536499,-6.45476770401001,359.832763671875,30.70068359375,-187.3321533203125
2.0762499,-17.573440551757812,4.707000732421875,-6.555324077606201,350.555419921875,27.2979736328125,-188.6444091796875
2.0787499,-16.785747528076172,5.432443618774414,-6.675034523010254,339.447021484375,24.4293212890625,-189.94140625
2.0812499,-16.024391174316406,5.935225963592529,-6.8162922859191895,327.57568359375,21.5911865234375,-190.582275390625
2.0837499,-15.301342964172363,6.229712963104248,-6.97430944442749,314.9871826171875,19.3023681640625,-190.643310546875
2.0862499,-14.633360862731934,6.3733649253845215,-7.127538681030273,301.3763427734375,17.4407958984375,-190.2008056640625
2.0887499,-14.030021667480469,6.414066314697266,-7.273584842681885,286.956787109375,15.350341796875,-189.666748046875
2.0912498999999998,-13.467384338378906,6.404489517211914,-7.4100542068481445,271.8963623046875,14.1448974609375,-188.9190673828125
2.0937499,-12.950237274169922,6.361393928527832,-7.532158374786377,256.3629150390625,12.9241943359375,-187.56103515625
2.0962499,-12.466608047485352,6.299144744873047,-7.649474620819092,240.4327392578125,11.871337890625,-186.553955078125
2.0987499,-11.994950294494629,6.203376770019531,-7.759607791900635,224.7161865234375,10.9710693359375,-185.5316162109375
2.1012499,-11.513715744018555,6.074089527130127,-7.869740962982178,209.3658447265625,10.3759765625,-184.4329833984375
2.1037499,-11.001357078552246,5.899312973022461,-7.975085735321045,194.0155029296875,9.9945068359375,-183.2275390625
2.1062499,-10.429142951965332,5.674258232116699,-8.073247909545898,179.2449951171875,9.7198486328125,-182.342529296875
2.1087499,-9.792284965515137,5.406107425689697,-8.164227485656738,164.7796630859375,9.21630859375,-180.633544921875
2.1112499,-9.08838939666748,5.073313236236572,-8.250418663024902,150.8331298828125,9.4451904296875,-179.5654296875
2.1137498999999997,-8.31985092163086,4.671087741851807,-8.324639320373535,137.7410888671875,9.7503662109375,-178.131103515625
2.1162499,-7.50582218170166,4.211400985717773,-8.394071578979492,125.762939453125,9.979248046875,-176.7425537109375
2.1187499,-6.660669326782227,3.7014358043670654,-8.451532363891602,114.288330078125,10.528564453125,-175.1708984375
2.1212499,-5.808333396911621,3.1723172664642334,-8.494627952575684,103.7139892578125,11.1541748046875,-173.828125
2.1237499,-4.965574264526367,2.626439332962036,-8.537723541259766,93.597412109375,11.71875,-172.4700927734375
2.1262499,-4.146757125854492,2.0685901641845703,-8.561665534973145,84.2132568359375,12.2222900390625,-170.8526611328125
2.1287499,-3.3686418533325195,1.479616641998291,-8.588001251220703,75.9124755859375,12.8021240234375,-169.1436767578125
2.1312499,-2.6144683361053467,0.8475474119186401,-8.592789649963379,68.6798095703125,13.458251953125,-167.1600341796875
2.1337498999999998,-1.8770540952682495,0.15562310814857483,-8.585607528686523,61.798095703125,13.85498046875,-165.10009765625
2.1362499,-1.1492167711257935,-0.5602431893348694,-8.571242332458496,56.365966796875,14.6026611328125,-162.7197265625
2.1387499,-0.43335050344467163,-1.3479355573654175,-8.523358345031738,51.7730712890625,15.2435302734375,-160.0494384765625
2.1412499,0.24899697303771973,-2.161964178085327,-8.461109161376953,47.8363037109375,16.1285400390625,-156.6619873046875
2.1437499,0.8834604024887085,-3.0095114707946777,-8.362946510314941,45.1812744140625,16.7388916015625,-153.3203125
2.1462499,1.4772224426269531,-3.864241600036621,-8.2312650680542,43.2281494140625,17.2119140625,-149.688720703125
2.1487499,2.0398597717285156,-4.668693542480469,-8.078036308288574,41.473388671875,17.9290771484375,-145.4925537109375
2.1512499,2.583343744277954,-5.370194435119629,-7.924807548522949,40.22216796875,18.9361572265625,-140.533447265625
2.1537498999999998,3.098097085952759,-5.932831764221191,-7.7883381843566895,38.9251708984375,20.4620361328125,-134.7198486328125
2.1562499,3.5697548389434814,-6.332663536071777,-7.6997528076171875,37.567138671875,22.1405029296875,-128.387451171875
2.1587499,3.9887399673461914,-6.531382083892822,-7.671022415161133,36.407470703125,23.7884521484375,-122.1771240234375
2.1612499,4.402936935424805,-6.651092529296875,-7.6782050132751465,34.4085693359375,26.3671875,-116.4703369140625
2.1637499,4.778826713562012,-6.63433313369751,-7.754819393157959,34.24072265625,29.2510986328125,-110.870361328125
2.1662499,5.147533416748047,-6.627150535583496,-7.826645374298096,33.538818359375,31.73828125,-105.0567626953125
2.1687499,5.475539207458496,-6.62236213684082,-7.929595947265625,35.0341796875,33.99658203125,-100.2655029296875
2.1712499,5.758055210113525,-6.651092529296875,-8.030152320861816,36.5753173828125,35.980224609375,-96.00830078125
2.1737499,6.007051944732666,-6.718130111694336,-8.106766700744629,38.4063720703125,38.3148193359375,-92.1173095703125
2.1762499,6.246472358703613,-6.818686485290527,-8.17141056060791,40.7257080078125,40.52734375,-88.43994140625
2.1787499,6.485892295837402,-6.926425457000732,-8.190564155578613,43.212890625,42.9840087890625,-85.418701171875
2.1812499,6.734889507293701,-7.082048416137695,-8.149862289428711,45.5169677734375,46.0357666015625,-82.8704833984375
2.1837499,7.010222434997559,-7.287950038909912,-8.073247909545898,49.2706298828125,49.0875244140625,-79.864501953125
2.1862499,7.307103633880615,-7.5632829666137695,-7.960720539093018,54.168701171875,52.276611328125,-77.0263671875
2.1887499,7.627926826477051,-7.922413349151611,-7.845798969268799,59.326171875,55.2978515625,-74.3865966796875
2.1912499,7.967903137207031,-8.327033042907715,-7.747636795043945,64.7735595703125,58.349609375,-71.9757080078125
2.1937499,8.329427719116211,-8.743624687194824,-7.6566572189331055,70.8770751953125,61.279296875,-69.51904296875
2.1962498999999998,8.710105895996094,-9.169792175292969,-7.556100368499756,77.33154296875,64.483642578125,-67.138671875
2.1987499,9.100360870361328,-9.591172218322754,-7.436390399932861,84.8236083984375,67.56591796875,-64.63623046875
2.2012499,9.481039047241211,-10.02691650390625,-7.273584842681885,92.83447265625,70.7244873046875,-61.8133544921875
2.2037499,9.828198432922363,-10.445901870727539,-7.103596210479736,102.11181640625,73.272705078125,-59.08203125
2.2062499,10.11789608001709,-10.845733642578125,-6.92881965637207,111.3739013671875,76.0040283203125,-56.488037109375
2.2087499,10.340557098388672,-11.195286750793457,-6.799532890319824,120.60546875,78.67431640625,-54.168701171875
2.2112499,10.488997459411621,-11.468226432800293,-6.7277069091796875,130.37109375,80.902099609375,-51.727294921875
2.2137499,10.560823440551758,-11.66455078125,-6.730101108551025,139.7705078125,82.8857421875,-49.5452880859375
2.2162498999999998,10.56800651550293,-11.767500877380371,-6.809109687805176,149.2156982421875,84.4268798828125,-47.149658203125
2.2187499,10.450690269470215,-11.688492774963379,-7.228095054626465,167.9840087890625,86.395263671875,-43.6859130859375
2.2212499,10.369287490844727,-11.528080940246582,-7.556100368499756,176.9256591796875,87.09716796875,-42.5567626953125
2.2237499,10.283096313476562,-11.314997673034668,-7.939172744750977,185.7757568359375,87.40234375,-41.8243408203125
2.2262499,10.20648193359375,-11.068394660949707,-8.358158111572266,194.2138671875,87.6617431640625,-41.351318359375
2.2287499,10.125079154968262,-10.807426452636719,-8.760383605957031,202.33154296875,87.188720703125,-41.0308837890625
2.2312499,10.034099578857422,-10.508151054382324,-9.129091262817383,209.442138671875,86.8072509765625,-41.32080078125
2.2337499,9.916783332824707,-10.17296314239502,-9.423578262329102,215.5303955078125,86.48681640625,-42.0074462890625
2.2362499,9.75637149810791,-9.782708168029785,-9.648633003234863,220.7489013671875,86.395263671875,-42.6788330078125
2.2387499,9.5624418258667,-9.346963882446289,-9.785101890563965,224.9755859375,86.212158203125,-43.9453125
2.2412499,9.334992408752441,-8.868123054504395,-9.861717224121094,228.2257080078125,86.181640625,-45.5322265625
2.2437499,9.08838939666748,-8.362946510314941,-9.883264541625977,230.5450439453125,86.1358642578125,-47.42431640625
2.2462499,8.853757858276367,-7.860164165496826,-9.856928825378418,231.842041015625,86.212158203125,-49.530029296875
2.2487499,8.65982723236084,-7.383718013763428,-9.799467086791992,232.36083984375,86.6851806640625,-52.154541015625
2.2512499,8.523358345031738,-6.988674640655518,-9.694122314453125,232.4066162109375,87.7227783203125,-54.62646484375
2.2537499,8.463502883911133,-6.689399719238281,-9.569623947143555,231.8878173828125,88.8824462890625,-57.464599609375
2.2562499,8.461109161376953,-6.485892295837402,-9.421183586120605,230.95703125,90.1031494140625,-60.6231689453125
2.2587498999999998,8.504204750061035,-6.368576526641846,-9.272743225097656,229.1259765625,91.6290283203125,-63.3087158203125
2.2612499,8.578424453735352,-6.291962146759033,-9.117119789123535,226.8218994140625,92.987060546875,-65.704345703125
2.2637499,8.681375503540039,-6.229712963104248,-8.96389102935791,224.1363525390625,94.6197509765625,-68.023681640625
2.2662499,8.815450668334961,-6.160281181335449,-8.822632789611816,220.6268310546875,96.282958984375,-70.2056884765625
2.2687499,8.990227699279785,-6.076483726501465,-8.678980827331543,216.5985107421875,98.32763671875,-72.32666015625
2.2712499,9.191340446472168,-5.9735331535339355,-8.537723541259766,212.09716796875,100.5401611328125,-74.5849609375
2.2737499,9.421183586120605,-5.863399982452393,-8.382100105285645,207.244873046875,102.996826171875,-76.3092041015625
2.2762499,9.653421401977539,-5.75326681137085,-8.20492935180664,201.8890380859375,105.3314208984375,-78.033447265625
2.2787498999999998,9.873687744140625,-5.647922039031982,-8.010998725891113,195.86181640625,107.513427734375,-79.58984375
2.2812499,10.077195167541504,-5.56173038482666,-7.802703380584717,189.7125244140625,109.3902587890625,-80.810546875
2.2837499,10.256759643554688,-5.494692802429199,-7.6111674308776855,183.6395263671875,111.5264892578125,-82.09228515625
2.2862499,10.412383079528809,-5.458779811859131,-7.4316020011901855,177.6885986328125,113.3270263671875,-83.343505859375
2.2887499,10.560823440551758,-5.43723201751709,-7.292738437652588,171.539306640625,114.92919921875,-84.381103515625
2.2912499,10.706870079040527,-5.434837818145752,-7.175422668457031,165.6951904296875,116.4093017578125,-85.4644775390625
2.2937499,10.867281913757324,-5.434837818145752,-7.086836814880371,160.1104736328125,117.6910400390625,-86.761474609375
2.2962499,11.027692794799805,-5.434837818145752,-7.0126166343688965,154.5257568359375,119.1558837890625,-87.6312255859375
2.2987499,11.168951034545898,-5.449203014373779,-6.955155849456787,148.9410400390625,120.66650390625,-88.3941650390625
2.3012499,11.259930610656738,-5.477933406829834,-6.907271862030029,143.585205078125,122.0245361328125,-88.9739990234375
2.3037499,11.276689529418945,-5.504269599914551,-6.88332986831665,138.2598876953125,123.260498046875,-89.1876220703125
2.3062499,11.21204662322998,-5.523423194885254,-6.866570472717285,132.8277587890625,123.8861083984375,-89.6453857421875
2.3087499,11.077971458435059,-5.494692802429199,-6.871358871459961,127.410888671875,124.5880126953125,-89.84375
2.3112499,10.891223907470703,-5.420472621917725,-6.904877662658691,121.856689453125,124.786376953125,-90.02685546875
2.3137499,10.678139686584473,-5.30076265335083,-6.943184852600098,116.180419921875,125,-90.4083251953125
2.3162499,10.450690269470215,-5.16429328918457,-7.000645637512207,110.7330322265625,125.0457763671875,-90.6982421875
2.3187499,10.228029251098633,-5.044582843780518,-7.053318023681641,105.3619384765625,125.0457763671875,-91.3543701171875
2.3212498999999998,10.012551307678223,-4.953603267669678,-7.091625213623047,100.7537841796875,124.908447265625,-92.071533203125
2.3237499,9.81143856048584,-4.891354084014893,-7.110779285430908,96.343994140625,124.93896484375,-92.6971435546875
2.3262499,9.62947940826416,-4.8602294921875,-7.096413612365723,92.132568359375,124.6795654296875,-93.3074951171875
2.3287499,9.452308654785156,-4.845864295959473,-7.053318023681641,88.37890625,124.57275390625,-94.1925048828125
2.3312499,9.284713745117188,-4.843470096588135,-6.97430944442749,85.0372314453125,124.2523193359375,-95.062255859375
2.3337499,9.121908187866211,-4.850652694702148,-6.868964672088623,81.634521484375,124.08447265625,-95.8404541015625
2.3362499,8.956708908081055,-4.876988887786865,-6.72531270980835,78.4912109375,123.565673828125,-96.4813232421875
2.3387499,8.791508674621582,-4.898536682128906,-6.562506675720215,75.2410888671875,123.5198974609375,-97.1221923828125
2.3412498999999998,8.621520042419434,-4.946420669555664,-6.354211330413818,72.5555419921875,123.4588623046875,-97.9766845703125
2.3437499,8.44434928894043,-4.991910457611084,-6.13633918762207,70.3125,123.0316162109375,-98.388671875
2.3462499,8.26478385925293,-5.0469770431518555,-5.894524574279785,68.17626953125,122.61962890625,-98.93798828125
2.3487499,8.085219383239746,-5.102043628692627,-5.652710437774658,66.1468505859375,122.1923828125,-99.456787109375
2.3512499,7.922413349151611,-5.17626428604126,-5.418078422546387,64.51416015625,121.734619140625,-99.9298095703125
2.3537499,7.778761386871338,-5.260061264038086,-5.2049946784973145,63.6444091796875,120.941162109375,-100.3570556640625
2.3562499,7.6782050132751465,-5.386953830718994,-5.013458251953125,63.201904296875,120.1934814453125,-100.52490234375
2.3587499,7.603984832763672,-5.566518783569336,-4.855441093444824,63.8885498046875,119.720458984375,-100.7843017578125
2.3612499,7.556100368499756,-5.78678560256958,-4.730942726135254,65.338134765625,118.6981201171875,-100.89111328125
2.3637499,7.503427982330322,-6.04775333404541,-4.627991676330566,67.0318603515625,117.7215576171875,-100.799560546875
2.3662499,7.436390399932861,-6.291962146759033,-4.546588897705078,69.0460205078125,116.6839599609375,-100.6011962890625
2.3687499,7.338228225708008,-6.495469093322754,-4.496310710906982,71.0296630859375,115.3717041015625,-100.2197265625
2.3712499,7.220912456512451,-6.62236213684082,-4.458003520965576,72.906494140625,113.9984130859375,-99.8382568359375
2.3737499,7.0988078117370605,-6.682217121124268,-4.4508209228515625,75.13427734375,112.79296875,-99.395751953125
2.3762499,6.979097843170166,-6.6846113204956055,-4.446032524108887,77.0416259765625,111.51123046875,-98.907470703125
2.3787499,6.892906665802002,-6.658275127410889,-4.443638324737549,78.9794921875,109.8175048828125,-98.297119140625
2.3812499,6.840234279632568,-6.617573261260986,-4.438849925994873,80.99365234375,108.8104248046875,-97.747802734375
2.3837498999999998,6.825869083404541,-6.586448669433594,-4.422090530395508,83.4808349609375,107.879638671875,-97.22900390625
2.3862499,6.842628479003906,-6.564900875091553,-4.405331134796143,86.029052734375,106.62841796875,-96.5576171875
2.3887499,6.878541469573975,-6.550535678863525,-4.367023944854736,88.68408203125,105.6365966796875,-96.19140625
2.3912499,6.916848659515381,-6.550535678863525,-4.321534156799316,91.4306640625,104.67529296875,-95.8251953125
2.3937499,6.955155849456787,-6.538564682006836,-4.244919776916504,93.7957763671875,103.485107421875,-94.970703125
2.3962499,6.998251438140869,-6.536170482635498,-4.146757125854492,95.8404541015625,101.9744873046875,-93.9788818359375
2.3987499,7.0341644287109375,-6.5050458908081055,-4.034229755401611,97.625732421875,100.76904296875,-93.170166015625
2.4012499,7.067683219909668,-6.471527099609375,-3.912125587463379,99.5635986328125,99.8077392578125,-92.1478271484375
2.4037498999999998,7.110779285430908,-6.406883716583252,-3.794809579849243,100.9674072265625,98.81591796875,-90.9881591796875
2.4062499,7.151480674743652,-6.327875137329102,-3.691859006881714,102.1270751953125,97.83935546875,-89.9505615234375
2.4087499,7.19936466217041,-6.224924564361572,-3.6152446269989014,102.84423828125,97.442626953125,-88.9892578125
2.4112499,7.252037048339844,-6.1052141189575195,-3.5745432376861572,103.179931640625,96.9085693359375,-87.9364013671875
2.4137499,7.304709434509277,-5.95677375793457,-3.5697548389434814,103.5003662109375,96.49658203125,-87.1124267578125
2.4162499,7.3454108238220215,-5.803544998168945,-3.584120035171509,103.1951904296875,96.00830078125,-86.2579345703125
2.4187499,7.378929615020752,-5.6455278396606445,-3.6080620288848877,102.325439453125,95.76416015625,-85.3271484375
2.4212499,7.400477409362793,-5.501875400543213,-3.6367924213409424,101.5472412109375,95.5657958984375,-84.625244140625
2.4237499,7.419631004333496,-5.3797712326049805,-3.6559460163116455,100.7080078125,94.879150390625,-83.831787109375
2.4262499,7.4316020011901855,-5.272032260894775,-3.687070608139038,99.5025634765625,94.7265625,-83.1298828125
2.4287499,7.546523571014404,-5.07570743560791,-3.773261785507202,96.19140625,94.6044921875,-82.3211669921875
2.4312499,7.647080421447754,-4.982333660125732,-3.8355112075805664,94.4671630859375,94.8638916015625,-81.787109375
2.4337499,7.773972988128662,-4.900930881500244,-3.8786067962646484,92.7276611328125,95.03173828125,-81.268310546875
2.4362499,7.884106159210205,-4.819528102874756,-3.909731388092041,90.5914306640625,95.52001953125,-80.810546875
2.4387499,7.977479934692383,-4.750096321105957,-3.892971992492676,87.921142578125,96.00830078125,-80.26123046875
2.4412499,8.030152320861816,-4.685452938079834,-3.8738183975219727,84.8388671875,96.710205078125,-79.7119140625
2.4437499,8.051700592041016,-4.623203277587891,-3.8091750144958496,82.122802734375,97.16796875,-79.2236328125
2.4462498999999998,8.070854187011719,-4.570530891418457,-3.7445313930511475,79.28466796875,97.869873046875,-78.61328125
2.4487499,8.08282470703125,-4.517858505249023,-3.670311212539673,75.9735107421875,98.6328125,-78.1097412109375
2.4512499,8.101978302001953,-4.46518611907959,-3.584120035171509,72.69287109375,99.6246337890625,-77.6214599609375
2.4537499,8.118738174438477,-4.410119533538818,-3.490746021270752,69.122314453125,100.250244140625,-77.2247314453125
2.4562499,8.128314971923828,-4.359841346740723,-3.3925838470458984,65.5975341796875,100.7080078125,-77.08740234375
2.4587499,8.125920295715332,-4.304774761199951,-3.2824504375457764,62.2406005859375,101.5472412109375,-76.7822265625
2.4612499,8.121131896972656,-4.24970817565918,-3.1866824626922607,58.7615966796875,102.203369140625,-76.6754150390625
2.4637499,8.090007781982422,-4.170699596405029,-3.0765492916107178,54.99267578125,102.7984619140625,-76.7974853515625
2.4662498999999998,8.051700592041016,-4.0964789390563965,-2.9712042808532715,50.872802734375,102.9205322265625,-77.0416259765625
2.4687499,8.008605003356934,-4.0294413566589355,-2.873042106628418,47.4395751953125,103.0731201171875,-77.2552490234375
2.4712499,7.955932140350342,-3.993528366088867,-2.765302896499634,44.6929931640625,103.363037109375,-77.2552490234375
2.4737499,7.929595947265625,-4.003105163574219,-2.671929121017456,42.0074462890625,103.1494140625,-77.63671875
2.4762499,7.90086555480957,-4.0294413566589355,-2.604891538619995,39.947509765625,102.9510498046875,-77.911376953125
2.4787499,7.884106159210205,-4.072536945343018,-2.5258827209472656,37.994384765625,102.630615234375,-78.0487060546875
2.4812499,7.869740962982178,-4.113238334655762,-2.4803929328918457,36.1175537109375,102.142333984375,-78.4759521484375
2.4837499,7.848193168640137,-4.1395745277404785,-2.4444799423217773,34.5458984375,101.50146484375,-78.6590576171875
2.4862499,7.82185697555542,-4.173093795776367,-2.3989901542663574,33.1573486328125,100.8758544921875,-78.91845703125
2.4887499,7.793126583099365,-4.2090067863464355,-2.387019157409668,32.1807861328125,99.5941162109375,-78.9642333984375
2.4912499,7.757213592529297,-4.261679172515869,-2.3367409706115723,31.524658203125,98.2513427734375,-78.9642333984375
2.4937499,7.718906402587891,-4.321534156799316,-2.300827741622925,31.341552734375,96.7864990234375,-78.8116455078125
2.4962499,7.68538761138916,-4.390965938568115,-2.2361843585968018,31.219482421875,95.1690673828125,-78.8421630859375
2.4987499,7.65186882019043,-4.4532151222229,-2.1595699787139893,31.3262939453125,93.658447265625,-78.7200927734375
2.5012499,7.623138427734375,-4.520252704620361,-2.075772762298584,31.6925048828125,91.766357421875,-78.460693359375
2.5037499,7.601590633392334,-4.572925090789795,-1.98958158493042,32.6385498046875,89.66064453125,-77.8961181640625
2.5062499,7.577648162841797,-4.623203277587891,-1.8938134908676147,33.4625244140625,87.82958984375,-77.6214599609375
2.5087498999999998,7.565677165985107,-4.656722068786621,-1.8052281141281128,34.423828125,85.44921875,-77.1636962890625
2.5112499,7.570465564727783,-4.687847137451172,-1.7094600200653076,35.491943359375,83.1146240234375,-76.4617919921875
2.5137499,7.587224960327148,-4.699818134307861,-1.6089035272598267,36.8804931640625,80.74951171875,-75.653076171875
2.5162499,7.637503623962402,-4.707000732421875,-1.5155296325683594,38.1011962890625,78.369140625,-74.76806640625
2.5187499,7.692570209503174,-4.6950297355651855,-1.4221558570861816,39.4134521484375,76.0955810546875,-73.6236572265625
2.5212499,7.750030994415283,-4.671087741851807,-1.3287819623947144,40.6646728515625,73.8372802734375,-72.1893310546875
2.5237499,7.805097579956055,-4.639962673187256,-1.237802267074585,41.5496826171875,71.2127685546875,-70.7855224609375
2.5262499,7.85537576675415,-4.606443881988525,-1.1420341730117798,42.694091796875,68.7255859375,-69.549560546875
2.5287498999999998,7.8960771560668945,-4.568136692047119,-1.0558429956436157,43.8385009765625,66.1773681640625,-68.1915283203125
2.5312499,7.931990146636963,-4.532223701477051,-0.9624691009521484,44.769287109375,63.6444091796875,-66.5130615234375
2.5337499,7.960720539093018,-4.484339714050293,-0.8810662031173706,45.6085205078125,61.1419677734375,-64.7430419921875
2.5362499,7.975085735321045,-4.41969633102417,-0.811634361743927,46.3714599609375,58.53271484375,-63.0645751953125
2.5387499,7.994239330291748,-4.355052947998047,-0.7493851184844971,46.6766357421875,55.84716796875,-61.4013671875
2.5412499,8.01339340209961,-4.268861770629883,-0.7158663272857666,47.332763671875,53.2989501953125,-59.814453125
2.5437499,8.037335395812988,-4.197035789489746,-0.689530074596405,47.821044921875,50.8270263671875,-58.258056640625
2.5462499,8.058882713317871,-4.122815132141113,-0.6847416758537292,48.4161376953125,48.5076904296875,-56.4727783203125
