# Time (seconds),Accel_X,Accel_Y,Accel_Z,Gyro_X,Gyro_Y,Gyro_Z
0.0012499,7.570465564727783,-6.064512729644775,1.900996208190918,36.865234375,-57.67822265625,-57.9986572265625
0.0037499,7.69735860824585,-6.224924564361572,2.0446481704711914,38.8031005859375,-57.3577880859375,-58.7005615234375
0.0062499,7.833827972412109,-6.428431510925293,2.164358377456665,40.8477783203125,-57.0220947265625,-58.8531494140625
0.0087499,7.960720539093018,-6.631938934326172,2.255337953567505,42.66357421875,-56.732177734375,-59.0057373046875
0.0112499,8.092401504516602,-6.777985095977783,2.3104045391082764,44.525146484375,-56.549072265625,-58.6395263671875
0.0137499,8.226476669311523,-6.861782073974609,2.300827741622925,46.0357666015625,-55.816650390625,-58.4716796875
0.016249899999999998,8.374917984008789,-6.897695064544678,2.2218191623687744,47.30224609375,-54.6875,-58.319091796875
0.0187499,8.530540466308594,-6.909666061401367,2.0685901641845703,49.163818359375,-53.3599853515625,-58.013916015625
0.021249900000000002,8.667010307312012,-6.916848659515381,1.8507179021835327,51.422119140625,-52.215576171875,-57.220458984375
0.023749899999999997,8.774748802185059,-6.909666061401367,1.6136919260025024,53.9703369140625,-51.055908203125,-56.640625
0.0262499,8.832210540771484,-6.861782073974609,1.3886369466781616,56.09130859375,-50.018310546875,-55.60302734375
0.028749900000000002,8.841787338256836,-6.768408298492432,1.2401964664459229,57.1441650390625,-48.7823486328125,-54.443359375
0.031249899999999997,8.801085472106934,-6.624756336212158,1.1851298809051514,57.9833984375,-47.9278564453125,-53.6651611328125
0.0337499,8.712499618530273,-6.466738700866699,1.2186486721038818,58.837890625,-47.1343994140625,-52.7496337890625
0.0362499,8.576030731201172,-6.320692539215088,1.3335703611373901,59.0362548828125,-45.8831787109375,-51.5594482421875
0.0387499,8.398859977722168,-6.172252178192139,1.4939818382263184,59.7991943359375,-45.6390380859375,-50.5218505859375
0.0412499,8.202534675598145,-6.007051944732666,1.678335428237915,60.48583984375,-45.745849609375,-49.407958984375
0.0437499,7.999027729034424,-5.8203043937683105,1.8602946996688843,59.967041015625,-45.6695556640625,-48.2635498046875
0.0462499,7.7883381843566895,-5.602431774139404,2.0159177780151367,59.08203125,-45.379638671875,-47.66845703125
0.0487499,7.580042362213135,-5.3127336502075195,2.1380221843719482,59.63134765625,-46.4019775390625,-47.3480224609375
0.0512499,7.374141216278076,-4.944026470184326,2.229001760482788,59.5703125,-47.9736328125,-47.1343994140625
0.053749899999999996,7.175422668457031,-4.49870491027832,2.2864625453948975,57.2357177734375,-49.6978759765625,-46.9970703125
0.0562499,7.022193431854248,-4.02465295791626,2.3558945655822754,54.6875,-51.116943359375,-47.210693359375
0.0587499,6.959944248199463,-3.5697548389434814,2.4468741416931152,53.9703369140625,-52.825927734375,-47.821044921875
0.061249899999999996,7.058106422424316,-3.1747114658355713,2.58813214302063,53.314208984375,-54.8858642578125,-48.4619140625
0.0637499,7.331045627593994,-2.873042106628418,2.7293899059295654,50.47607421875,-56.33544921875,-49.4842529296875
0.0662499,7.7763671875,-2.676717519760132,2.8179752826690674,47.9278564453125,-56.0302734375,-50.4913330078125
0.0687499,8.288725852966309,-2.6384103298187256,2.829946517944336,46.295166015625,-54.2755126953125,-51.483154296875
0.0712499,8.767566680908203,-2.80361008644104,2.7988216876983643,45.0592041015625,-52.398681640625,-51.300048828125
0.0737499,9.102754592895508,-3.1196448802948,2.7748796939849854,44.647216796875,-50.4913330078125,-50.9490966796875
0.0762499,9.244012832641602,-3.5410242080688477,2.82515811920166,44.86083984375,-48.52294921875,-50.323486328125
0.0787499,9.198522567749023,-3.9480385780334473,2.9257144927978516,45.0897216796875,-47.4090576171875,-49.4842529296875
0.0812499,9.026140213012695,-4.252102375030518,3.0190882682800293,46.2188720703125,-46.9818115234375,-48.4619140625
0.0837499,8.793902397155762,-4.4508209228515625,3.07415509223938,46.1883544921875,-45.989990234375,-47.1038818359375
0.0862499,8.549694061279297,-4.532223701477051,3.0789434909820557,45.8831787109375,-44.9981689453125,-45.654296875
0.0887499,8.336610794067383,-4.548983097076416,3.0550012588500977,46.4019775390625,-44.3572998046875,-44.61669921875
0.0912499,8.14028549194336,-4.51067590713501,3.043030261993408,47.454833984375,-44.2962646484375,-42.9534912109375
0.0937499,7.979874134063721,-4.424484729766846,3.07415509223938,48.004150390625,-44.830322265625,-41.168212890625
0.0962499,7.86734676361084,-4.266467571258545,3.1435868740081787,48.5992431640625,-45.1812744140625,-39.6575927734375
0.0987499,7.819462776184082,-4.039018154144287,3.24414324760437,48.5382080078125,-44.9981689453125,-39.154052734375
0.1012499,7.826645374298096,-3.7684733867645264,3.3518824577331543,47.515869140625,-44.3572998046875,-38.848876953125
0.1037499,7.891288757324219,-3.5051112174987793,3.4404678344726562,46.2188720703125,-43.4722900390625,-38.543701171875
0.1062499,7.977479934692383,-3.3063924312591553,3.5051112174987793,45.0439453125,-41.900634765625,-38.0706787109375
0.1087499,8.068459510803223,-3.224989652633667,3.533841609954834,44.769287109375,-40.6036376953125,-37.59765625
0.1112499,8.13789176940918,-3.270479440689087,3.5266590118408203,44.4488525390625,-39.337158203125,-36.9110107421875
0.1137499,8.142680168151855,-3.428496837615967,3.49314022064209,44.219970703125,-37.8265380859375,-36.5142822265625
0.1162499,8.066065788269043,-3.641580820083618,3.4524388313293457,44.9981689453125,-36.834716796875,-35.8734130859375
0.1187499,7.905653953552246,-3.8714241981506348,3.399766445159912,45.6695556640625,-36.1328125,-34.8052978515625
0.1212499,7.69735860824585,-4.067748546600342,3.3470940589904785,45.59326171875,-35.82763671875,-33.9813232421875
0.1237499,7.501033782958984,-4.20421838760376,3.3063924312591553,45.0897216796875,-36.102294921875,-33.3251953125
0.1262499,7.357381820678711,-4.2760443687438965,3.2752678394317627,45.379638671875,-36.5753173828125,-32.3944091796875
0.1287499,7.254431247711182,-4.268861770629883,3.272873640060425,45.4559326171875,-36.5447998046875,-31.3568115234375
0.1312499,7.223306655883789,-4.259284973144531,3.2968156337738037,44.921875,-36.712646484375,-30.6854248046875
0.1337499,7.230489253997803,-4.228160381317139,3.335123062133789,44.8760986328125,-37.3077392578125,-29.7698974609375
0.1362499,7.266402244567871,-4.2090067863464355,3.3638534545898438,44.4793701171875,-37.200927734375,-29.5562744140625
0.1387499,7.321468830108643,-4.213795185089111,3.3662476539611816,43.2586669921875,-36.6363525390625,-29.510498046875
0.1412499,7.364564418792725,-4.2329487800598145,3.3279404640197754,42.1600341796875,-36.2548828125,-29.23583984375
0.1437499,7.412448406219482,-4.314351558685303,3.246537446975708,41.9464111328125,-35.8428955078125,-28.533935546875
0.1462499,7.47230339050293,-4.477157115936279,3.112462282180786,42.6025390625,-34.3170166015625,-27.6641845703125
0.1487499,7.556100368499756,-4.716577529907227,2.9472622871398926,43.548583984375,-32.6080322265625,-26.9622802734375
0.1512499,7.630321025848389,-4.982333660125732,2.765302896499634,44.5098876953125,-31.2957763671875,-26.4434814453125
0.1537499,7.666234016418457,-5.212177276611328,2.5929205417633057,45.562744140625,-30.3497314453125,-25.9246826171875
0.1562499,7.642292022705078,-5.365406036376953,2.4444799423217773,46.234130859375,-29.72412109375,-25.543212890625
0.1587499,7.575253963470459,-5.418078422546387,2.3080103397369385,46.600341796875,-29.205322265625,-24.688720703125
0.1612499,7.481880187988281,-5.389348030090332,2.164358377456665,47.0733642578125,-28.8543701171875,-23.86474609375
0.1637499,7.386112213134766,-5.348646640777588,1.9967641830444336,46.5087890625,-28.2440185546875,-23.529052734375
0.1662499,7.307103633880615,-5.4252610206604,1.802833914756775,45.5322265625,-26.9317626953125,-23.62060546875
0.1687499,7.2568254470825195,-5.746084213256836,1.6089035272598267,46.142578125,-25.9857177734375,-23.7579345703125
0.1712499,7.232883453369141,-6.270414352416992,1.4676456451416016,50.7659912109375,-25.543212890625,-23.6358642578125
0.1737499,7.201758861541748,-6.840234279632568,1.4532804489135742,57.92236328125,-23.8800048828125,-23.62060546875
0.17624990000000001,7.15387487411499,-7.232883453369141,1.6089035272598267,62.56103515625,-22.216796875,-22.9644775390625
0.1787499,7.070077419281006,-7.252037048339844,1.920149803161621,64.5599365234375,-21.8048095703125,-22.369384765625
0.1812499,6.971915245056152,-6.912060260772705,2.319981336593628,64.8345947265625,-20.9503173828125,-22.918701171875
0.1837499,6.89530086517334,-6.361393928527832,2.7126305103302,63.4613037109375,-19.95849609375,-23.4222412109375
0.1862499,6.866570472717285,-5.808333396911621,3.0166940689086914,61.065673828125,-19.3023681640625,-23.773193359375
0.1887499,6.878541469573975,-5.415684223175049,3.1962592601776123,59.8602294921875,-18.9056396484375,-23.8189697265625
0.1912499,6.919242858886719,-5.2696380615234375,3.2537200450897217,59.7686767578125,-18.1121826171875,-23.62060546875
0.1937499,6.962338447570801,-5.341464042663574,3.203441858291626,59.8297119140625,-17.364501953125,-23.5595703125
0.1962499,6.9910688400268555,-5.52821159362793,3.07415509223938,60.6842041015625,-16.4337158203125,-22.9644775390625
0.1987499,6.988674640655518,-5.714959621429443,2.9017724990844727,61.3861083984375,-15.533447265625,-22.39990234375
0.2012499,6.962338447570801,-5.801150798797607,2.7246015071868896,61.46240234375,-14.8468017578125,-22.003173828125
0.2037499,6.904877662658691,-5.7125654220581055,2.5522189140319824,61.09619140625,-14.2974853515625,-21.453857421875
0.2062499,6.8378400802612305,-5.463568210601807,2.4229321479797363,59.99755859375,-13.9312744140625,-21.2249755859375
0.20874990000000002,6.761225700378418,-5.102043628692627,2.3367409706115723,58.441162109375,-13.458251953125,-21.392822265625
0.2112499,6.694188117980957,-4.6950297355651855,2.3056161403656006,57.1136474609375,-12.8173828125,-21.6217041015625
0.2137499,6.615179061889648,-4.3191399574279785,2.3104045391082764,55.633544921875,-12.14599609375,-21.759033203125
0.2162499,6.524199485778809,-3.998316764831543,2.3319525718688965,53.6956787109375,-11.749267578125,-22.4151611328125
0.2187499,6.433219909667969,-3.732560396194458,2.3558945655822754,51.6357421875,-11.5509033203125,-23.4527587890625
0.2212499,6.347028732299805,-3.507505416870117,2.3726539611816406,49.3927001953125,-11.3372802734375,-24.1851806640625
0.2237499,6.2847795486450195,-3.315969467163086,2.389413356781006,46.4630126953125,-11.0626220703125,-25.1617431640625
0.2262499,6.251260757446289,-3.1531636714935303,2.406172752380371,43.5333251953125,-10.92529296875,-26.0467529296875
0.2287499,6.234501361846924,-3.0142998695373535,2.4181437492370605,40.374755859375,-10.833740234375,-26.79443359375
0.2312499,6.232107162475586,-2.9017724990844727,2.4133553504943848,36.834716796875,-11.1236572265625,-27.7252197265625
0.2337499,6.258443355560303,-2.80361008644104,2.387019157409668,32.806396484375,-11.4288330078125,-28.5186767578125
0.2362499,6.313509941101074,-2.736572504043579,2.3487119674682617,28.62548828125,-11.505126953125,-29.0679931640625
0.23874990000000001,6.3973069190979,-2.7126305103302,2.3080103397369385,24.10888671875,-11.138916015625,-29.5867919921875
0.2412499,6.507440090179443,-2.784456491470337,2.293645143508911,19.9432373046875,-10.6048583984375,-30.1513671875
0.2437499,6.5696892738342285,-2.9664158821105957,2.31758713722229,16.4031982421875,-10.3759765625,-30.7769775390625
0.2462499,6.63433313369751,-3.112462282180786,2.3295583724975586,14.8468017578125,-10.1318359375,-30.6854248046875
0.2487499,6.655880928039551,-3.179499864578247,2.3511061668395996,12.9547119140625,-9.6435546875,-29.47998046875
0.2512499,6.675034523010254,-2.980781078338623,2.360682964324951,8.8348388671875,-9.124755859375,-29.7393798828125
0.25374990000000003,6.7277069091796875,-2.693476915359497,2.365471363067627,1.7547607421875,-9.7198486328125,-30.3497314453125
0.25624990000000003,6.797138690948486,-2.4396915435791016,2.389413356781006,-4.608154296875,-9.7198486328125,-30.57861328125
0.25874990000000003,6.885724067687988,-2.3511061668395996,2.4133553504943848,-6.16455078125,-9.429931640625,-31.2042236328125
0.26124990000000003,6.988674640655518,-2.432508945465088,2.427720546722412,-6.317138671875,-9.124755859375,-31.3873291015625
0.26374990000000004,7.082048416137695,-2.516305923461914,2.4420857429504395,-7.7362060546875,-8.7890625,-31.6162109375
0.26624990000000004,7.156269073486328,-2.516305923461914,2.4684219360351562,-10.4827880859375,-8.4686279296875,-32.40966796875
0.26874990000000004,7.216124057769775,-2.4181437492370605,2.5043349266052246,-13.61083984375,-8.3160400390625,-33.3251953125
0.27124990000000004,7.266402244567871,-2.298433542251587,2.5546131134033203,-16.571044921875,-8.4381103515625,-33.8592529296875
0.27374990000000005,7.3238630294799805,-2.233790159225464,2.609679937362671,-19.073486328125,-8.4381103515625,-34.698486328125
0.27624990000000005,7.400477409362793,-2.298433542251587,2.6599581241607666,-20.93505859375,-8.2855224609375,-35.308837890625
0.27874990000000005,7.491456985473633,-2.492363929748535,2.7054479122161865,-22.2625732421875,-8.3160400390625,-35.7208251953125
0.28124990000000005,7.589619159698486,-2.8107926845550537,2.7317841053009033,-22.5982666015625,-7.7667236328125,-36.224365234375
0.28374990000000005,7.68538761138916,-3.1890766620635986,2.734178304672241,-21.697998046875,-7.110595703125,-36.224365234375
0.28624990000000006,7.778761386871338,-3.5649664402008057,2.693476915359497,-20.233154296875,-6.927490234375,-36.07177734375
0.28874990000000006,7.8745293617248535,-3.892971992492676,2.6168625354766846,-18.890380859375,-6.2408447265625,-36.346435546875
0.2912499,7.972691535949707,-4.158728122711182,2.5043349266052246,-17.425537109375,-5.523681640625,-36.3006591796875
0.2937499,8.066065788269043,-4.393360137939453,2.3726539611816406,-15.3045654296875,-4.9591064453125,-36.0260009765625
0.2962499,8.149862289428711,-4.613626480102539,2.2409727573394775,-12.4053955078125,-4.4403076171875,-35.9344482421875
0.2987499,8.219294548034668,-4.831499099731445,2.1164743900299072,-8.7127685546875,-3.997802734375,-35.369873046875
0.3012499,8.276755332946777,-5.039794445037842,2.006340980529785,-4.69970703125,-3.5247802734375,-34.6527099609375
0.3037499,8.317456245422363,-5.20978307723999,1.9129672050476074,-0.701904296875,-2.8533935546875,-34.149169921875
0.3062499,8.348581314086914,-5.341464042663574,1.843535304069519,3.6773681640625,-2.2125244140625,-33.4930419921875
0.3087499,8.360552787780762,-5.418078422546387,1.7980455160140991,8.1939697265625,-1.52587890625,-32.8826904296875
0.3112499,8.348581314086914,-5.434837818145752,1.7908629179000854,12.87841796875,-0.762939453125,-32.5775146484375
0.3137499,8.305485725402832,-5.389348030090332,1.8195933103561401,17.5628662109375,-0.3204345703125,-32.1197509765625
0.31624990000000003,8.245630264282227,-5.281609058380127,1.8746598958969116,21.881103515625,0.091552734375,-31.982421875
0.31874990000000003,8.190564155578613,-5.12119722366333,1.9321208000183105,25.9246826171875,-0.0152587890625,-31.92138671875
0.32124990000000003,8.159439086914062,-4.917690277099609,1.9728221893310547,29.8309326171875,0.1220703125,-31.73828125
0.32374990000000003,8.169015884399414,-4.687847137451172,1.987187385559082,33.3251953125,0.244140625,-31.8145751953125
0.32624990000000004,8.212111473083496,-4.458003520965576,1.9608511924743652,36.163330078125,0.457763671875,-31.79931640625
0.32874990000000004,8.279149055480957,-4.247313976287842,1.9081788063049316,38.75732421875,0.579833984375,-32.1197509765625
0.33124990000000004,8.35097599029541,-4.077325344085693,1.8267759084701538,41.1529541015625,0.701904296875,-32.16552734375
0.33374990000000004,8.415618896484375,-3.9480385780334473,1.7310078144073486,43.4417724609375,0.8087158203125,-32.073974609375
0.33624990000000005,8.458714485168457,-3.8498764038085938,1.6543933153152466,45.562744140625,1.129150390625,-31.890869140625
0.33874990000000005,8.482656478881836,-3.7684733867645264,1.6065093278884888,46.844482421875,1.2969970703125,-31.8603515625
0.34124990000000005,8.497021675109863,-3.6822822093963623,1.6112977266311646,48.3245849609375,1.1138916015625,-31.524658203125
0.34374990000000005,8.506598472595215,-3.579331636428833,1.656787633895874,49.041748046875,0.79345703125,-31.280517578125
0.34624990000000005,8.53293514251709,-3.445256233215332,1.723825216293335,49.7283935546875,0.7171630859375,-30.975341796875
0.34874990000000006,8.571242332458496,-3.270479440689087,1.800439715385437,50.018310546875,0.4425048828125,-30.4107666015625
0.35124990000000006,8.631096839904785,-3.0526070594787598,1.8626888990402222,50.018310546875,0.213623046875,-30.303955078125
0.3537499,8.702922821044922,-2.80361008644104,1.9081788063049316,49.6673583984375,-0.3204345703125,-30.181884765625
0.3562499,8.793902397155762,-2.540247917175293,1.9273324012756348,49.3011474609375,-0.79345703125,-29.9072265625
0.3587499,8.887276649475098,-2.274491548538208,1.9321208000183105,48.27880859375,-1.251220703125,-29.84619140625
0.3612499,8.990227699279785,-2.0183119773864746,1.922544002532959,47.027587890625,-1.708984375,-29.78515625
0.3637499,9.100360870361328,-1.7741034030914307,1.9105730056762695,45.6695556640625,-1.9378662109375,-29.6478271484375
0.3662499,9.217676162719727,-1.5634137392044067,1.8986018896102905,44.0521240234375,-2.0599365234375,-29.7698974609375
0.3687499,9.354146003723145,-1.3886369466781616,1.886630892753601,42.083740234375,-2.3040771484375,-29.8004150390625
0.3712499,9.500192642211914,-1.2713210582733154,1.8794482946395874,40.252685546875,-2.6397705078125,-29.7393798828125
0.3737499,9.641449928283691,-1.1994950771331787,1.8818424940109253,38.4063720703125,-3.0364990234375,-29.2816162109375
0.3762499,9.75637149810791,-1.1563993692398071,1.9105730056762695,36.2396240234375,-3.265380859375,-28.900146484375
0.37874990000000003,9.837775230407715,-1.1204863786697388,1.9776105880737305,33.721923828125,-3.4637451171875,-28.5186767578125
0.38124990000000003,9.9000244140625,-1.0773907899856567,2.0829553604125977,30.7159423828125,-3.96728515625,-27.557373046875
0.38374990000000003,9.96945571899414,-1.0295066833496094,2.207453966140747,27.679443359375,-4.2877197265625,-26.7791748046875
0.38624990000000003,10.067618370056152,-0.9983820915222168,2.33913516998291,25.146484375,-4.547119140625,-26.3671875
0.38874990000000004,10.201693534851074,-0.9744400978088379,2.456450939178467,22.5982666015625,-4.5928955078125,-25.390625
0.39124990000000004,10.481815338134766,-0.9648633003234863,2.5977089405059814,17.88330078125,-3.9215087890625,-23.2086181640625
0.39374990000000004,10.481815338134766,-0.9648633003234863,2.5977089405059814,17.88330078125,-3.9215087890625,-23.2086181640625
0.39624990000000004,10.632649421691895,-0.9433154463768005,2.5282769203186035,13.763427734375,-3.7689208984375,-21.270751953125
0.39874990000000005,10.632649421691895,-0.9433154463768005,2.5282769203186035,13.763427734375,-3.7689208984375,-21.270751953125
0.40124990000000005,10.647014617919922,-0.9313444495201111,2.3319525718688965,10.07080078125,-4.180908203125,-19.775390625
0.40374990000000005,10.647014617919922,-0.9313444495201111,2.3319525718688965,10.07080078125,-4.180908203125,-19.775390625
0.40624990000000005,10.594342231750488,-0.9768342971801758,2.2864625453948975,7.2784423828125,-4.6539306640625,-18.402099609375
0.40874990000000005,10.594342231750488,-0.9768342971801758,2.2864625453948975,7.2784423828125,-4.6539306640625,-18.402099609375
0.41124990000000006,10.532093048095703,-1.0271124839782715,2.4899697303771973,4.4097900390625,-5.126953125,-17.02880859375
0.41374990000000006,10.532093048095703,-1.0271124839782715,2.4899697303771973,4.4097900390625,-5.126953125,-17.02880859375
0.41624990000000006,10.539276123046875,-1.0893617868423462,2.7940332889556885,1.9378662109375,-5.279541015625,-16.1590576171875
0.4187499,10.539276123046875,-1.0893617868423462,2.7940332889556885,1.9378662109375,-5.279541015625,-16.1590576171875
0.4212499,10.596736907958984,-1.3503297567367554,3.021482467651367,0.8392333984375,-4.7760009765625,-16.4947509765625
0.4237499,10.596736907958984,-1.3503297567367554,3.021482467651367,0.8392333984375,-4.7760009765625,-16.4947509765625
0.4262499,10.608707427978516,-1.9369091987609863,3.1196448802948,3.90625,-3.8604736328125,-17.486572265625
0.4287499,10.608707427978516,-1.9369091987609863,3.1196448802948,3.90625,-3.8604736328125,-17.486572265625
0.4312499,10.584765434265137,-2.5953147411346436,3.160346269607544,7.080078125,-3.60107421875,-17.822265625
0.4337499,10.584765434265137,-2.5953147411346436,3.160346269607544,7.080078125,-3.60107421875,-17.822265625
0.4362499,10.606313705444336,-3.0621838569641113,3.19865345954895,10.650634765625,-2.86865234375,-18.157958984375
0.4387499,10.606313705444336,-3.0621838569641113,3.19865345954895,10.650634765625,-2.86865234375,-18.157958984375
0.44124990000000003,10.623072624206543,-3.3279404640197754,3.308786630630493,14.6636962890625,-1.8463134765625,-18.463134765625
0.44374990000000003,10.623072624206543,-3.3279404640197754,3.308786630630493,14.6636962890625,-1.8463134765625,-18.463134765625
0.44624990000000003,10.613495826721191,-3.428496837615967,3.5170822143554688,18.1427001953125,-1.0528564453125,-18.98193359375
0.44874990000000003,10.613495826721191,-3.428496837615967,3.5170822143554688,18.1427001953125,-1.0528564453125,-18.98193359375
0.45124990000000004,10.651803016662598,-3.4524388313293457,3.6966474056243896,21.05712890625,-0.457763671875,-19.6380615234375
0.45374990000000004,10.651803016662598,-3.4524388313293457,3.6966474056243896,21.05712890625,-0.457763671875,-19.6380615234375
0.45624990000000004,10.716446876525879,-3.4524388313293457,3.7397429943084717,23.25439453125,0.6866455078125,-19.3939208984375
0.45874990000000004,10.716446876525879,-3.4524388313293457,3.7397429943084717,23.25439453125,0.6866455078125,-19.3939208984375
0.46124990000000005,10.759542465209961,-3.3494882583618164,3.6343982219696045,24.871826171875,1.28173828125,-19.2718505859375
0.46374990000000005,10.759542465209961,-3.3494882583618164,3.6343982219696045,24.871826171875,1.28173828125,-19.2718505859375
0.46624990000000005,10.802638053894043,-3.157952070236206,3.485957622528076,24.810791015625,2.2125244140625,-18.6614990234375
0.46874990000000005,10.802638053894043,-3.157952070236206,3.485957622528076,24.810791015625,2.2125244140625,-18.6614990234375
0.47124990000000005,10.809821128845215,-3.026270866394043,3.3686418533325195,23.86474609375,3.173828125,-17.9595947265625
0.47374990000000006,10.809821128845215,-3.026270866394043,3.3686418533325195,23.86474609375,3.173828125,-17.9595947265625
0.47624990000000006,10.706870079040527,-2.942473888397217,3.315969467163086,23.13232421875,3.3416748046875,-16.7083740234375
0.47874990000000006,10.706870079040527,-2.942473888397217,3.315969467163086,23.13232421875,3.3416748046875,-16.7083740234375
0.4812499,10.541669845581055,-2.75812029838562,3.3470940589904785,21.4996337890625,3.1890869140625,-15.4266357421875
0.4837499,10.541669845581055,-2.75812029838562,3.3470940589904785,21.4996337890625,3.1890869140625,-15.4266357421875
0.4862499,10.409989356994629,-2.451662540435791,3.442862033843994,18.829345703125,2.99072265625,-14.3585205078125
0.4887499,10.409989356994629,-2.451662540435791,3.442862033843994,18.829345703125,2.99072265625,-14.3585205078125
0.4912499,10.287884712219238,-2.1571757793426514,3.533841609954834,15.6707763671875,2.655029296875,-13.4429931640625
0.4937499,10.287884712219238,-2.1571757793426514,3.533841609954834,15.6707763671875,2.655029296875,-13.4429931640625
0.4962499,10.170568466186523,-1.9704279899597168,3.536235809326172,11.7034912109375,2.5482177734375,-12.420654296875
0.4987499,10.170568466186523,-1.9704279899597168,3.536235809326172,11.7034912109375,2.5482177734375,-12.420654296875
0.5012499,10.077195167541504,-1.900996208190918,3.421314239501953,7.4005126953125,2.838134765625,-11.383056640625
0.5037499000000001,10.014945983886719,-1.8842366933822632,3.3470940589904785,5.5389404296875,2.5634765625,-11.0321044921875
0.5062499,9.947908401489258,-1.8579005002975464,3.2776620388031006,3.2196044921875,2.4871826171875,-10.3759765625
0.5087499000000001,9.880870819091797,-1.8148049116134644,3.2178070545196533,0.579833984375,2.01416015625,-9.9029541015625
0.5112499,9.828198432922363,-1.7717092037200928,3.162740468978882,-2.01416015625,1.4495849609375,-9.521484375
0.5137499,9.787496566772461,-1.745373010635376,3.1220390796661377,-4.5166015625,1.434326171875,-9.0484619140625
0.5162499,9.751583099365234,-1.764526605606079,3.093308687210083,-6.4544677734375,1.40380859375,-8.392333984375
0.5187499,9.701305389404297,-1.8339585065841675,3.0837318897247314,-8.5906982421875,0.9613037109375,-7.9803466796875
0.5212499,9.639056205749512,-1.9321208000183105,3.0861260890960693,-10.7421875,0.42724609375,-7.476806640625
0.5237499,9.57441234588623,-2.0446481704711914,3.095702886581421,-12.3443603515625,-0.030517578125,-6.6375732421875
0.5262499,9.521739959716797,-2.140416383743286,3.090914487838745,-13.9923095703125,-0.4730224609375,-5.8135986328125
0.5287499,9.490615844726562,-2.2170307636260986,3.069366693496704,-15.8843994140625,-0.885009765625,-5.0201416015625
0.5312499,9.48343276977539,-2.2840683460235596,3.0190882682800293,-17.6544189453125,-1.068115234375,-4.2877197265625
0.5337499,9.48343276977539,-2.3558945655822754,2.9520506858825684,-18.829345703125,-1.129150390625,-3.7384033203125
0.5362499000000001,9.466673851013184,-2.449268341064453,2.87064790725708,-20.1263427734375,-1.40380859375,-3.11279296875
0.5387499,9.423578262329102,-2.559401512145996,2.801215887069702,-21.30126953125,-1.9989013671875,-2.5634765625
0.5412499000000001,9.35654067993164,-2.676717519760132,2.741360902786255,-22.064208984375,-2.38037109375,-1.678466796875
0.5437499,9.282320022583008,-2.782062292098999,2.7006595134735107,-22.4151611328125,-2.8076171875,-0.946044921875
0.5462499000000001,9.215282440185547,-2.8658595085144043,2.6815059185028076,-22.979736328125,-3.1890869140625,-0.3509521484375
0.5487499,9.167398452758789,-2.920926094055176,2.6623523235321045,-23.8189697265625,-3.448486328125,0.274658203125
0.5512499000000001,9.136273384094238,-2.964021682739258,2.6455929279327393,-24.0478515625,-3.7841796875,0.8697509765625
0.5537499,9.11233139038086,-2.9903578758239746,2.63362193107605,-24.0478515625,-4.1351318359375,1.2359619140625
0.5562499000000001,9.095572471618652,-3.0190882682800293,2.6168625354766846,-23.8189697265625,-4.4708251953125,1.64794921875
0.5587499,9.078812599182129,-3.0334534645080566,2.609679937362671,-23.6663818359375,-4.730224609375,1.9683837890625
0.5612499000000001,9.069235801696777,-3.045424461364746,2.6001031398773193,-22.94921875,-5.3558349609375,2.166748046875
0.5637499,9.059659004211426,-3.0406360626220703,2.583343744277954,-22.705078125,-5.55419921875,2.471923828125
0.5662499000000001,9.05247688293457,-3.043030261993408,2.564189910888672,-22.369384765625,-5.5999755859375,2.62451171875
0.5687499,9.05247688293457,-3.0406360626220703,2.540247917175293,-21.97265625,-5.950927734375,2.8839111328125
0.5712499000000001,9.05487060546875,-3.0382418632507324,2.518700122833252,-21.3165283203125,-6.195068359375,3.3416748046875
0.5737499,9.066842079162598,-3.0358476638793945,2.5067291259765625,-20.5078125,-6.6680908203125,3.5858154296875
0.5762499000000001,9.083600997924805,-3.021482467651367,2.499546527862549,-19.9737548828125,-6.744384765625,3.997802734375
0.5787499,9.105149269104004,-2.9927520751953125,2.492363929748535,-19.683837890625,-7.01904296875,4.2724609375
0.5812499,9.124302864074707,-2.942473888397217,2.4899697303771973,-19.134521484375,-7.1563720703125,4.638671875
0.5837499,9.129091262817383,-2.8586769104003906,2.4851813316345215,-18.768310546875,-7.3394775390625,5.18798828125
0.5862499,9.114726066589355,-2.7533318996429443,2.477998733520508,-18.6004638671875,-7.5225830078125,5.279541015625
0.5887499,9.0859956741333,-2.628833532333374,2.473210334777832,-18.707275390625,-7.75146484375,5.2947998046875
0.5912499,9.045293807983398,-2.497152328491211,2.4660277366638184,-18.6309814453125,-8.148193359375,5.3253173828125
0.5937499,9.004592895507812,-2.382230758666992,2.4588451385498047,-18.7225341796875,-8.453369140625,5.584716796875
0.5962499,8.973467826843262,-2.2888567447662354,2.4396915435791016,-19.1497802734375,-8.7890625,5.7830810546875
0.5987499000000001,8.959102630615234,-2.2242133617401123,2.4229321479797363,-19.53125,-9.2926025390625,5.6915283203125
0.6012499,8.96389102935791,-2.1954829692840576,2.4157495498657227,-19.6380615234375,-9.490966796875,5.523681640625
0.6037499000000001,8.975862503051758,-2.1930887699127197,2.425326347351074,-19.6990966796875,-10.0250244140625,5.79833984375
0.6062499,8.995016098022461,-2.2146365642547607,2.451662540435791,-19.8516845703125,-10.3759765625,5.67626953125
0.6087499000000001,9.01895809173584,-2.248155355453491,2.4827871322631836,-19.9127197265625,-10.772705078125,5.79833984375
0.6112499,9.050082206726074,-2.279279947280884,2.5067291259765625,-19.866943359375,-10.8489990234375,5.8441162109375
0.6137499000000001,9.07641887664795,-2.3104045391082764,2.5091233253479004,-19.5465087890625,-11.04736328125,5.859375
0.6162499,9.095572471618652,-2.31758713722229,2.513911724090576,-18.98193359375,-11.3372802734375,6.011962890625
0.6187499000000001,9.095572471618652,-2.296039342880249,2.516305923461914,-18.7530517578125,-11.6729736328125,6.103515625
0.6212499,9.081207275390625,-2.250549554824829,2.5234885215759277,-18.6920166015625,-12.0086669921875,6.072998046875
0.6237499000000001,9.062053680419922,-2.183511972427368,2.5282769203186035,-18.9056396484375,-12.237548828125,6.011962890625
0.6262499,9.059659004211426,-2.1332337856292725,2.5234885215759277,-19.012451171875,-12.4664306640625,5.7373046875
0.6287499000000001,9.062053680419922,-2.1092917919158936,2.513911724090576,-18.7225341796875,-12.4969482421875,5.4473876953125
0.6312499,9.078812599182129,-2.123656988143921,2.5019407272338867,-18.310546875,-12.8173828125,5.2642822265625
0.6337499000000001,9.095572471618652,-2.1571757793426514,2.5091233253479004,-17.88330078125,-12.7716064453125,5.157470703125
0.6362499,9.100360870361328,-2.185906171798706,2.5282769203186035,-17.730712890625,-12.8326416015625,4.8828125
0.6387499000000001,9.100360870361328,-2.1930887699127197,2.557007312774658,-17.730712890625,-13.275146484375,4.9285888671875
0.6412499,9.097966194152832,-2.1787235736846924,2.5929205417633057,-17.76123046875,-13.8092041015625,4.486083984375
0.6437499,9.105149269104004,-2.1475989818573,2.6240451335906982,-18.00537109375,-14.1448974609375,4.364013671875
0.6462499,9.126696586608887,-2.118868589401245,2.647987127304077,-18.341064453125,-14.0838623046875,4.21142578125
0.6487499,9.165003776550293,-2.099714994430542,2.6647465229034424,-18.6614990234375,-14.0380859375,3.662109375
0.6512499,9.2033109664917,-2.0853497982025146,2.6647465229034424,-18.7225341796875,-14.1143798828125,3.5552978515625
0.6537499,9.241618156433105,-2.0638017654418945,2.6575639247894287,-18.5546875,-14.4500732421875,3.5247802734375
0.6562499,9.272743225097656,-2.0254945755004883,2.647987127304077,-18.9056396484375,-14.5721435546875,3.2501220703125
0.6587499,9.296685218811035,-1.9488801956176758,2.631227731704712,-19.3939208984375,-14.434814453125,2.5482177734375
0.6612499000000001,9.332598686218262,-1.843535304069519,2.6168625354766846,-20.111083984375,-14.4500732421875,2.105712890625
0.6637499,9.373299598693848,-1.723825216293335,2.604891538619995,-20.56884765625,-14.5721435546875,1.3885498046875
0.6662499000000001,9.421183586120605,-1.6041151285171509,2.604891538619995,-21.30126953125,-14.5263671875,0.7171630859375
0.6687499,9.490615844726562,-1.4963760375976562,2.612074136734009,-21.8658447265625,-14.46533203125,0.091552734375
0.6712499000000001,9.557653427124023,-1.41257905960083,2.6360161304473877,-22.4609375,-14.0533447265625,-0.6866455078125
0.6737499,9.62947940826416,-1.3551181554794312,2.6647465229034424,-23.25439453125,-13.8702392578125,-1.64794921875
0.6762499000000001,9.694122314453125,-1.338358759880066,2.715024709701538,-23.86474609375,-13.671875,-2.5177001953125
0.6787499,9.751583099365234,-1.3670891523361206,2.782062292098999,-24.4140625,-13.48876953125,-3.204345703125
0.6812499000000001,9.801861763000488,-1.4317326545715332,2.8610711097717285,-24.71923828125,-13.36669921875,-3.6468505859375
0.6837499,9.859322547912598,-1.525106430053711,2.942473888397217,-24.627685546875,-13.1988525390625,-4.1351318359375
0.6862499000000001,9.926360130310059,-1.623268723487854,3.0142998695373535,-24.5819091796875,-12.6495361328125,-4.7454833984375
0.6887499,10.005369186401367,-1.7142484188079834,3.0573954582214355,-24.1546630859375,-12.0849609375,-5.2032470703125
0.6912499000000001,10.091560363769531,-1.7932571172714233,3.0837318897247314,-23.6968994140625,-11.3372802734375,-5.7830810546875
0.6937499,10.17296314239502,-1.8626888990402222,3.0813376903533936,-23.223876953125,-10.5133056640625,-6.256103515625
0.6962499000000001,10.244789123535156,-1.9369091987609863,3.0621838569641113,-22.5067138671875,-9.9029541015625,-6.5460205078125
0.6987499,10.295066833496094,-2.0183119773864746,3.028665065765381,-21.8048095703125,-8.9569091796875,-6.7138671875
0.7012499000000001,10.319009780883789,-2.1164743900299072,2.999934673309326,-20.8892822265625,-8.2244873046875,-6.6680908203125
0.7037499,10.321403503417969,-2.2146365642547607,2.9688100814819336,-19.8822021484375,-7.3394775390625,-6.744384765625
0.7062499,10.29746150970459,-2.3056161403656006,2.9496564865112305,-18.585205078125,-6.5155029296875,-6.8359375
0.7087499,10.259154319763184,-2.3918075561523438,2.940079689025879,-17.4713134765625,-5.584716796875,-7.171630859375
0.7112499,10.199298858642578,-2.47560453414917,2.9281086921691895,-16.0369873046875,-4.6844482421875,-7.2174072265625
0.7137499,10.120290756225586,-2.561795711517334,2.920926094055176,-14.6484375,-3.96728515625,-7.232666015625
0.7162499,10.02691650390625,-2.652775526046753,2.9041666984558105,-13.1683349609375,-3.4332275390625,-7.293701171875
0.7187499,9.923966407775879,-2.741360902786255,2.8778305053710938,-11.6424560546875,-2.9144287109375,-7.2021484375
0.7212499,9.832986831665039,-2.8155810832977295,2.832340717315674,-10.162353515625,-2.3956298828125,-7.0343017578125
0.7237499000000001,9.758766174316406,-2.8634653091430664,2.7700912952423096,-8.85009765625,-2.0294189453125,-7.1868896484375
0.7262499,9.701305389404297,-2.8802247047424316,2.6862943172454834,-7.3394775390625,-1.5716552734375,-7.01904296875
0.7287499000000001,9.658209800720215,-2.875436305999756,2.5929205417633057,-6.1798095703125,-1.03759765625,-7.0343017578125
0.7312499,9.605537414550781,-2.849100112915039,2.494758129119873,-5.218505859375,-0.7781982421875,-6.9732666015625
0.7337499000000001,9.536105155944824,-2.808398485183716,2.4013843536376953,-4.1656494140625,-0.8544921875,-6.6986083984375
0.7362499,9.459490776062012,-2.75812029838562,2.31758713722229,-2.9449462890625,-0.946044921875,-6.439208984375
0.7387499000000001,9.368511199951172,-2.7078421115875244,2.2457611560821533,-2.197265625,-0.7476806640625,-6.500244140625
0.7412499,9.279925346374512,-2.6599581241607666,2.190694570541382,-1.2969970703125,-0.762939453125,-6.4239501953125
0.7437499000000001,9.191340446472168,-2.6216509342193604,2.140416383743286,-0.335693359375,-1.068115234375,-6.2408447265625
0.7462499,9.121908187866211,-2.585737943649292,2.0853497982025146,0.396728515625,-1.495361328125,-6.0882568359375
0.7487499000000001,9.07641887664795,-2.5546131134033203,2.0183119773864746,1.0986328125,-1.708984375,-5.828857421875
0.7512499,9.057265281677246,-2.52109432220459,1.9345149993896484,1.8463134765625,-1.312255859375,-5.6915283203125
0.7537499000000001,9.05247688293457,-2.4899697303771973,1.8507179021835327,2.1514892578125,-1.8157958984375,-5.3253173828125
0.7562499,9.062053680419922,-2.4588451385498047,1.7693150043487549,2.227783203125,-2.3040771484375,-4.7760009765625
0.7587499000000001,9.059659004211426,-2.427720546722412,1.6950948238372803,1.983642578125,-2.3193359375,-4.1961669921875
0.7612499,9.050082206726074,-2.387019157409668,1.623268723487854,1.739501953125,-2.6092529296875,-3.8604736328125
0.7637499000000001,9.01895809173584,-2.346317768096924,1.5610195398330688,1.28173828125,-3.1890869140625,-3.23486328125
0.7662499,8.973467826843262,-2.3080103397369385,1.5083470344543457,0.6256103515625,-3.9215087890625,-2.288818359375
0.7687499000000001,8.923190116882324,-2.276885747909546,1.4915876388549805,-0.18310546875,-4.5318603515625,-1.4801025390625
0.7712499,8.875306129455566,-2.248155355453491,1.5059528350830078,-0.91552734375,-5.2032470703125,-0.42724609375
0.7737499,8.844181060791016,-2.2218191623687744,1.5490485429763794,-1.7852783203125,-5.9661865234375,0.54931640625
0.7762499,8.829815864562988,-2.2002713680267334,1.6089035272598267,-2.6092529296875,-6.3323974609375,1.1444091796875
0.7787499,8.841787338256836,-2.1787235736846924,1.6711528301239014,-3.509521484375,-6.7291259765625,1.8463134765625
0.7812499,8.860940933227539,-2.169146776199341,1.7334020137786865,-4.486083984375,-7.01904296875,2.410888671875
0.7837499,8.880094528198242,-2.1715409755706787,1.800439715385437,-5.1422119140625,-7.62939453125,2.8839111328125
0.7862499000000001,8.892065048217773,-2.1811177730560303,1.8722656965255737,-5.615234375,-8.2550048828125,3.2806396484375
0.7887499,8.901641845703125,-2.1978771686553955,1.9345149993896484,-6.2408447265625,-8.8653564453125,3.6773681640625
0.7912499000000001,8.918401718139648,-2.2194249629974365,1.9728221893310547,-6.561279296875,-9.4757080078125,3.8604736328125
0.7937499,8.951920509338379,-2.250549554824829,1.9752163887023926,-6.927490234375,-10.0860595703125,4.364013671875
0.7962499000000001,8.995016098022461,-2.3104045391082764,1.944091796875,-7.01904296875,-10.6201171875,4.7607421875
0.7987499,9.040505409240723,-2.3965959548950195,1.900996208190918,-7.415771484375,-11.04736328125,4.9285888671875
0.8012499000000001,9.05487060546875,-2.5306711196899414,1.8794482946395874,-7.2021484375,-11.53564453125,5.4168701171875
0.8037499,9.047688484191895,-2.6839001178741455,1.8794482946395874,-6.866455078125,-12.14599609375,5.645751953125
0.8062499000000001,9.014169692993164,-2.8419175148010254,1.9105730056762695,-6.500244140625,-12.847900390625,6.3323974609375
0.8087499,8.918401718139648,-2.942473888397217,1.9512743949890137,-5.950927734375,-13.0767822265625,6.4697265625
0.8112499000000001,8.83699893951416,-2.9903578758239746,1.98958158493042,-6.2255859375,-14.3890380859375,6.2713623046875
0.8137499,8.774748802185059,-2.978386878967285,2.0039467811584473,-6.317138671875,-15.380859375,6.40869140625
0.8162499000000001,8.767566680908203,-2.9520506858825684,2.0015525817871094,-6.0882568359375,-15.3350830078125,6.6070556640625
0.8187499,8.813055992126465,-2.956839084625244,1.9704279899597168,-5.8441162109375,-15.2130126953125,6.6680908203125
0.8212499000000001,8.880094528198242,-2.9735984802246094,1.9249382019042969,-5.1116943359375,-15.380859375,6.561279296875
0.8237499,8.923190116882324,-2.9951462745666504,1.8746598958969116,-4.82177734375,-15.6402587890625,6.561279296875
0.8262499000000001,8.925583839416504,-2.9903578758239746,1.8291701078414917,-5.3253173828125,-15.7470703125,6.6680908203125
0.8287499,8.899248123168945,-2.96162748336792,1.8076223134994507,-6.378173828125,-15.9912109375,6.2408447265625
0.8312499000000001,8.858546257019043,-2.940079689025879,1.802833914756775,-7.1563720703125,-16.326904296875,6.256103515625
0.8337499,8.829815864562988,-2.9448680877685547,1.8148049116134644,-7.5836181640625,-16.4794921875,6.1492919921875
0.8362499,8.815450668334961,-2.9735984802246094,1.8315643072128296,-7.8582763671875,-16.54052734375,6.072998046875
0.8387499,8.83699893951416,-3.0166940689086914,1.8507179021835327,-8.30078125,-16.6015625,5.8746337890625
0.8412499,8.865729331970215,-3.050212860107422,1.8698714971542358,-8.697509765625,-16.754150390625,5.8746337890625
0.8437499,8.918401718139648,-3.064578056335449,1.886630892753601,-9.2315673828125,-16.448974609375,6.04248046875
0.8462499,8.971074104309082,-3.069366693496704,1.9129672050476074,-9.765625,-16.1895751953125,5.828857421875
0.8487499000000001,9.028534889221191,-3.064578056335449,1.9297266006469727,-10.2386474609375,-15.8538818359375,5.7525634765625
0.8512499,9.071630477905273,-3.071760892868042,1.946485996246338,-10.8184814453125,-15.6402587890625,5.859375
0.8537499000000001,9.102754592895508,-3.093308687210083,1.9488801956176758,-11.3677978515625,-15.228271484375,5.9967041015625
0.8562499,9.114726066589355,-3.134010076522827,1.9536685943603516,-11.7034912109375,-14.739990234375,5.8746337890625
0.8587499000000001,9.119514465332031,-3.1914708614349365,1.965639591217041,-11.77978515625,-14.2059326171875,5.9356689453125
0.8612499,9.124302864074707,-3.251325845718384,2.006340980529785,-11.5966796875,-13.7786865234375,6.0577392578125
0.8637499000000001,9.131484985351562,-3.3039982318878174,2.0685901641845703,-11.444091796875,-13.48876953125,5.9356689453125
0.8662499,9.14345645904541,-3.337517261505127,2.1523873805999756,-11.3525390625,-13.00048828125,6.072998046875
0.8687499000000001,9.162610054016113,-3.332728862762451,2.2361843585968018,-11.1083984375,-12.451171875,6.195068359375
0.8712499,9.181763648986816,-3.294421434402466,2.3032219409942627,-10.7879638671875,-11.8560791015625,5.8135986328125
0.8737499000000001,9.210494041442871,-3.2178070545196533,2.343923568725586,-10.162353515625,-11.0015869140625,5.7525634765625
0.8762499,9.23682975769043,-3.1244332790374756,2.3582887649536133,-9.9334716796875,-10.8184814453125,5.2947998046875
0.8787499000000001,9.26795482635498,-3.026270866394043,2.3511061668395996,-9.796142578125,-10.5438232421875,4.8828125
0.8812499,9.30386734008789,-2.935291290283203,2.343923568725586,-9.5977783203125,-9.6893310546875,4.425048828125
0.8837499000000001,9.337387084960938,-2.8610711097717285,2.341529369354248,-9.5977783203125,-9.1094970703125,3.7994384765625
0.8862499,9.366117477416992,-2.8107926845550537,2.360682964324951,-9.307861328125,-8.7127685546875,3.3721923828125
0.8887499000000001,9.378087997436523,-2.784456491470337,2.406172752380371,-9.46044921875,-8.2244873046875,3.021240234375
0.8912499,9.38048267364502,-2.779668092727661,2.4684219360351562,-9.46044921875,-7.8582763671875,2.3193359375
0.8937499000000001,9.375694274902344,-2.7988216876983643,2.5282769203186035,-9.2620849609375,-7.2479248046875,2.1209716796875
0.8962499,9.375694274902344,-2.829946517944336,2.5737667083740234,-9.33837890625,-6.561279296875,1.8463134765625
0.8987499,9.385271072387695,-2.8778305053710938,2.5905263423919678,-9.6893310546875,-6.2103271484375,1.556396484375
0.9012499,9.411606788635254,-2.9305028915405273,2.5761611461639404,-9.8114013671875,-5.8135986328125,1.6326904296875
0.9037499,9.437943458557129,-2.9759926795959473,2.5450363159179688,-9.796142578125,-5.4931640625,1.6632080078125
0.9062499,9.469067573547363,-3.0142998695373535,2.4875755310058594,-9.8114013671875,-4.9591064453125,1.7852783203125
0.9087499,9.478644371032715,-3.0382418632507324,2.427720546722412,-9.674072265625,-4.5318603515625,2.105712890625
0.9112499000000001,9.473855972290039,-3.043030261993408,2.3702597618103027,-9.8114013671875,-4.1961669921875,2.0904541015625
0.9137499,9.435548782348633,-3.0358476638793945,2.3319525718688965,-9.765625,-3.7078857421875,2.166748046875
0.9162499000000001,9.385271072387695,-3.0142998695373535,2.3056161403656006,-10.0860595703125,-3.2501220703125,2.1514892578125
0.9187499,9.32302188873291,-2.980781078338623,2.3032219409942627,-10.4827880859375,-2.9296875,2.166748046875
0.9212499000000001,9.255983352661133,-2.935291290283203,2.3056161403656006,-10.7421875,-2.899169921875,2.4566650390625
0.9237499,9.2033109664917,-2.8874073028564453,2.3032219409942627,-11.260986328125,-2.8839111328125,2.3956298828125
0.9262499000000001,9.162610054016113,-2.8395233154296875,2.296039342880249,-11.505126953125,-2.5482177734375,2.3345947265625
0.9287499,9.136273384094238,-2.80361008644104,2.2697031497955322,-11.962890625,-2.3956298828125,2.2735595703125
0.9312499000000001,9.121908187866211,-2.7748796939849854,2.231395959854126,-12.7105712890625,-2.3956298828125,2.0904541015625
0.9337499,9.11233139038086,-2.760514497756958,2.1930887699127197,-13.1378173828125,-2.2430419921875,2.1514892578125
0.9362499000000001,9.107542991638184,-2.7509377002716064,2.1571757793426514,-13.7786865234375,-2.38037109375,2.1514892578125
0.9387499,9.095572471618652,-2.7461493015289307,2.145204782485962,-14.4500732421875,-2.38037109375,2.25830078125
0.9412499000000001,9.07641887664795,-2.7461493015289307,2.145204782485962,-15.289306640625,-2.197265625,1.9378662109375
0.9437499,9.047688484191895,-2.765302896499634,2.164358377456665,-15.8233642578125,-2.01416015625,2.1209716796875
0.9462499000000001,9.016563415527344,-2.806004285812378,2.2002713680267334,-16.54052734375,-2.0599365234375,2.2735595703125
0.9487499,8.971074104309082,-2.8778305053710938,2.2433669567108154,-17.0745849609375,-1.953125,2.3956298828125
0.9512499000000001,8.856152534484863,-3.1052796840667725,2.3295583724975586,-17.242431640625,-2.13623046875,2.5634765625
0.9537499,8.856152534484863,-3.1052796840667725,2.3295583724975586,-17.242431640625,-2.13623046875,2.5634765625
0.9562499000000001,8.738836288452148,-3.337517261505127,2.3511061668395996,-17.1966552734375,-2.5634765625,3.021240234375
0.9587499,8.738836288452148,-3.337517261505127,2.3511061668395996,-17.1966552734375,-2.5634765625,3.021240234375
0.9612499,8.674192428588867,-3.466804027557373,2.2912509441375732,-17.0135498046875,-2.62451171875,3.3721923828125
0.9637499,8.674192428588867,-3.466804027557373,2.2912509441375732,-17.0135498046875,-2.62451171875,3.3721923828125
0.9662499,8.645462036132812,-3.514688014984131,2.1787235736846924,-16.0675048828125,-2.9144287109375,3.5400390625
0.9687499,8.645462036132812,-3.514688014984131,2.1787235736846924,-16.0675048828125,-2.9144287109375,3.5400390625
0.9712499,8.628703117370605,-3.512293815612793,2.0661959648132324,-14.8773193359375,-3.23486328125,3.692626953125
0.9737499000000001,8.628703117370605,-3.512293815612793,2.0661959648132324,-14.8773193359375,-3.23486328125,3.692626953125
0.9762499,8.616731643676758,-3.4572272300720215,2.0183119773864746,-13.885498046875,-3.4942626953125,3.7384033203125
0.9787499000000001,8.616731643676758,-3.4572272300720215,2.0183119773864746,-13.885498046875,-3.4942626953125,3.7384033203125
0.9812499,8.588001251220703,-3.399766445159912,2.032677173614502,-12.8326416015625,-4.0435791015625,3.5858154296875
0.9837499000000001,8.588001251220703,-3.399766445159912,2.032677173614502,-12.8326416015625,-4.0435791015625,3.5858154296875
0.9862499,8.552088737487793,-3.4189200401306152,2.094926595687866,-11.505126953125,-4.5928955078125,3.4332275390625
0.9887499000000001,8.552088737487793,-3.4189200401306152,2.094926595687866,-11.505126953125,-4.5928955078125,3.4332275390625
0.9912499,8.547300338745117,-3.49314022064209,2.1930887699127197,-10.7574462890625,-5.1727294921875,3.692626953125
0.9937499000000001,8.547300338745117,-3.49314022064209,2.1930887699127197,-10.7574462890625,-5.1727294921875,3.692626953125
0.9962499,8.576030731201172,-3.5482068061828613,2.2218191623687744,-9.8114013671875,-5.462646484375,3.9520263671875
0.9987499000000001,8.576030731201172,-3.5482068061828613,2.2218191623687744,-9.8114013671875,-5.462646484375,3.9520263671875
1.0012499,8.638279914855957,-3.581725835800171,2.123656988143921,-8.880615234375,-5.3558349609375,4.8828125
1.0037498999999999,8.638279914855957,-3.581725835800171,2.123656988143921,-8.880615234375,-5.3558349609375,4.8828125
1.0062499,8.69095230102539,-3.5218706130981445,2.0159177780151367,-7.781982421875,-5.615234375,5.18798828125
1.0087499,8.69095230102539,-3.5218706130981445,2.0159177780151367,-7.781982421875,-5.615234375,5.18798828125
1.0112499,8.71728801727295,-3.3231520652770996,1.9991583824157715,-8.1787109375,-5.6610107421875,5.7220458984375
1.0137498999999999,8.71728801727295,-3.3231520652770996,1.9991583824157715,-8.1787109375,-5.6610107421875,5.7220458984375
1.0162499,8.7268648147583,-3.162740468978882,2.0422539710998535,-9.1705322265625,-5.401611328125,5.7220458984375
1.0187499,8.7268648147583,-3.162740468978882,2.0422539710998535,-9.1705322265625,-5.401611328125,5.7220458984375
1.0212499,8.71728801727295,-3.1866824626922607,2.0853497982025146,-9.1705322265625,-5.462646484375,5.79833984375
1.0237498999999999,8.71728801727295,-3.1866824626922607,2.0853497982025146,-9.1705322265625,-5.462646484375,5.79833984375
1.0262498999999998,8.738836288452148,-3.2752678394317627,2.073378562927246,-9.0789794921875,-5.2642822265625,6.3323974609375
1.0287499,8.738836288452148,-3.2752678394317627,2.073378562927246,-9.0789794921875,-5.2642822265625,6.3323974609375
1.0312499,8.78432559967041,-3.2824504375457764,2.0374655723571777,-9.5977783203125,-5.43212890625,6.6680908203125
1.0337498999999999,8.78432559967041,-3.2824504375457764,2.0374655723571777,-9.5977783203125,-5.43212890625,6.6680908203125
1.0362498999999998,8.808267593383789,-3.184288263320923,2.03507137298584,-9.857177734375,-5.2947998046875,6.6375732421875
1.0387499,8.808267593383789,-3.184288263320923,2.03507137298584,-9.857177734375,-5.2947998046875,6.6375732421875
1.0412499,8.83939266204834,-3.0190882682800293,2.0446481704711914,-11.138916015625,-4.57763671875,6.3323974609375
1.0437499,8.83939266204834,-3.0190882682800293,2.0446481704711914,-11.138916015625,-4.57763671875,6.3323974609375
1.0462498999999998,8.913613319396973,-2.875436305999756,2.0614075660705566,-12.26806640625,-4.5013427734375,6.16455078125
1.0487499,8.913613319396973,-2.875436305999756,2.0614075660705566,-12.26806640625,-4.5013427734375,6.16455078125
1.0512499,8.959102630615234,-2.82515811920166,2.0925323963165283,-13.3209228515625,-3.692626953125,5.6915283203125
1.0537499,8.959102630615234,-2.82515811920166,2.0925323963165283,-13.3209228515625,-3.692626953125,5.6915283203125
1.0562498999999999,8.939949035644531,-2.8802247047424316,2.1116859912872314,-14.6942138671875,-3.23486328125,5.4168701171875
1.0587499,8.939949035644531,-2.8802247047424316,2.1116859912872314,-14.6942138671875,-3.23486328125,5.4168701171875
1.0612499,8.916007041931152,-2.9712042808532715,2.099714994430542,-16.0369873046875,-3.0517578125,4.913330078125
1.0637499,8.920795440673828,-3.00711727142334,2.0925323963165283,-16.357421875,-2.8228759765625,4.8828125
1.0662498999999999,8.949525833129883,-3.0382418632507324,2.0829553604125977,-17.0745849609375,-2.74658203125,4.7607421875
1.0687499,8.98543930053711,-3.064578056335449,2.073378562927246,-18.0816650390625,-2.3193359375,4.7149658203125
1.0712499,9.023746490478516,-3.093308687210083,2.0470423698425293,-18.49365234375,-2.532958984375,4.9896240234375
1.0737499,9.062053680419922,-3.1220390796661377,2.0159177780151367,-19.3634033203125,-2.0904541015625,4.8370361328125
1.0762498999999999,9.08838939666748,-3.1531636714935303,1.9752163887023926,-19.6685791015625,-1.8310546875,4.5166015625
1.0787499,9.105149269104004,-3.184288263320923,1.9369091987609863,-20.0347900390625,-1.6021728515625,4.2572021484375
1.0812499,9.119514465332031,-3.2106244564056396,1.900996208190918,-20.44677734375,-1.373291015625,4.1046142578125
1.0837499,9.126696586608887,-3.2369606494903564,1.8722656965255737,-20.4925537109375,-1.4495849609375,4.1046142578125
1.0862498999999999,9.131484985351562,-3.2632968425750732,1.8579005002975464,-20.751953125,-1.251220703125,3.9520263671875
1.0887499,9.133879661560059,-3.2824504375457764,1.8483237028121948,-20.904541015625,-1.0223388671875,3.60107421875
1.0912499,9.133879661560059,-3.2992098331451416,1.8507179021835327,-21.17919921875,-0.8544921875,3.326416015625
1.0937499,9.136273384094238,-3.315969467163086,1.8555063009262085,-21.1334228515625,-0.946044921875,3.4332275390625
1.0962498999999999,9.148244857788086,-3.335123062133789,1.8483237028121948,-21.453857421875,-0.79345703125,3.23486328125
1.0987498999999998,9.165003776550293,-3.354276657104492,1.824381709098816,-21.514892578125,-0.5645751953125,2.74658203125
1.1012499,9.188945770263672,-3.383007049560547,1.7812861204147339,-21.209716796875,-0.4119873046875,2.9449462890625
1.1037499,9.215282440185547,-3.4117374420166016,1.721431016921997,-21.270751953125,-0.213623046875,2.8533935546875
1.1062499,9.232041358947754,-3.442862033843994,1.656787633895874,-21.026611328125,0.06103515625,2.3956298828125
1.1087498999999998,9.239224433898926,-3.4763808250427246,1.599326729774475,-20.69091796875,0.213623046875,2.25830078125
1.1112499,9.232041358947754,-3.5194764137268066,1.556231141090393,-20.5535888671875,0.3509521484375,2.25830078125
1.1137499,9.21288776397705,-3.5697548389434814,1.53707754611969,-20.263671875,0.3509521484375,2.1820068359375
1.1162499,9.188945770263672,-3.627215623855591,1.5418659448623657,-19.83642578125,0.2593994140625,2.0751953125
1.1187498999999999,9.172186851501465,-3.6942532062530518,1.5658079385757446,-19.1497802734375,0.42724609375,2.13623046875
1.1212499,9.169792175292969,-3.7612907886505127,1.601720929145813,-18.402099609375,0.4119873046875,2.3956298828125
1.1237499,9.17697525024414,-3.8283286094665527,1.644816517829895,-17.4713134765625,0.4119873046875,2.4566650390625
1.1262499,9.191340446472168,-3.892971992492676,1.6903064250946045,-16.876220703125,0.9765625,2.593994140625
1.1287498999999999,9.208099365234375,-3.955221176147461,1.7405846118927002,-15.716552734375,0.91552734375,2.777099609375
1.1312499,9.222464561462402,-4.01268196105957,1.7836803197860718,-14.3280029296875,0.6103515625,3.1280517578125
1.1337499,9.239224433898926,-4.065354347229004,1.8267759084701538,-12.847900390625,0.91552734375,3.23486328125
1.1362499,9.255983352661133,-4.094084739685059,1.8602946996688843,-11.383056640625,1.3275146484375,3.2196044921875
1.1387498999999999,9.26795482635498,-4.098873138427734,1.8698714971542358,-9.7503662109375,1.373291015625,3.4637451171875
1.1412499,9.279925346374512,-4.079719543457031,1.867477297782898,-8.270263671875,1.5106201171875,3.631591796875
1.1437499,9.275136947631836,-4.043806552886963,1.8483237028121948,-6.7596435546875,1.77001953125,3.5858154296875
1.1462499,9.255983352661133,-4.010287761688232,1.8267759084701538,-5.2490234375,1.7852783203125,3.5858154296875
1.1487498999999999,9.222464561462402,-3.971980571746826,1.821987509727478,-3.7689208984375,1.7242431640625,3.7689208984375
1.1512499,9.181763648986816,-3.9217023849487305,1.824381709098816,-2.25830078125,1.495361328125,3.8604736328125
1.1537499,9.165003776550293,-3.8498764038085938,1.8267759084701538,-1.2359619140625,1.434326171875,3.8909912109375
1.1562499,9.172186851501465,-3.7636849880218506,1.8124107122421265,-0.42724609375,1.8310546875,3.875732421875
1.1587498999999999,9.191340446472168,-3.6750996112823486,1.7812861204147339,0.06103515625,2.50244140625,3.753662109375
1.1612498999999998,9.2033109664917,-3.600879430770874,1.7334020137786865,0.823974609375,2.5634765625,3.570556640625
1.1637499,9.184157371520996,-3.550601005554199,1.6903064250946045,1.5106201171875,2.2125244140625,3.4332275390625
1.1662499,9.141061782836914,-3.5194764137268066,1.6496049165725708,1.6632080078125,2.1514892578125,3.509521484375
1.1687499,9.08838939666748,-3.509899616241455,1.6208745241165161,1.9683837890625,2.105712890625,3.4942626953125
1.1712498999999998,9.040505409240723,-3.514688014984131,1.6041151285171509,2.0904541015625,2.0751953125,3.5552978515625
1.1737499,9.011775016784668,-3.5410242080688477,1.6065093278884888,2.227783203125,1.89208984375,3.692626953125
1.1762499,8.987833023071289,-3.576937437057495,1.6304513216018677,2.471923828125,1.89208984375,3.7384033203125
1.1787499,8.975862503051758,-3.620033025741577,1.6687586307525635,2.9449462890625,1.7242431640625,3.875732421875
1.1812498999999999,8.96389102935791,-3.6559460163116455,1.7094600200653076,3.4027099609375,1.617431640625,3.9215087890625
1.1837499,8.96149730682373,-3.6727054119110107,1.742978811264038,3.7841796875,1.373291015625,4.058837890625
1.1862499,8.966285705566406,-3.663128614425659,1.764526605606079,3.997802734375,1.434326171875,4.1046142578125
1.1887499,8.98543930053711,-3.6296098232269287,1.7741034030914307,4.0435791015625,1.40380859375,4.0130615234375
1.1912498999999999,9.004592895507812,-3.584120035171509,1.7764976024627686,4.0283203125,1.251220703125,3.6773681640625
1.1937499,9.026140213012695,-3.5386300086975098,1.778891921043396,4.2877197265625,1.1749267578125,3.9825439453125
1.1962499,9.040505409240723,-3.5003228187561035,1.7717092037200928,4.3792724609375,1.0223388671875,4.058837890625
1.1987499,9.050082206726074,-3.469198226928711,1.7597382068634033,4.3182373046875,0.8392333984375,3.84521484375
1.2012498999999999,9.057265281677246,-3.44765043258667,1.7381904125213623,4.5318603515625,0.7171630859375,3.6468505859375
1.2037499,9.062053680419922,-3.4356794357299805,1.7142484188079834,4.4097900390625,0.67138671875,3.692626953125
1.2062499,9.074024200439453,-3.428496837615967,1.699883222579956,4.241943359375,0.4730224609375,3.814697265625
1.2087499,9.078812599182129,-3.428496837615967,1.699883222579956,4.180908203125,0.8392333984375,3.7384033203125
1.2112498999999999,9.0859956741333,-3.423708438873291,1.7142484188079834,4.0130615234375,0.4425048828125,3.5858154296875
1.2137499,9.090784072875977,-3.4117374420166016,1.7477672100067139,3.5400390625,0.30517578125,3.7384033203125
1.2162499,9.093177795410156,-3.3877954483032227,1.802833914756775,3.3111572265625,0.1678466796875,3.90625
1.2187499,9.093177795410156,-3.3662476539611816,1.8626888990402222,2.9449462890625,0.42724609375,4.0740966796875
1.2212498999999999,9.093177795410156,-3.3231520652770996,1.9297266006469727,2.74658203125,0.213623046875,4.2572021484375
1.2237498999999998,9.097966194152832,-3.270479440689087,1.9800047874450684,2.4871826171875,-0.0152587890625,4.0740966796875
1.2262499,9.107542991638184,-3.205836057662964,2.0015525817871094,1.7852783203125,-0.1983642578125,4.2724609375
1.2287499,9.121908187866211,-3.1507694721221924,1.98958158493042,0.8544921875,0.0152587890625,4.608154296875
1.2312499,9.124302864074707,-3.1196448802948,1.9488801956176758,0.48828125,0.1373291015625,4.6234130859375
1.2337498999999998,9.10993766784668,-3.117250680923462,1.9033904075622559,0.48828125,-0.213623046875,4.5623779296875
1.2362499,9.078812599182129,-3.117250680923462,1.8626888990402222,0.3204345703125,-0.335693359375,4.33349609375
1.2387499,9.040505409240723,-3.114856481552124,1.8411411046981812,-0.42724609375,-0.4119873046875,4.1656494140625
1.2412499,9.016563415527344,-3.1076738834381104,1.843535304069519,-1.3885498046875,-0.640869140625,3.8909912109375
1.2437498999999999,9.014169692993164,-3.1292216777801514,1.867477297782898,-1.983642578125,-1.1444091796875,3.936767578125
1.2462499,9.028534889221191,-3.19865345954895,1.920149803161621,-2.1209716796875,-1.0528564453125,3.8604736328125
1.2487499,9.05487060546875,-3.315969467163086,1.987187385559082,-1.800537109375,-1.1749267578125,3.6773681640625
1.2512499,9.074024200439453,-3.445256233215332,2.0661959648132324,-1.708984375,-1.2359619140625,3.8299560546875
1.2537498999999999,9.08838939666748,-3.552995204925537,2.123656988143921,-1.52587890625,-1.3885498046875,3.8299560546875
1.2562499,9.105149269104004,-3.6152446269989014,2.1571757793426514,-1.5411376953125,-1.46484375,3.6468505859375
1.2587499,9.119514465332031,-3.6320040225982666,2.1499931812286377,-1.4190673828125,-1.3580322265625,3.90625
1.2612499,9.136273384094238,-3.6104562282562256,2.1140801906585693,-1.373291015625,-1.3885498046875,3.84521484375
1.2637498999999999,9.150638580322266,-3.5745432376861572,2.0590133666992188,-1.190185546875,-1.46484375,3.7689208984375
1.2662499,9.157821655273438,-3.5266590118408203,1.9919757843017578,-1.3885498046875,-1.739501953125,3.7689208984375
1.2687499,9.162610054016113,-3.4811692237854004,1.9297266006469727,-1.5869140625,-1.953125,3.8909912109375
1.2712499,9.155426979064941,-3.442862033843994,1.8818424940109253,-1.983642578125,-1.800537109375,3.5552978515625
1.2737498999999999,9.150638580322266,-3.4189200401306152,1.8602946996688843,-2.3345947265625,-2.197265625,3.2958984375
1.2762499,9.133879661560059,-3.40216064453125,1.8626888990402222,-2.716064453125,-2.2125244140625,3.448486328125
1.2787499,9.119514465332031,-3.397372245788574,1.889025092124939,-3.0975341796875,-2.50244140625,3.2958984375
1.2812499,9.10993766784668,-3.397372245788574,1.9249382019042969,-3.173828125,-2.86865234375,3.143310546875
1.2837498999999999,9.102754592895508,-3.3901896476745605,1.9584569931030273,-3.4027099609375,-2.9296875,3.3416748046875
1.2862498999999998,9.107542991638184,-3.375824451446533,1.9776105880737305,-3.5247802734375,-2.9144287109375,3.143310546875
1.2887499,9.119514465332031,-3.3494882583618164,1.9776105880737305,-4.0130615234375,-2.960205078125,2.9296875
1.2912499,9.133879661560059,-3.3255462646484375,1.9608511924743652,-4.608154296875,-2.7923583984375,2.8533935546875
1.2937499,9.14585018157959,-3.313575267791748,1.9249382019042969,-4.9591064453125,-2.6702880859375,2.655029296875
1.2962498999999998,9.148244857788086,-3.318363666534424,1.8770540952682495,-5.06591796875,-2.8839111328125,2.6092529296875
1.2987499,9.148244857788086,-3.337517261505127,1.8195933103561401,-5.1727294921875,-3.0975341796875,2.3651123046875
1.3012499,9.138668060302734,-3.3662476539611816,1.764526605606079,-5.2490234375,-2.62451171875,2.1209716796875
1.3037499,9.129091262817383,-3.3949780464172363,1.723825216293335,-5.462646484375,-2.7008056640625,1.9989013671875
1.3062498999999999,9.107542991638184,-3.428496837615967,1.7166426181793213,-5.31005859375,-2.777099609375,1.7547607421875
1.3087499,9.083600997924805,-3.464409828186035,1.7501614093780518,-5.157470703125,-3.0059814453125,2.105712890625
1.3112499,9.066842079162598,-3.5003228187561035,1.8148049116134644,-5.3253173828125,-2.9144287109375,1.953125
1.3137499,9.071630477905273,-3.5386300086975098,1.886630892753601,-5.1727294921875,-2.655029296875,1.983642578125
1.3162498999999999,9.097966194152832,-3.576937437057495,1.9488801956176758,-4.730224609375,-2.74658203125,1.9378662109375
1.3187499,9.129091262817383,-3.6152446269989014,1.9823989868164062,-4.3792724609375,-2.2125244140625,1.8310546875
1.3212499,9.165003776550293,-3.6583402156829834,1.9800047874450684,-4.1046142578125,-2.227783203125,1.77001953125
1.3237499,9.17936897277832,-3.6966474056243896,1.9512743949890137,-3.692626953125,-2.3193359375,1.8768310546875
1.3262498999999999,9.184157371520996,-3.7397429943084717,1.9105730056762695,-3.326416015625,-2.288818359375,1.8463134765625
1.3287499,9.17697525024414,-3.778050184249878,1.8602946996688843,-2.9144287109375,-2.0599365234375,2.105712890625
1.3312499,9.169792175292969,-3.8091750144958496,1.8195933103561401,-2.62451171875,-2.13623046875,2.2125244140625
1.3337499,9.160215377807617,-3.8379054069519043,1.7836803197860718,-2.2430419921875,-2.0751953125,2.2735595703125
1.3362498999999999,9.150638580322266,-3.847482204437256,1.7597382068634033,-1.922607421875,-2.0294189453125,2.3345947265625
1.3387499,9.14345645904541,-3.847482204437256,1.7525556087493896,-1.556396484375,-1.861572265625,2.50244140625
1.3412499,9.133879661560059,-3.8307228088378906,1.764526605606079,-1.373291015625,-1.8463134765625,2.899169921875
1.3437499,9.131484985351562,-3.794809579849243,1.7980455160140991,-1.190185546875,-1.89208984375,3.021240234375
1.3462498999999999,9.131484985351562,-3.7397429943084717,1.843535304069519,-1.0223388671875,-1.9378662109375,3.0975341796875
1.3487498999999998,9.141061782836914,-3.6607344150543213,1.8914192914962769,-1.0223388671875,-1.7242431640625,3.2196044921875
1.3512499,9.157821655273438,-3.579331636428833,1.9321208000183105,-1.2359619140625,-1.40380859375,2.9754638671875
1.3537499,9.167398452758789,-3.507505416870117,1.9608511924743652,-1.52587890625,-1.2969970703125,2.62451171875
1.3562499,9.17936897277832,-3.4620156288146973,1.968033790588379,-1.5716552734375,-1.0986328125,2.7008056640625
1.3587498999999998,9.17936897277832,-3.4404678344726562,1.9512743949890137,-1.373291015625,-1.1444091796875,2.838134765625
1.3612499,9.17936897277832,-3.4404678344726562,1.9129672050476074,-1.312255859375,-1.1749267578125,2.7008056640625
1.3637499,9.169792175292969,-3.450044631958008,1.8507179021835327,-1.739501953125,-1.3427734375,2.6702880859375
1.3662499,9.162610054016113,-3.471592426300049,1.7860745191574097,-2.3040771484375,-1.2054443359375,2.5177001953125
1.3687498999999999,9.14585018157959,-3.5027170181274414,1.7334020137786865,-2.4566650390625,-1.0833740234375,2.5634765625
1.3712499,9.131484985351562,-3.5410242080688477,1.699883222579956,-2.6702880859375,-1.0986328125,2.6092529296875
1.3737499,9.117119789123535,-3.5745432376861572,1.6879122257232666,-2.8228759765625,-1.1444091796875,2.62451171875
1.3762499,9.114726066589355,-3.598485231399536,1.699883222579956,-3.021240234375,-1.190185546875,2.899169921875
1.3787498999999999,9.114726066589355,-3.600879430770874,1.7357962131500244,-3.4027099609375,-1.2969970703125,2.7313232421875
1.3812499,9.117119789123535,-3.584120035171509,1.7860745191574097,-3.60107421875,-1.1138916015625,2.655029296875
1.3837499,9.119514465332031,-3.552995204925537,1.8363527059555054,-4.150390625,-0.9002685546875,2.655029296875
1.3862499,9.117119789123535,-3.509899616241455,1.867477297782898,-4.486083984375,-0.8087158203125,2.593994140625
1.3887498999999999,9.105149269104004,-3.4739866256713867,1.867477297782898,-4.913330078125,-0.48828125,2.593994140625
1.3912499,9.093177795410156,-3.4572272300720215,1.8339585065841675,-5.4473876953125,-0.274658203125,2.38037109375
1.3937499,9.071630477905273,-3.469198226928711,1.7812861204147339,-5.706787109375,-0.2593994140625,2.288818359375
1.3962499,9.042900085449219,-3.49314022064209,1.721431016921997,-5.8441162109375,-0.3204345703125,2.2125244140625
1.3987498999999999,9.014169692993164,-3.5170822143554688,1.6735470294952393,-6.195068359375,-0.4425048828125,1.953125
1.4012499,8.992621421813965,-3.5410242080688477,1.6400281190872192,-6.6986083984375,-0.2593994140625,2.1820068359375
1.4037499,8.980650901794434,-3.5697548389434814,1.6352397203445435,-7.38525390625,-0.0152587890625,2.1514892578125
1.4062499,8.98543930053711,-3.627215623855591,1.656787633895874,-7.598876953125,-0.3204345703125,2.1209716796875
1.4087498999999999,8.992621421813965,-3.708618402481079,1.6950948238372803,-7.415771484375,-0.0152587890625,2.13623046875
1.4112498999999998,8.990227699279785,-3.778050184249878,1.745373010635376,-6.8817138671875,0,2.25830078125
1.4137499,8.978256225585938,-3.8067808151245117,1.7908629179000854,-6.7901611328125,0,2.5177001953125
1.4162499,8.96389102935791,-3.7660791873931885,1.8291701078414917,-7.1868896484375,-0.1678466796875,2.50244140625
1.4187499,8.939949035644531,-3.6774938106536865,1.8555063009262085,-7.7667236328125,-0.1983642578125,2.349853515625
1.4212498999999998,8.916007041931152,-3.5697548389434814,1.867477297782898,-8.3465576171875,0.1068115234375,1.9989013671875
1.4237499,8.916007041931152,-3.4620156288146973,1.8579005002975464,-8.8653564453125,0.06103515625,1.9378662109375
1.4262499,8.937555313110352,-3.375824451446533,1.8195933103561401,-8.758544921875,-0.3509521484375,1.617431640625
1.4287499,8.987833023071289,-3.315969467163086,1.766920804977417,-9.063720703125,-0.2288818359375,1.6021728515625
1.4312498999999999,9.047688484191895,-3.2824504375457764,1.699883222579956,-9.9334716796875,0.1068115234375,1.3427734375
1.4337499,9.0859956741333,-3.287238836288452,1.6400281190872192,-10.2081298828125,0.244140625,1.0528564453125
1.4362499,9.090784072875977,-3.318363666534424,1.5921441316604614,-10.3759765625,-0.1678466796875,0.9918212890625
1.4387499,9.074024200439453,-3.361459255218506,1.5610195398330688,-11.016845703125,-0.2899169921875,1.0223388671875
1.4412498999999999,9.05487060546875,-3.3925838470458984,1.5131354331970215,-11.7340087890625,-0.7476806640625,1.007080078125
1.4437499,9.035717010498047,-3.4093432426452637,1.4748282432556152,-12.8936767578125,-0.4425048828125,0.823974609375
1.4462499,9.028534889221191,-3.4332852363586426,1.4221558570861816,-13.946533203125,-0.1068115234375,1.0223388671875
1.4487499,9.081207275390625,-3.4332852363586426,1.5466543436050415,-13.97705078125,-0.9307861328125,1.220703125
1.4512498999999999,9.20091724395752,-3.354276657104492,1.3958195447921753,-12.1917724609375,-3.8299560546875,1.068115234375
1.4537499,9.215282440185547,-3.308786630630493,1.3886369466781616,-15.350341796875,1.4190673828125,-0.0152587890625
1.4562499,9.141061782836914,-3.3925838470458984,1.2282254695892334,-19.59228515625,4.94384765625,0.67138671875
1.4587499,8.96389102935791,-3.557783842086792,1.1228805780410767,-16.937255859375,1.2359619140625,1.9683837890625
1.4612498999999999,8.789113998413086,-3.7852327823638916,1.1085153818130493,-12.8326416015625,-2.7313232421875,2.5634765625
1.4637499,8.698134422302246,-3.909731388092041,1.1492167711257935,-13.48876953125,-1.64794921875,2.3040771484375
1.4662499,8.712499618530273,-3.885789394378662,1.1899182796478271,-16.54052734375,1.0223388671875,2.777099609375
1.4687499,8.719682693481445,-3.823540210723877,1.2449848651885986,-17.63916015625,0.9918212890625,3.2958984375
1.4712498999999999,8.69334602355957,-3.8498764038085938,1.3311761617660522,-16.41845703125,-0.4119873046875,3.875732421875
1.4737498999999998,8.676587104797363,-4.000710964202881,1.4221558570861816,-15.0146484375,-0.6256103515625,4.2724609375
1.4762499,8.688557624816895,-4.213795185089111,1.4891934394836426,-13.916015625,0.1373291015625,4.8980712890625
1.4787499,8.734047889709473,-4.4077253341674805,1.5275006294250488,-12.4053955078125,0.7171630859375,5.6915283203125
1.4812499,8.777143478393555,-4.513070106506348,1.5514427423477173,-11.16943359375,0.518798828125,6.40869140625
1.4837498999999998,8.813055992126465,-4.508281707763672,1.5682021379470825,-10.772705078125,0.762939453125,7.2174072265625
1.4862499,8.83939266204834,-4.402936935424805,1.5753847360610962,-10.55908203125,1.251220703125,7.5225830078125
1.4887499,8.83939266204834,-4.244919776916504,1.5634137392044067,-10.223388671875,1.678466796875,7.720947265625
1.4912499,8.825027465820312,-4.106055736541748,1.5418659448623657,-10.4522705078125,1.953125,8.0413818359375
1.4937498999999999,8.78432559967041,-4.019864559173584,1.525106430053711,-9.9945068359375,2.044677734375,8.0413818359375
1.4962499,8.731653213500977,-3.9671921730041504,1.53707754611969,-9.0179443359375,1.89208984375,8.087158203125
1.4987499,8.683769226074219,-3.9408559799194336,1.5921441316604614,-8.6212158203125,1.8463134765625,7.9345703125
1.5012499,8.650250434875488,-3.883395195007324,1.702277421951294,-8.5906982421875,1.678466796875,7.904052734375
1.5037498999999999,8.65743350982666,-3.8115692138671875,1.8387469053268433,-8.4991455078125,1.8310546875,7.4920654296875
1.5062499,8.707711219787598,-3.7397429943084717,1.9919757843017578,-8.575439453125,1.953125,7.232666015625
1.5087499,8.793902397155762,-3.7038300037384033,2.1164743900299072,-8.697509765625,2.227783203125,6.9122314453125
1.5112499,8.971074104309082,-3.73016619682312,2.2816741466522217,-7.75146484375,3.3416748046875,6.40869140625
1.5137498999999999,8.971074104309082,-3.73016619682312,2.2816741466522217,-7.75146484375,3.3416748046875,6.40869140625
1.5162499,9.009381294250488,-3.732560396194458,2.3750481605529785,-6.77490234375,3.60107421875,5.79833984375
1.5187499,9.009381294250488,-3.732560396194458,2.3750481605529785,-6.77490234375,3.60107421875,5.79833984375
1.5212499,8.927978515625,-3.663128614425659,2.408566951751709,-7.1563720703125,2.716064453125,5.4168701171875
1.5237498999999999,8.927978515625,-3.663128614425659,2.408566951751709,-7.1563720703125,2.716064453125,5.4168701171875
1.5262499,8.904036521911621,-3.6727054119110107,2.3558945655822754,-7.01904296875,2.25830078125,5.2947998046875
1.5287499,8.904036521911621,-3.6727054119110107,2.3558945655822754,-7.01904296875,2.25830078125,5.2947998046875
1.5312499,9.006986618041992,-3.818751811981201,2.3104045391082764,-5.9967041015625,2.0751953125,5.3863525390625
1.5337498999999999,9.006986618041992,-3.818751811981201,2.3104045391082764,-5.9967041015625,2.0751953125,5.3863525390625
1.5362499,9.138668060302734,-3.9480385780334473,2.3367409706115723,-3.7994384765625,1.89208984375,5.6915283203125
1.5387499,9.138668060302734,-3.9480385780334473,2.3367409706115723,-3.7994384765625,1.89208984375,5.6915283203125
1.5412499,9.198522567749023,-3.9240965843200684,2.382230758666992,-2.7313232421875,1.6937255859375,6.04248046875
1.5437499,9.198522567749023,-3.9240965843200684,2.382230758666992,-2.7313232421875,1.6937255859375,6.04248046875
1.5462498999999998,9.208099365234375,-3.7636849880218506,2.3702597618103027,-1.861572265625,1.3885498046875,6.1187744140625
1.5487499,9.208099365234375,-3.7636849880218506,2.3702597618103027,-1.861572265625,1.3885498046875,6.1187744140625
1.5512499,9.160215377807617,-3.624821424484253,2.2601263523101807,-1.3427734375,1.0833740234375,6.65283203125
1.5537499,9.160215377807617,-3.624821424484253,2.2601263523101807,-1.3427734375,1.0833740234375,6.65283203125
1.5562498999999999,9.05487060546875,-3.603273630142212,2.0805611610412598,-0.79345703125,0.48828125,6.6986083984375
1.5587499,9.05487060546875,-3.603273630142212,2.0805611610412598,-0.79345703125,0.48828125,6.6986083984375
1.5612499,8.983044624328613,-3.620033025741577,1.900996208190918,-0.3204345703125,-0.2288818359375,6.927490234375
1.5637499,8.983044624328613,-3.620033025741577,1.900996208190918,-0.3204345703125,-0.2288818359375,6.927490234375
1.5662498999999999,8.968679428100586,-3.6080620288848877,1.8076223134994507,0.152587890625,-0.457763671875,6.3629150390625
1.5687499,8.968679428100586,-3.6080620288848877,1.8076223134994507,0.152587890625,-0.457763671875,6.3629150390625
1.5712499,8.96149730682373,-3.507505416870117,1.8148049116134644,0.335693359375,-0.91552734375,5.9356689453125
1.5737499,8.96149730682373,-3.507505416870117,1.8148049116134644,0.335693359375,-0.91552734375,5.9356689453125
1.5762498999999999,8.932766914367676,-3.378218650817871,1.8124107122421265,0.213623046875,-1.617431640625,5.2947998046875
1.5787499,8.932766914367676,-3.378218650817871,1.8124107122421265,0.213623046875,-1.617431640625,5.2947998046875
1.5812499,8.899248123168945,-3.3710360527038574,1.7094600200653076,-0.579833984375,-2.410888671875,4.69970703125
1.5837499,8.899248123168945,-3.3710360527038574,1.7094600200653076,-0.579833984375,-2.410888671875,4.69970703125
1.5862498999999999,8.882488250732422,-3.4620156288146973,1.577778935432434,-0.823974609375,-3.631591796875,4.1656494140625
1.5887499,8.882488250732422,-3.4620156288146973,1.577778935432434,-0.823974609375,-3.631591796875,4.1656494140625
1.5912499,8.89445972442627,-3.512293815612793,1.5634137392044067,-1.3427734375,-4.0130615234375,3.448486328125
1.5937499,8.89445972442627,-3.512293815612793,1.5634137392044067,-1.3427734375,-4.0130615234375,3.448486328125
1.5962498999999999,8.908824920654297,-3.423708438873291,1.6831238269805908,-2.0294189453125,-4.69970703125,2.25830078125
1.5987499,8.908824920654297,-3.423708438873291,1.6831238269805908,-2.0294189453125,-4.69970703125,2.25830078125
1.6012499,8.899248123168945,-3.2345664501190186,1.8148049116134644,-4.0740966796875,-5.3863525390625,1.190185546875
1.6037499,8.899248123168945,-3.2345664501190186,1.8148049116134644,-4.0740966796875,-5.3863525390625,1.190185546875
1.6062499,8.925583839416504,-3.1507694721221924,1.8722656965255737,-6.378173828125,-5.6915283203125,0.0152587890625
1.6087498999999998,8.925583839416504,-3.1507694721221924,1.8722656965255737,-6.378173828125,-5.6915283203125,0.0152587890625
1.6112499,9.028534889221191,-3.3207578659057617,1.8291701078414917,-8.087158203125,-6.072998046875,-0.7476806640625
1.6137499,9.028534889221191,-3.3207578659057617,1.8291701078414917,-8.087158203125,-6.072998046875,-0.7476806640625
1.6162499,9.21288776397705,-3.6607344150543213,1.6974890232086182,-9.3231201171875,-5.4473876953125,-1.007080078125
1.6187498999999999,9.21288776397705,-3.6607344150543213,1.6974890232086182,-9.3231201171875,-5.4473876953125,-1.007080078125
1.6212499,9.368511199951172,-3.9240965843200684,1.5753847360610962,-10.07080078125,-4.94384765625,-0.701904296875
1.6237499,9.378087997436523,-3.9863457679748535,1.556231141090393,-10.4217529296875,-4.6539306640625,-0.6561279296875
1.6262499,9.344569206237793,-4.005499362945557,1.5753847360610962,-10.7269287109375,-4.6234130859375,-0.701904296875
1.6287498999999999,9.275136947631836,-3.995922565460205,1.625662922859192,-10.7574462890625,-4.69970703125,-0.5645751953125
1.6312499,9.20091724395752,-3.976768970489502,1.702277421951294,-11.0931396484375,-4.547119140625,-0.4730224609375
1.6337499,9.141061782836914,-3.9384617805480957,1.778891921043396,-11.23046875,-4.5166015625,-0.823974609375
1.6362499,9.097966194152832,-3.88818359375,1.8507179021835327,-11.2457275390625,-4.608154296875,-1.2359619140625
1.6387498999999999,9.078812599182129,-3.8331170082092285,1.8842366933822632,-11.474609375,-4.547119140625,-1.4190673828125
1.6412499,9.083600997924805,-3.77565598487854,1.8938134908676147,-11.2762451171875,-4.730224609375,-1.739501953125
1.6437499,9.097966194152832,-3.7277719974517822,1.8555063009262085,-10.7574462890625,-4.8980712890625,-2.25830078125
1.6462499,9.126696586608887,-3.6942532062530518,1.7956513166427612,-10.4827880859375,-5.126953125,-2.7313232421875
1.6487498999999999,9.167398452758789,-3.6798880100250244,1.7118542194366455,-10.1165771484375,-5.06591796875,-3.0975341796875
1.6512499,9.210494041442871,-3.6822822093963623,1.6352397203445435,-9.33837890625,-4.5166015625,-3.7689208984375
1.6537499,9.253589630126953,-3.708618402481079,1.5705963373184204,-8.6669921875,-4.302978515625,-4.5623779296875
1.6562499,9.279925346374512,-3.7469255924224854,1.53707754611969,-8.0718994140625,-4.241943359375,-5.0506591796875
1.6587498999999999,9.282320022583008,-3.778050184249878,1.5418659448623657,-7.50732421875,-4.364013671875,-5.4168701171875
1.6612499,9.260771751403809,-3.7876269817352295,1.5825673341751099,-7.1868896484375,-4.2724609375,-5.55419921875
1.6637499,9.224859237670898,-3.7636849880218506,1.656787633895874,-7.049560546875,-4.1961669921875,-5.55419921875
1.6662499,9.169792175292969,-3.7014358043670654,1.7477672100067139,-7.2174072265625,-4.241943359375,-6.195068359375
1.6687499,9.119514465332031,-3.620033025741577,1.8291701078414917,-7.415771484375,-4.5013427734375,-6.5155029296875
1.6712498999999998,9.074024200439453,-3.5458126068115234,1.900996208190918,-7.843017578125,-4.6844482421875,-6.622314453125
1.6737499,9.035717010498047,-3.4955344200134277,1.9369091987609863,-8.48388671875,-4.82177734375,-7.0953369140625
1.6762499,9.026140213012695,-3.4811692237854004,1.9393033981323242,-8.97216796875,-4.7454833984375,-7.293701171875
1.6787499,9.035717010498047,-3.490746021270752,1.9153614044189453,-9.1552734375,-4.57763671875,-7.568359375
1.6812498999999999,9.069235801696777,-3.49314022064209,1.8698714971542358,-9.552001953125,-4.6234130859375,-7.476806640625
1.6837499,9.121908187866211,-3.471592426300049,1.800439715385437,-10.4522705078125,-4.486083984375,-7.537841796875
1.6862499,9.169792175292969,-3.4117374420166016,1.7046716213226318,-11.90185546875,-3.875732421875,-7.3699951171875
1.6887499,9.208099365234375,-3.3231520652770996,1.6065093278884888,-13.641357421875,-3.5400390625,-7.293701171875
1.6912498999999999,9.208099365234375,-3.227383852005005,1.5155296325683594,-16.0369873046875,-3.3721923828125,-7.2784423828125
1.6937499,9.172186851501465,-3.1459810733795166,1.4628572463989258,-18.4783935546875,-3.3721923828125,-7.080078125
1.6962499,9.107542991638184,-3.0789434909820557,1.4437036514282227,-20.843505859375,-3.204345703125,-6.9580078125
1.6987499,9.042900085449219,-3.023876667022705,1.4389152526855469,-23.162841796875,-3.021240234375,-6.7138671875
1.7012498999999999,8.999804496765137,-2.964021682739258,1.4197616577148438,-25.848388671875,-2.9296875,-6.8206787109375
1.7037499,8.975862503051758,-2.892195701599121,1.3718775510787964,-28.594970703125,-2.8533935546875,-6.9122314453125
1.7062499,8.96389102935791,-2.808398485183716,1.3072341680526733,-31.6162109375,-2.8076171875,-7.049560546875
1.7087499,8.939949035644531,-2.717418909072876,1.2425906658172607,-34.332275390625,-2.74658203125,-7.354736328125
1.7112498999999999,8.89685344696045,-2.6240451335906982,1.1994950771331787,-37.2467041015625,-3.021240234375,-7.568359375
1.7137499,8.832210540771484,-2.535459518432617,1.2018892765045166,-39.886474609375,-3.2196044921875,-8.11767578125
1.7162499,8.760383605957031,-2.4588451385498047,1.2449848651885986,-42.4346923828125,-3.5858154296875,-8.6212158203125
1.7187499,8.69334602355957,-2.410961151123047,1.3335703611373901,-45.2728271484375,-3.875732421875,-9.002685546875
1.7212498999999999,8.652645111083984,-2.3942017555236816,1.4437036514282227,-47.576904296875,-4.5928955078125,-9.5672607421875
1.7237499,8.65743350982666,-2.4133553504943848,1.5514427423477173,-49.62158203125,-5.4168701171875,-10.345458984375
1.7262499,8.71489429473877,-2.4660277366638184,1.6376339197158813,-51.4984130859375,-5.615234375,-10.80322265625
1.7287499,8.813055992126465,-2.561795711517334,1.6759412288665771,-53.3294677734375,-5.18798828125,-11.2762451171875
1.7312499,8.937555313110352,-2.719813108444214,1.659181833267212,-54.290771484375,-4.730224609375,-11.7034912109375
1.7337498999999998,9.047688484191895,-2.9664158821105957,1.5969325304031372,-54.5806884765625,-4.425048828125,-12.26806640625
1.7362499,9.131484985351562,-3.3016040325164795,1.5107412338256836,-54.0924072265625,-3.84521484375,-12.4053955078125
1.7387499,9.172186851501465,-3.706224203109741,1.4101848602294922,-52.8717041015625,-3.60107421875,-12.2222900390625
1.7412499,9.184157371520996,-4.141968727111816,1.3239935636520386,-50.6591796875,-3.448486328125,-11.9171142578125
1.7437498999999999,9.181763648986816,-4.568136692047119,1.2641384601593018,-47.8363037109375,-2.8228759765625,-11.23046875
1.7462499,9.17697525024414,-4.948814868927002,1.2330138683319092,-44.0216064453125,-2.8839111328125,-10.345458984375
1.7487499,9.17697525024414,-5.288791656494141,1.2330138683319092,-39.6728515625,-2.4871826171875,-9.735107421875
1.7512499,9.17697525024414,-5.580883979797363,1.2737152576446533,-35.1409912109375,-2.38037109375,-8.7432861328125
1.7537498999999999,9.174580574035645,-5.832275390625,1.335964560508728,-30.303955078125,-2.1514892578125,-7.5531005859375
1.7562499,9.165003776550293,-6.045359134674072,1.4053963422775269,-24.7039794921875,-1.7852783203125,-6.500244140625
1.7587499,9.157821655273438,-6.210559368133545,1.4748282432556152,-18.7530517578125,-1.46484375,-5.31005859375
1.7612499,9.157821655273438,-6.31829833984375,1.5203180313110352,-13.0462646484375,-1.2664794921875,-4.0283203125
1.7637498999999999,9.17697525024414,-6.361393928527832,1.5394717454910278,-7.2021484375,-0.732421875,-2.5482177734375
1.7662499,9.210494041442871,-6.3302693367004395,1.525106430053711,-1.4495849609375,-0.0762939453125,-1.2359619140625
1.7687499,9.265560150146484,-6.2392897605896,1.4652514457702637,4.2266845703125,0.579833984375,-0.3509521484375
1.7712499,9.32302188873291,-6.100425720214844,1.359906554222107,9.490966796875,1.3275146484375,0.3509521484375
1.7737498999999999,9.375694274902344,-5.949591159820557,1.2282254695892334,14.251708984375,2.197265625,1.0528564453125
1.7762499,9.406818389892578,-5.810727596282959,1.0869675874710083,19.2108154296875,3.23486328125,1.64794921875
1.7787499,9.423578262329102,-5.69580602645874,0.9648633003234863,24.1851806640625,4.1961669921875,2.2735595703125
1.7812499,9.430760383605957,-5.592854976654053,0.8667010068893433,28.9459228515625,5.0506591796875,2.7923583984375
1.7837498999999999,9.435548782348633,-5.4875102043151855,0.8020575642585754,33.5845947265625,6.134033203125,3.60107421875
1.7862499,9.437943458557129,-5.3797712326049805,0.7661445140838623,37.750244140625,7.7667236328125,4.08935546875
1.7887499,9.423578262329102,-5.281609058380127,0.7541735172271729,41.4276123046875,8.453369140625,4.241943359375
1.7912499,9.387664794921875,-5.20978307723999,0.7637503147125244,45.3033447265625,9.429931640625,4.5318603515625
1.7937499,9.334992408752441,-5.1595048904418945,0.790086567401886,49.4384765625,10.4217529296875,4.5623779296875
1.7962498999999998,9.289502143859863,-5.1116204261779785,0.8092401623725891,53.3447265625,11.1083984375,4.7760009765625
1.7987499,9.275136947631836,-5.032611846923828,0.8068459630012512,56.365966796875,12.0849609375,4.8675537109375
1.8012499,9.299078941345215,-4.927267074584961,0.768538773059845,58.837890625,13.427734375,4.8980712890625
1.8037499,9.354146003723145,-4.790797710418701,0.689530074596405,60.882568359375,14.8773193359375,5.0201416015625
1.8062498999999999,9.409213066101074,-4.661510944366455,0.6057330369949341,62.6678466796875,16.845703125,4.791259765625
1.8087499,9.442731857299805,-4.546588897705078,0.5386953949928284,63.995361328125,18.61572265625,4.9896240234375
1.8112499,9.437943458557129,-4.455609321594238,0.5099649429321289,65.3839111328125,19.9432373046875,5.1727294921875
1.8137499,9.402029991149902,-4.359841346740723,0.5219359993934631,66.6351318359375,21.0418701171875,5.1727294921875
1.8162498999999999,9.346963882446289,-4.2329487800598145,0.5626373887062073,67.6727294921875,22.2015380859375,5.340576171875
1.8187499,9.272743225097656,-4.048594951629639,0.6153098344802856,67.9168701171875,23.3154296875,5.06591796875
1.8212499,9.196128845214844,-3.804386615753174,0.667982280254364,67.535400390625,24.0478515625,4.8980712890625
1.8237499,9.119514465332031,-3.514688014984131,0.7134721279144287,66.3604736328125,24.9786376953125,4.3792724609375
1.8262498999999999,9.05247688293457,-3.2154128551483154,0.7445967197418213,64.5599365234375,25.9246826171875,3.9215087890625
1.8287499,8.999804496765137,-2.940079689025879,0.7565677165985107,62.5762939453125,26.6571044921875,3.2501220703125
1.8312499,8.956708908081055,-2.719813108444214,0.7661445140838623,60.516357421875,27.6031494140625,2.227783203125
1.8337499,8.925583839416504,-2.58813214302063,0.7829039692878723,58.1207275390625,28.717041015625,1.0528564453125
1.8362498999999999,8.9064302444458,-2.540247917175293,0.8164227604866028,55.877685546875,29.388427734375,0.335693359375
1.8387499,8.904036521911621,-2.5546131134033203,0.8834604024887085,54.229736328125,30.029296875,-0.213623046875
1.8412499,8.918401718139648,-2.6024973392486572,0.9624691009521484,52.581787109375,31.0821533203125,-0.701904296875
1.8437499,8.944737434387207,-2.6408045291900635,1.048660397529602,50.7965087890625,31.9671630859375,-1.4801025390625
1.8462498999999999,8.978256225585938,-2.691082715988159,1.1109095811843872,48.858642578125,32.5927734375,-2.0751953125
1.8487499,9.011775016784668,-2.7676970958709717,1.139639973640442,47.36328125,33.38623046875,-2.5482177734375
1.8512499,9.050082206726074,-2.9281086921691895,1.1276689767837524,46.112060546875,34.2864990234375,-3.387451171875
1.8537499,9.100360870361328,-3.2082302570343018,1.0893617868423462,45.9747314453125,35.400390625,-4.1961669921875
1.8562499,9.155426979064941,-3.6176388263702393,1.0582371950149536,46.966552734375,36.8499755859375,-4.6234130859375
1.8587498999999998,9.215282440185547,-4.137180328369141,1.0797849893569946,49.4537353515625,38.0096435546875,-4.2724609375
1.8612499,9.253589630126953,-4.721365928649902,1.161187767982483,53.5888671875,38.970947265625,-3.9520263671875
1.8637499,9.27034854888916,-5.307945251464844,1.3048399686813354,58.5479736328125,39.7796630859375,-3.936767578125
1.8662499,9.260771751403809,-5.858611583709717,1.4676456451416016,63.96484375,40.618896484375,-3.1585693359375
1.8687498999999999,9.246406555175781,-6.344634532928467,1.6136919260025024,70.25146484375,41.748046875,-2.3956298828125
1.8712499,9.255983352661133,-6.777985095977783,1.6903064250946045,77.423095703125,42.78564453125,-1.800537109375
1.8737499,9.306262016296387,-7.184999465942383,1.680729627609253,85.38818359375,44.25048828125,-1.1749267578125
1.8762499,9.38048267364502,-7.5968017578125,1.6041151285171509,94.8486328125,46.295166015625,-0.8087158203125
1.8787498999999999,9.47146224975586,-8.054094314575195,1.50355863571167,104.8431396484375,48.4161376953125,-0.335693359375
1.8812499,9.5408935546875,-8.544905662536621,1.414973258972168,116.6229248046875,50.5218505859375,0.42724609375
1.8837499,9.603142738342285,-9.057265281677246,1.3670891523361206,130.218505859375,51.9866943359375,1.4801025390625
1.8862499,9.641449928283691,-9.524134635925293,1.3407529592514038,145.1568603515625,53.466796875,2.685546875
1.8887498999999999,9.694122314453125,-9.90241813659668,1.3335703611373901,160.82763671875,55.0537109375,3.7078857421875
1.8912499,9.737217903137207,-10.15141487121582,1.3215993642807007,176.26953125,57.0526123046875,4.82177734375
1.8937499,9.770736694335938,-10.273519515991211,1.3120225667953491,191.436767578125,59.112548828125,5.67626953125
1.8962499,9.785101890563965,-10.278307914733887,1.316810965538025,206.6802978515625,61.1114501953125,6.65283203125
1.8987498999999999,9.739612579345703,-10.163386344909668,1.3287819623947144,222.0916748046875,62.591552734375,7.568359375
1.9012499,9.660603523254395,-9.93354320526123,1.3646949529647827,236.63330078125,63.8580322265625,8.7127685546875
1.9037499,9.567230224609375,-9.5624418258667,1.41257905960083,249.4964599609375,65.185546875,9.5672607421875
1.9062499,9.473855972290039,-9.050082206726074,1.460463047027588,261.8560791015625,66.7572021484375,10.1165771484375
1.9087498999999999,9.411606788635254,-8.439560890197754,1.4939818382263184,272.3541259765625,68.267822265625,10.345458984375
1.9112499,9.35893440246582,-7.738059997558594,1.501164436340332,281.646728515625,69.6258544921875,10.406494140625
1.9137499,9.30386734008789,-6.981492042541504,1.4844050407409668,289.7796630859375,70.770263671875,10.589599609375
1.9162499,9.222464561462402,-6.145915985107422,1.4867992401123047,295.684814453125,71.3348388671875,10.467529296875
1.9187499,9.069235801696777,-5.212177276611328,1.5155296325683594,299.9420166015625,71.6400146484375,10.3302001953125
1.9212498999999998,8.820239067077637,-4.1180267333984375,1.5969325304031372,301.788330078125,70.892333984375,10.040283203125
1.9237499,8.47786808013916,-2.8778305053710938,1.7357962131500244,300.3082275390625,69.1986083984375,9.5977783203125
1.9262499,8.058882713317871,-1.4460978507995605,1.9153614044189453,296.4324951171875,66.7266845703125,7.87353515625
1.9287499,7.673416614532471,0.090979665517807,2.1499931812286377,288.8946533203125,64.1326904296875,6.3018798828125
1.9312498999999999,7.338228225708008,1.7621324062347412,2.4157495498657227,278.9764404296875,61.5692138671875,3.936767578125
1.9337499,7.082048416137695,3.464409828186035,2.717418909072876,266.4947509765625,58.9752197265625,1.800537109375
1.9362499,6.845022678375244,5.154716491699219,3.050212860107422,248.016357421875,55.511474609375,0.1068115234375
1.9387499,6.600813865661621,6.813898086547852,3.3854012489318848,227.5390625,51.6357421875,-1.800537109375
1.9412498999999999,6.339846134185791,8.427590370178223,3.734954595565796,204.9713134765625,46.417236328125,-4.1961669921875
1.9437499,6.078877925872803,10.022128105163574,4.0533833503723145,178.0242919921875,41.5802001953125,-6.8359375
1.9462499,5.880159378051758,11.595118522644043,4.323928356170654,146.697998046875,36.6668701171875,-9.429931640625
1.9487499,5.743690013885498,13.10107135772705,4.527435302734375,110.2294921875,31.4483642578125,-11.71875
1.9512498999999999,5.705382823944092,14.444218635559082,4.639962673187256,71.441650390625,26.3214111328125,-13.641357421875
1.9537499,5.736507415771484,15.526397705078125,4.666299343109131,30.70068359375,21.728515625,-14.9993896484375
1.9562499,5.825092792510986,16.321273803710938,4.627991676330566,-12.63427734375,17.059326171875,-15.2130126953125
1.9587499,5.8657941818237305,16.867151260375977,4.481945514678955,-56.8695068359375,12.176513671875,-15.3656005859375
1.9612498999999999,5.8442463874816895,17.19276237487793,4.256890773773193,-102.1881103515625,6.3629150390625,-15.0146484375
1.9637499,5.722142219543457,17.38429832458496,3.9025487899780273,-149.9481201171875,0.42724609375,-14.678955078125
1.9662499,5.540182590484619,17.489643096923828,3.4308910369873047,-198.1964111328125,-5.37109375,-14.95361328125
1.9687499,5.355829238891602,17.530344009399414,2.853888511657715,-246.6278076171875,-11.04736328125,-15.5792236328125
1.9712498999999999,5.233725070953369,17.55668067932129,2.2002713680267334,-296.1273193359375,-16.5863037109375,-15.7928466796875
1.9737499,5.207388877868652,17.580623626708984,1.4939818382263184,-345.123291015625,-22.0489501953125,-15.289306640625
1.9762499,5.293580055236816,17.575834274291992,0.7637503147125244,-393.85986328125,-27.0843505859375,-14.8773193359375
1.9787499,5.475539207458496,17.492036819458008,0.026336219161748886,-441.680908203125,-31.67724609375,-14.5416259765625
1.9812499,5.710171222686768,17.286136627197266,-0.6967126727104187,-487.60986328125,-36.163330078125,-14.70947265625
1.9837499,5.959167957305908,16.95094871520996,-1.4077905416488647,-500,-40.9393310546875,-15.3350830078125
1.9862499,6.186617374420166,16.503232955932617,-2.1380221843719482,-500,-45.5169677734375,-16.11328125
1.9887499,6.404489517211914,15.928624153137207,-2.959233283996582,-500,-49.835205078125,-16.845703125
1.9912499,6.607996463775635,15.109807014465332,-3.9647979736328125,-500,-53.253173828125,-18.7225341796875
1.9937498999999999,6.811503887176514,13.819332122802734,-5.082890033721924,-500,-55.0537109375,-21.8658447265625
1.9962499,6.914454460144043,11.860875129699707,-6.203376770019531,-500,-55.389404296875,-25.390625
1.9987499,6.964732646942139,9.258378028869629,-7.187393665313721,-500,-57.9986572265625,-27.2216796875
2.0012499,6.9910688400268555,6.244078159332275,-7.948749542236328,-500,-62.0880126953125,-27.099609375
2.0037499,7.129932880401611,3.112462282180786,-8.525752067565918,-500,-65.3076171875,-27.3590087890625
2.0062499,7.491456985473633,0.05746084079146385,-8.908824920654297,-500,-66.5130615234375,-29.2816162109375
2.0087498999999998,8.054094314575195,-2.918531894683838,-9.10993766784668,-500,-65.7196044921875,-32.5164794921875
2.0112499,8.736441612243652,-5.937620162963867,-9.07641887664795,-500,-65.765380859375,-34.60693359375
2.0137499,9.440337181091309,-9.030928611755371,-8.858546257019043,-500,-66.71142578125,-34.3017578125
2.0162499,10.110713958740234,-12.267889976501465,-8.508993148803711,-500,-66.9097900390625,-32.3638916015625
2.0187499,10.714052200317383,-15.739481925964355,-8.030152320861816,-500,-65.3228759765625,-30.303955078125
2.0212499,11.226411819458008,-19.50077247619629,-7.383718013763428,-500,-63.5223388671875,-28.74755859375
2.0237499,11.628637313842773,-23.57809829711914,-6.514622688293457,-500,-62.3779296875,-25.20751953125
2.0262499,11.959037780761719,-27.854143142700195,-5.398924827575684,-500,-61.370849609375,-18.8140869140625
2.0287498999999998,12.267889976501465,-32.03681182861328,-4.129997730255127,-483.5357666015625,-59.4635009765625,-10.6964111328125
2.0312499,12.610260009765625,-35.85795974731445,-2.7988216876983643,-408.416748046875,-55.9844970703125,-0.5340576171875
2.0337499,12.983756065368652,-39.018306732177734,-1.4891934394836426,-328.6895751953125,-50.6591796875,9.7808837890625
2.0362499,13.330915451049805,-41.30955505371094,-0.29209262132644653,-246.1090087890625,-44.586181640625,20.3857421875
2.0387499,13.589488983154297,-42.621578216552734,0.7589619159698486,-163.360595703125,-37.994384765625,31.1737060546875
2.0412499,13.692439079284668,-42.928035736083984,1.5753847360610962,-80.4901123046875,-31.524658203125,41.6412353515625
2.0437499,13.651738166809082,-42.336669921875,2.1045033931732178,0.3814697265625,-24.8870849609375,51.2237548828125
2.0462499,13.505691528320312,-41.01746368408203,2.2816741466522217,78.6590576171875,-18.280029296875,59.5703125
2.0487499,13.323732376098633,-39.19068908691406,2.078166961669922,154.4952392578125,-11.8255615234375,66.5740966796875
2.0512498999999997,13.168108940124512,-37.06224060058594,1.525106430053711,227.1575927734375,-4.57763671875,71.746826171875
2.0537499,13.053187370300293,-34.76859664916992,0.6727706789970398,296.38671875,2.8228759765625,75.5767822265625
2.0562499,12.959814071655273,-32.37918472290039,-0.38307225704193115,362.1063232421875,9.796142578125,79.0557861328125
2.0587499,12.854469299316406,-29.88681983947754,-1.5538369417190552,423.736572265625,16.4337158203125,81.1004638671875
2.0612499,12.689269065856934,-27.269956588745117,-2.7437551021575928,480.682373046875,22.3846435546875,81.1309814453125
2.0637499,12.440272331237793,-24.55253791809082,-3.885789394378662,499.9847412109375,27.7862548828125,79.4219970703125
2.0662499,12.1194486618042,-21.789628982543945,-4.941632270812988,499.9847412109375,32.0587158203125,76.5228271484375
2.0687499,11.753135681152344,-19.09375762939453,-5.872976779937744,499.9847412109375,35.064697265625,72.6165771484375
2.0712498999999998,11.403582572937012,-16.563087463378906,-6.672640323638916,499.9847412109375,37.5213623046875,68.2830810546875
2.0737499,11.133037567138672,-14.269442558288574,-7.311892032623291,499.9847412109375,39.8101806640625,63.96484375
2.0762499,10.955866813659668,-12.210428237915039,-7.795520782470703,499.9847412109375,42.633056640625,59.1278076171875
2.0787499,10.881647109985352,-10.340557098388672,-8.123526573181152,499.9847412109375,45.928955078125,54.5806884765625
2.0812499,10.910377502441406,-6.861782073974609,-8.322244644165039,499.9847412109375,52.154541015625,45.684814453125
2.0837499,10.910377502441406,-6.861782073974609,-8.322244644165039,499.9847412109375,52.154541015625,45.684814453125
2.0862499,10.60152530670166,-3.2417490482330322,-7.615955829620361,499.9847412109375,55.5267333984375,36.4227294921875
2.0887499,10.60152530670166,-3.2417490482330322,-7.615955829620361,499.9847412109375,55.5267333984375,36.4227294921875
2.0912498999999998,10.101137161254883,1.0606313943862915,-5.75326681137085,499.9847412109375,54.931640625,28.7933349609375
2.0937499,10.101137161254883,1.0606313943862915,-5.75326681137085,499.9847412109375,54.931640625,28.7933349609375
2.0962499,9.727641105651855,6.588842868804932,-3.270479440689087,499.9847412109375,55.389404296875,16.1895751953125
2.0987499,9.727641105651855,6.588842868804932,-3.270479440689087,499.9847412109375,55.389404296875,16.1895751953125
2.1012499,9.239224433898926,11.820174217224121,-0.6847416758537292,499.9847412109375,56.884765625,4.638671875
2.1037499,9.239224433898926,11.820174217224121,-0.6847416758537292,499.9847412109375,56.884765625,4.638671875
2.1062499,8.513781547546387,15.203181266784668,1.5945383310317993,470.9930419921875,50.78125,-5.4931640625
2.1087499,8.513781547546387,15.203181266784668,1.5945383310317993,470.9930419921875,50.78125,-5.4931640625
2.1112499,7.577648162841797,17.937358856201172,2.9305028915405273,360.16845703125,42.724609375,-16.0369873046875
2.1137498999999997,7.577648162841797,17.937358856201172,2.9305028915405273,360.16845703125,42.724609375,-16.0369873046875
2.1162499,6.746860504150391,20.099323272705078,3.3518824577331543,237.60986328125,30.7769775390625,-20.1873779296875
2.1187499,6.746860504150391,20.099323272705078,3.3518824577331543,237.60986328125,30.7769775390625,-20.1873779296875
2.1212499,6.1267619132995605,21.729774475097656,3.1747114658355713,110.382080078125,16.66259765625,-23.8189697265625
2.1237499,6.1267619132995605,21.729774475097656,3.1747114658355713,110.382080078125,16.66259765625,-23.8189697265625
2.1262499,5.6910176277160645,23.889345169067383,2.6455929279327393,-37.0025634765625,2.105712890625,-28.045654296875
2.1287499,5.6910176277160645,23.889345169067383,2.6455929279327393,-37.0025634765625,2.105712890625,-28.045654296875
2.1312499,5.544970989227295,25.51979637145996,1.7812861204147339,-179.4891357421875,-12.5579833984375,-30.7464599609375
2.1337498999999998,5.544970989227295,25.51979637145996,1.7812861204147339,-179.4891357421875,-12.5579833984375,-30.7464599609375
2.1362499,5.722142219543457,25.349807739257812,0.31364041566848755,-313.934326171875,-22.369384765625,-35.2630615234375
2.1387499,5.722142219543457,25.349807739257812,0.31364041566848755,-313.934326171875,-22.369384765625,-35.2630615234375
2.1412499,5.762843608856201,23.901315689086914,-1.5921441316604614,-444.5953369140625,-33.7982177734375,-38.9251708984375
2.1437499,5.762843608856201,23.901315689086914,-1.5921441316604614,-444.5953369140625,-33.7982177734375,-38.9251708984375
2.1462499,5.779603004455566,21.98834800720215,-3.6942532062530518,-500,-46.1273193359375,-42.9534912109375
2.1487499,5.779603004455566,21.98834800720215,-3.6942532062530518,-500,-46.1273193359375,-42.9534912109375
2.1512499,6.4380083084106445,19.208681106567383,-5.7987565994262695,-500,-51.81884765625,-48.126220703125
2.1537498999999998,6.4380083084106445,19.208681106567383,-5.7987565994262695,-500,-51.81884765625,-48.126220703125
2.1562499,7.465120792388916,14.645331382751465,-7.836222171783447,-500,-53.680419921875,-54.4586181640625
2.1587499,7.465120792388916,14.645331382751465,-7.836222171783447,-500,-53.680419921875,-54.4586181640625
2.1612499,8.130708694458008,7.8529815673828125,-9.385271072387695,-500,-52.55126953125,-60.699462890625
2.1637499,8.130708694458008,7.8529815673828125,-9.385271072387695,-500,-52.55126953125,-60.699462890625
2.1662499,8.38449478149414,-0.13168109953403473,-9.643844604492188,-500,-56.6558837890625,-60.6842041015625
2.1687499,8.38449478149414,-0.13168109953403473,-9.643844604492188,-500,-56.6558837890625,-60.6842041015625
2.1712499,8.980650901794434,-7.280767440795898,-8.939949035644531,-500,-59.417724609375,-59.478759765625
2.1737499,8.980650901794434,-7.280767440795898,-8.939949035644531,-500,-59.417724609375,-59.478759765625
2.1762499,10.218452453613281,-13.759477615356445,-7.922413349151611,-500,-57.0526123046875,-56.1370849609375
2.1787499,10.218452453613281,-13.759477615356445,-7.922413349151611,-500,-57.0526123046875,-56.1370849609375
2.1812499,11.35809326171875,-21.562179565429688,-6.469132900238037,-500,-54.3060302734375,-46.3409423828125
2.1837499,11.35809326171875,-21.562179565429688,-6.469132900238037,-500,-54.3060302734375,-46.3409423828125
2.1862499,12.047622680664062,-30.904356002807617,-4.299986362457275,-500,-51.1474609375,-27.6947021484375
2.1887499,12.047622680664062,-30.904356002807617,-4.299986362457275,-500,-51.1474609375,-27.6947021484375
2.1912499,12.631808280944824,-39.38461685180664,-1.5825673341751099,-348.724365234375,-43.9605712890625,-3.7384033203125
2.1937499,12.866439819335938,-42.374977111816406,-0.27054479718208313,-260.284423828125,-38.26904296875,8.7127685546875
2.1962498999999998,12.978967666625977,-44.26879119873047,0.8643068075180054,-171.8597412109375,-31.67724609375,20.56884765625
2.1987499,12.87362289428711,-45.01338577270508,1.7046716213226318,-84.41162109375,-25.421142578125,31.707763671875
2.2012499,12.559982299804688,-44.728477478027344,2.185906171798706,3.0670166015625,-20.5535888671875,42.4346923828125
2.2037499,12.09550666809082,-43.61277770996094,2.2840683460235596,88.7298583984375,-16.3726806640625,51.6204833984375
2.2062499,11.60708999633789,-41.888954162597656,1.9800047874450684,171.3714599609375,-12.3443603515625,59.38720703125
2.2087499,11.202469825744629,-39.753326416015625,1.2880805730819702,249.908447265625,-8.8043212890625,65.9942626953125
2.2112499,10.975020408630371,-37.34954833984375,0.2537853717803955,325.1495361328125,-4.4708251953125,71.8231201171875
2.2137499,10.915165901184082,-34.770992279052734,-1.036689281463623,396.514892578125,0.4119873046875,76.171875
2.2162498999999998,10.967838287353516,-32.04399490356445,-2.4684219360351562,463.348388671875,5.4779052734375,79.0557861328125
2.2187499,11.044452667236328,-29.194894790649414,-3.936067581176758,499.9847412109375,10.1165771484375,80.3680419921875
2.2212499,11.05642318725586,-26.24284553527832,-5.329493045806885,499.9847412109375,14.1143798828125,79.925537109375
2.2237499,10.96544361114502,-23.238121032714844,-6.574477672576904,499.9847412109375,16.8609619140625,78.765869140625
2.2262499,10.776301383972168,-20.23100471496582,-7.637503623962402,499.9847412109375,18.951416015625,77.0721435546875
2.2287499,10.522516250610352,-17.269376754760742,-8.49941635131836,499.9847412109375,21.05712890625,74.066162109375
2.2312499,10.261548042297363,-14.410699844360352,-9.155426979064941,499.9847412109375,22.8729248046875,70.6634521484375
2.2337499,10.031704902648926,-11.671732902526855,-9.617507934570312,499.9847412109375,24.749755859375,67.0013427734375
2.2362499,9.742006301879883,-9.042900085449219,-9.837775230407715,499.9847412109375,26.519775390625,62.5457763671875
2.2387499,9.375694274902344,-6.418854713439941,-9.730035781860352,499.9847412109375,26.5350341796875,57.18994140625
2.2412499,9.07641887664795,-3.866635799407959,-9.30386734008789,499.9847412109375,23.8189697265625,52.55126953125
2.2437499,8.846575736999512,-0.9768342971801758,-8.549694061279297,499.9847412109375,23.1475830078125,47.5006103515625
2.2462499,8.820239067077637,2.2840683460235596,-7.565677165985107,499.9847412109375,25.4058837890625,39.00146484375
2.2487499,8.911218643188477,5.8657941818237305,-6.421248912811279,499.9847412109375,28.8238525390625,29.0069580078125
2.2512499,9.071630477905273,9.366117477416992,-5.145139217376709,499.9847412109375,30.792236328125,20.3857421875
2.2537499,9.107542991638184,12.358869552612305,-3.797203779220581,499.9847412109375,32.40966796875,13.580322265625
2.2562499,9.186552047729492,14.61420726776123,-2.3080103397369385,499.9847412109375,33.02001953125,7.01904296875
2.2587498999999998,9.14585018157959,16.15607261657715,-0.8547300100326538,499.9847412109375,35.3851318359375,0.3204345703125
2.2612499,8.975862503051758,17.3795108795166,0.5578489899635315,499.9847412109375,37.017822265625,-6.622314453125
2.2637499,8.585607528686523,18.432958602905273,1.7501614093780518,470.2606201171875,35.4766845703125,-13.1988525390625
2.2662499,8.008605003356934,19.407398223876953,2.671929121017456,412.8265380859375,31.5399169921875,-18.1427001953125
2.2687499,7.319074630737305,20.35310935974121,3.2752678394317627,348.480224609375,25.87890625,-21.5606689453125
2.2712499,6.718130111694336,21.174320220947266,3.6080620288848877,279.2816162109375,20.4315185546875,-23.92578125
2.2737499,6.260837554931641,21.74892807006836,3.7038300037384033,207.8399658203125,15.350341796875,-25.3143310546875
2.2762499,6.016628742218018,22.033838272094727,3.667917013168335,137.542724609375,9.3231201171875,-25.177001953125
2.2787498999999998,5.918466567993164,22.06256866455078,3.5194764137268066,68.450927734375,2.4871826171875,-25.634765625
2.2812499,5.963956356048584,21.904550552368164,3.3446998596191406,-0.885009765625,-3.6163330078125,-26.2603759765625
2.2837499,6.124367713928223,21.63400650024414,3.1531636714935303,-70.343017578125,-9.002685546875,-25.9857177734375
2.2862499,6.366182327270508,21.313182830810547,2.892195701599121,-134.3536376953125,-13.6871337890625,-25.238037109375
2.2887499,6.6630635261535645,20.934900283813477,2.5091233253479004,-194.64111328125,-17.822265625,-24.932861328125
2.2912499,6.926425457000732,20.496761322021484,1.941697597503662,-255.31005859375,-21.026611328125,-25.1617431640625
2.2937499,7.067683219909668,19.967641830444336,1.213860273361206,-315.7196044921875,-23.895263671875,-26.7486572265625
2.2962499,7.036558628082275,19.275718688964844,0.37828385829925537,-372.6959228515625,-27.862548828125,-28.228759765625
2.2987499,6.852205276489258,18.35873794555664,-0.4884171485900879,-423.8433837890625,-32.867431640625,-28.9306640625
2.3012499,6.593631267547607,17.25740623474121,-1.3407529592514038,-470.5657958984375,-38.177490234375,-29.8919677734375
2.3037499,6.385335922241211,16.04354476928711,-2.140416383743286,-500,-42.6483154296875,-31.7230224609375
2.3062499,6.325480937957764,14.781801223754883,-2.9041666984558105,-500,-46.478271484375,-34.24072265625
2.3087499,6.481103897094727,13.390769958496094,-3.6607344150543213,-500,-49.3927001953125,-37.2467041015625
2.3112499,6.828263282775879,11.683704376220703,-4.371812343597412,-500,-50.2166748046875,-41.1529541015625
2.3137499,7.321468830108643,9.476250648498535,-4.989516258239746,-500,-49.4842529296875,-45.2423095703125
2.3162499,7.8529815673828125,6.7277069091796875,-5.410895824432373,-500,-48.2940673828125,-48.15673828125
2.3187499,8.396465301513672,3.667917013168335,-5.568912982940674,-500,-47.2869873046875,-49.072265625
2.3212498999999998,8.875306129455566,0.5267243981361389,-5.492298603057861,-500,-46.1883544921875,-49.13330078125
2.3237499,9.327810287475586,-2.3774423599243164,-5.288791656494141,-500,-45.4254150390625,-49.31640625
2.3262499,9.749189376831055,-5.020640850067139,-5.04218864440918,-500,-44.769287109375,-49.102783203125
2.3287499,10.125079154968262,-7.522581577301025,-4.793191909790039,-500,-43.5333251953125,-48.3856201171875
2.3312499,10.448296546936035,-10.079588890075684,-4.517858505249023,-500,-42.0379638671875,-47.027587890625
2.3337499,10.678139686584473,-12.840104103088379,-4.189853191375732,-500,-41.1834716796875,-44.43359375
2.3362499,10.81700325012207,-15.8903169631958,-3.778050184249878,-500,-40.7867431640625,-40.0238037109375
2.3387499,10.876858711242676,-19.141643524169922,-3.265691041946411,-500,-40.1458740234375,-34.332275390625
2.3412498999999998,10.90798282623291,-22.409727096557617,-2.6815059185028076,-461.3037109375,-39.0167236328125,-27.6336669921875
2.3437499,10.946290016174316,-25.493459701538086,-2.008735179901123,-406.2957763671875,-37.6739501953125,-20.2789306640625
2.3462499,10.99896240234375,-28.162994384765625,-1.290474772453308,-347.22900390625,-35.5987548828125,-12.237548828125
2.3487499,11.061211585998535,-30.274681091308594,-0.5530605912208557,-285.2630615234375,-33.0963134765625,-4.180908203125
2.3512499,11.113883972167969,-31.732749938964844,0.17238251864910126,-221.6644287109375,-29.96826171875,3.7841796875
2.3537499,11.116278648376465,-32.496498107910156,0.8188169598579407,-156.7840576171875,-26.3671875,11.566162109375
2.3562499,11.058817863464355,-32.589874267578125,1.335964560508728,-91.6595458984375,-22.705078125,18.646240234375
2.3587499,10.919954299926758,-32.067935943603516,1.6543933153152466,-28.961181640625,-19.2108154296875,24.59716796875
2.3612499,10.709263801574707,-31.03843116760254,1.7381904125213623,31.2652587890625,-15.6097412109375,29.7698974609375
2.3637499,10.450690269470215,-29.6378231048584,1.580173134803772,89.1571044921875,-12.5732421875,33.9508056640625
2.3662499,10.189722061157227,-28.016948699951172,1.192312479019165,144.8211669921875,-10.07080078125,36.9873046875
2.3687499,9.971850395202637,-26.297910690307617,0.6368576288223267,197.906494140625,-7.232666015625,39.1693115234375
2.3712499,9.828198432922363,-24.54775047302246,-0.019153613597154617,248.016357421875,-4.4708251953125,40.6341552734375
2.3737499,9.75397777557373,-22.797588348388672,-0.7015010714530945,294.6014404296875,-1.64794921875,41.351318359375
2.3762499,9.725247383117676,-21.02587890625,-1.3311761617660522,336.9140625,0.4730224609375,41.595458984375
2.3787499,9.667786598205566,-19.20389175415039,-1.86508309841156,374.5269775390625,2.7618408203125,41.046142578125
2.3812499,9.583989143371582,-17.31486701965332,-2.2864625453948975,407.0892333984375,4.5623779296875,39.642333984375
2.3837498999999998,9.478644371032715,-15.301342964172363,-2.5929205417633057,434.9212646484375,5.767822265625,37.750244140625
2.3862499,9.411606788635254,-13.062764167785645,-2.7988216876983643,456.9549560546875,7.7056884765625,35.15625
2.3887499,9.459490776062012,-10.666168212890625,-2.8993782997131348,469.6807861328125,10.4522705078125,32.3333740234375
2.3912499,9.610325813293457,-8.224082946777344,-2.9065608978271484,473.7396240234375,13.8702392578125,30.059814453125
2.3937499,9.801861763000488,-5.940014362335205,-2.8203697204589844,475.1129150390625,18.218994140625,26.4129638671875
2.3962499,9.964667320251465,-4.036623954772949,-2.6575639247894287,474.3804931640625,22.2625732421875,22.8424072265625
2.3987499,10.041281700134277,-2.561795711517334,-2.451662540435791,469.6807861328125,25.146484375,20.0653076171875
2.4012499,10.022128105163574,-1.436521053314209,-2.229001760482788,462.799072265625,27.496337890625,16.9525146484375
2.4037498999999998,9.928754806518555,-0.5339069962501526,-2.011129379272461,452.81982421875,29.8614501953125,13.2293701171875
2.4062499,9.765948295593262,0.26575639843940735,-1.800439715385437,439.39208984375,31.7840576171875,10.2386474609375
2.4087499,9.581595420837402,1.0223240852355957,-1.5945383310317993,422.7294921875,33.0963134765625,7.3699951171875
2.4112499,9.315838813781738,1.889025092124939,-1.3503297567367554,404.266357421875,34.515380859375,3.4942626953125
2.4137499,9.045293807983398,2.7126305103302,-1.0797849893569946,381.2408447265625,34.7900390625,-0.7476806640625
2.4162499,8.772355079650879,3.485957622528076,-0.7733271718025208,357.940673828125,34.2864990234375,-3.6468505859375
2.4187499,8.482656478881836,4.125209331512451,-0.49799394607543945,337.0361328125,33.4014892578125,-5.9967041015625
2.4212499,8.286332130432129,4.637568473815918,-0.19153612852096558,316.3909912109375,32.1502685546875,-8.514404296875
2.4237499,8.121131896972656,5.0876784324646,0.06464344263076782,292.266845703125,31.2957763671875,-11.4898681640625
2.4262499,8.006210327148438,5.623979568481445,0.36152446269989014,266.1590576171875,29.84619140625,-14.312744140625
2.4287499,7.915230751037598,6.236895561218262,0.6775590777397156,239.288330078125,27.7252197265625,-17.364501953125
2.4312499,7.819462776184082,6.897695064544678,1.039083480834961,211.029052734375,25.6500244140625,-20.2789306640625
2.4337499,7.709329605102539,7.544129371643066,1.4317326545715332,181.1981201171875,23.345947265625,-22.88818359375
2.4362499,7.603984832763672,8.11634349822998,1.8507179021835327,150.4974365234375,21.087646484375,-25.3753662109375
2.4387499,7.539340972900391,8.508993148803711,2.255337953567505,119.384765625,18.951416015625,-27.9388427734375
2.4412499,7.422025203704834,8.772355079650879,2.6001031398773193,88.7603759765625,16.8914794921875,-30.0750732421875
2.4437499,7.405265808105469,8.78193187713623,2.892195701599121,58.013916015625,13.671875,-32.562255859375
2.4462498999999998,7.398083209991455,8.576030731201172,3.043030261993408,28.289794921875,10.7879638671875,-33.5540771484375
2.4487499,7.572859764099121,8.164227485656738,3.177105665206909,2.227783203125,8.544921875,-34.515380859375
2.4512499,7.848193168640137,7.436390399932861,3.1675288677215576,-23.9105224609375,7.720947265625,-34.210205078125
2.4537499,8.233659744262695,6.5696892738342285,3.1220390796661377,-46.783447265625,6.2103271484375,-33.416748046875
2.4562499,8.592789649963379,5.657498836517334,3.0334534645080566,-66.71142578125,5.157470703125,-33.0657958984375
2.4587499,8.820239067077637,4.757278919219971,2.9041666984558105,-89.813232421875,4.39453125,-32.6995849609375
2.4612499,8.853757858276367,3.998316764831543,2.801215887069702,-111.26708984375,2.9144287109375,-32.5927734375
2.4637499,8.705317497253418,3.3063924312591553,2.715024709701538,-128.387451171875,-0.0152587890625,-32.2418212890625
2.4662498999999998,8.437167167663574,2.6384103298187256,2.647987127304077,-143.49365234375,-3.60107421875,-31.402587890625
2.4687499,8.188169479370117,1.9369091987609863,2.5761611461639404,-157.196044921875,-6.7901611328125,-30.45654296875
2.4712499,8.044517517089844,1.1827356815338135,2.4827871322631836,-167.8466796875,-9.3536376953125,-29.2816162109375
2.4737499,8.058882713317871,0.363918662071228,2.360682964324951,-175.537109375,-10.9405517578125,-28.350830078125
2.4762499,8.219294548034668,-0.5195417404174805,2.2242133617401123,-180.7708740234375,-11.9781494140625,-27.5726318359375
2.4787499,8.470685958862305,-1.4532804489135742,2.097320795059204,-183.685302734375,-12.5579833984375,-26.5655517578125
2.4812499,8.746018409729004,-2.4205379486083984,2.006340980529785,-183.59375,-12.451171875,-25.4364013671875
2.4837499,8.992621421813965,-3.40216064453125,1.9728221893310547,-180.6488037109375,-11.9476318359375,-24.10888671875
2.4862499,9.160215377807617,-4.343081951141357,2.0039467811584473,-175.7354736328125,-12.359619140625,-22.76611328125
2.4887499,9.244012832641602,-5.238513469696045,2.099714994430542,-169.3878173828125,-12.4969482421875,-21.4080810546875
2.4912499,9.260771751403809,-6.076483726501465,2.2673089504241943,-161.4532470703125,-12.359619140625,-20.2789306640625
2.4937499,9.241618156433105,-6.88332986831665,2.477998733520508,-151.1993408203125,-12.451171875,-18.951416015625
2.4962499,9.217676162719727,-7.671022415161133,2.717418909072876,-139.1143798828125,-11.9171142578125,-17.333984375
2.4987499,9.205705642700195,-8.429984092712402,2.940079689025879,-125.1678466796875,-11.65771484375,-15.56396484375
2.5012499,9.222464561462402,-9.126696586608887,3.136404275894165,-109.8480224609375,-11.474609375,-13.885498046875
2.5037499,9.263166427612305,-9.746794700622559,3.2800562381744385,-93.1243896484375,-10.7421875,-12.2528076171875
2.5062499,9.332598686218262,-10.261548042297363,3.380612850189209,-75.225830078125,-9.5062255859375,-10.6353759765625
2.5087498999999998,9.409213066101074,-10.673351287841797,3.426102638244629,-56.8084716796875,-8.026123046875,-8.7890625
2.5112499,9.466673851013184,-10.970232009887695,3.4308910369873047,-38.2232666015625,-6.4849853515625,-7.1258544921875
2.5137499,9.50498104095459,-11.152191162109375,3.406949043273926,-19.9737548828125,-5.1116943359375,-5.3253173828125
2.5162499,9.514557838439941,-11.216835021972656,3.3494882583618164,-1.983642578125,-3.9520263671875,-3.753662109375
2.5187499,9.50498104095459,-11.15697956085205,3.2752678394317627,15.7928466796875,-2.74658203125,-2.1514892578125
2.5212499,9.488221168518066,-10.967838287353516,3.1723172664642334,32.6385498046875,-1.861572265625,-0.762939453125
2.5237499,9.47146224975586,-10.663774490356445,3.0358476638793945,48.431396484375,-0.732421875,0.6561279296875
2.5262499,9.452308654785156,-10.273519515991211,2.8634653091430664,63.1256103515625,0.457763671875,1.7242431640625
2.5287498999999998,9.445125579833984,-9.816226959228516,2.674323320388794,76.4923095703125,1.6021728515625,2.1820068359375
2.5312499,9.445125579833984,-9.332598686218262,2.497152328491211,89.1265869140625,2.8839111328125,3.0670166015625
2.5337499,9.44991397857666,-8.815450668334961,2.363077163696289,101.37939453125,4.5928955078125,3.387451171875
2.5362499,9.435548782348633,-8.245630264282227,2.2888567447662354,112.36572265625,5.828857421875,3.96728515625
2.5387499,9.397241592407227,-7.625532627105713,2.2888567447662354,121.063232421875,7.0037841796875,4.5318603515625
2.5412499,9.315838813781738,-6.9240312576293945,2.3367409706115723,127.716064453125,7.4920654296875,4.45556640625
2.5437499,9.193734169006348,-6.169857978820801,2.4205379486083984,132.9345703125,7.9345703125,4.4097900390625
2.5462499,9.045293807983398,-5.389348030090332,2.5330653190612793,136.3525390625,8.209228515625,4.2266845703125
2.5487499,8.892065048217773,-4.6040496826171875,2.6408045291900635,138.031005859375,8.392333984375,3.662109375
2.5512499,8.753201484680176,-3.8714241981506348,2.7509377002716064,138.3056640625,8.1939697265625,3.173828125
2.5537499,8.640673637390137,-3.181894063949585,2.827552318572998,137.63427734375,7.965087890625,2.9754638671875
2.5562499,8.552088737487793,-2.5498247146606445,2.8658595085144043,135.711669921875,7.7667236328125,2.3651123046875
2.5587499,8.482656478881836,-1.9584569931030273,2.875436305999756,131.89697265625,7.354736328125,1.4495849609375
2.5612499,8.427590370178223,-1.3862427473068237,2.849100112915039,126.89208984375,6.7596435546875,0.640869140625
2.5637499,8.396465301513672,-0.8451532125473022,2.8227639198303223,120.849609375,6.2408447265625,0
2.5662499,8.379706382751465,-0.3208230137825012,2.7964274883270264,113.983154296875,5.37109375,-0.9918212890625
2.5687499,8.38688850402832,0.1364694982767105,2.779668092727661,105.7891845703125,4.8065185546875,-2.3040771484375
2.5712498999999998,8.415618896484375,0.524330198764801,2.7533318996429443,97.259521484375,4.150390625,-3.0364990234375
2.5737499,8.489839553833008,0.8212111592292786,2.7102363109588623,88.775634765625,3.143310546875,-3.5552978515625
