# Time (seconds),Accel_X,Accel_Y,Accel_Z,Gyro_X,Gyro_Y,Gyro_Z
0.0012499,8.686163902282715,-4.2090067863464355,2.5234885215759277,4.1656494140625,-1.1138916015625,0.5340576171875
0.0037499,8.676587104797363,-4.223371982574463,2.5498247146606445,4.4708251953125,-1.15966796875,0.2288818359375
0.0062499,8.676587104797363,-4.240131378173828,2.5737667083740234,4.5318603515625,-1.220703125,-0.244140625
0.0087499,8.674192428588867,-4.252102375030518,2.607285737991333,4.608154296875,-1.1444091796875,-0.6561279296875
0.0112499,8.676587104797363,-4.259284973144531,2.6408045291900635,4.547119140625,-1.0528564453125,-1.0528564453125
0.0137499,8.678980827331543,-4.259284973144531,2.674323320388794,4.7454833984375,-1.3580322265625,-1.5411376953125
0.016249899999999998,8.674192428588867,-4.2544965744018555,2.7030537128448486,4.8675537109375,-1.1138916015625,-2.01416015625
0.0187499,8.674192428588867,-4.244919776916504,2.7222073078155518,4.852294921875,-1.3580322265625,-2.50244140625
0.021249900000000002,8.676587104797363,-4.23773717880249,2.741360902786255,4.8980712890625,-1.40380859375,-2.9144287109375
0.023749899999999997,8.676587104797363,-4.23773717880249,2.760514497756958,4.8980712890625,-1.3427734375,-3.509521484375
0.0262499,8.686163902282715,-4.240131378173828,2.7772738933563232,4.9591064453125,-1.373291015625,-4.150390625
0.028749900000000002,8.69334602355957,-4.252102375030518,2.7988216876983643,5.2032470703125,-1.3885498046875,-4.5318603515625
0.031249899999999997,8.695740699768066,-4.259284973144531,2.8131868839263916,5.2032470703125,-1.4190673828125,-4.913330078125
0.0337499,8.695740699768066,-4.261679172515869,2.8227639198303223,5.096435546875,-1.6937255859375,-5.43212890625
0.0362499,8.678980827331543,-4.252102375030518,2.832340717315674,4.9591064453125,-1.800537109375,-6.0272216796875
0.0387499,8.662221908569336,-4.235342979431152,2.8419175148010254,5.035400390625,-2.0599365234375,-6.5460205078125
0.0412499,8.631096839904785,-4.213795185089111,2.8371291160583496,5.1116943359375,-1.8768310546875,-7.4310302734375
0.0437499,8.60236644744873,-4.189853191375732,2.8371291160583496,5.1116943359375,-2.0751953125,-8.1024169921875
0.0462499,8.56884765625,-4.165910720825195,2.82515811920166,5.2337646484375,-2.2430419921875,-8.8043212890625
0.0487499,8.540117263793945,-4.151545524597168,2.8131868839263916,5.4168701171875,-2.410888671875,-9.307861328125
0.0512499,8.51138687133789,-4.14915132522583,2.8179752826690674,5.4931640625,-2.4566650390625,-9.8114013671875
0.053749899999999996,8.489839553833008,-4.156333923339844,2.8179752826690674,5.31005859375,-2.655029296875,-10.498046875
0.0562499,8.47786808013916,-4.173093795776367,2.8419175148010254,5.5084228515625,-2.7923583984375,-11.0626220703125
0.0587499,8.47786808013916,-4.194641590118408,2.8610711097717285,5.6915283203125,-2.9449462890625,-11.199951171875
0.061249899999999996,8.485051155090332,-4.213795185089111,2.8874073028564453,5.79833984375,-3.204345703125,-11.65771484375
0.0637499,8.492233276367188,-4.230554580688477,2.911349296569824,6.1187744140625,-3.2501220703125,-12.3291015625
0.0662499,8.49941635131836,-4.235342979431152,2.935291290283203,6.2408447265625,-3.41796875,-12.603759765625
0.0687499,8.501810073852539,-4.23773717880249,2.9472622871398926,6.34765625,-3.4027099609375,-12.786865234375
0.0712499,8.497021675109863,-4.228160381317139,2.956839084625244,6.591796875,-3.3721923828125,-13.153076171875
0.0737499,8.487444877624512,-4.206612586975098,2.9496564865112305,6.744384765625,-3.6163330078125,-13.519287109375
0.0762499,8.470685958862305,-4.182670593261719,2.935291290283203,7.0648193359375,-3.6163330078125,-13.8397216796875
0.0787499,8.44434928894043,-4.153939723968506,2.918531894683838,7.2479248046875,-3.7384033203125,-14.0380859375
0.0812499,8.415618896484375,-4.127603530883789,2.894589900970459,7.354736328125,-3.936767578125,-14.404296875
0.0837499,8.38449478149414,-4.0964789390563965,2.875436305999756,7.568359375,-4.058837890625,-14.495849609375
0.0862499,8.358158111572266,-4.072536945343018,2.851494312286377,7.7362060546875,-4.241943359375,-14.6636962890625
0.0887499,8.343792915344238,-4.041412353515625,2.82515811920166,7.843017578125,-4.5318603515625,-14.9993896484375
0.0912499,8.329427719116211,-4.019864559173584,2.7916390895843506,7.9193115234375,-4.5928955078125,-15.2435302734375
0.0937499,8.312667846679688,-3.995922565460205,2.762908697128296,7.6751708984375,-4.7760009765625,-15.6402587890625
0.0962499,8.29590892791748,-3.9863457679748535,2.736572504043579,7.9803466796875,-4.8370361328125,-15.8233642578125
0.0987499,8.26478385925293,-3.974374771118164,2.7078421115875244,7.99560546875,-4.9591064453125,-15.68603515625
0.1012499,8.2312650680542,-3.9671921730041504,2.6862943172454834,7.965087890625,-5.157470703125,-15.9149169921875
0.1037499,8.192957878112793,-3.957615375518799,2.6599581241607666,8.0108642578125,-5.5389404296875,-15.9759521484375
0.1062499,8.157045364379883,-3.950432777404785,2.6384103298187256,7.843017578125,-5.7220458984375,-16.0980224609375
0.1087499,8.123526573181152,-3.9432501792907715,2.6216509342193604,7.7667236328125,-5.889892578125,-16.05224609375
0.1112499,8.099584579467773,-3.9408559799194336,2.607285737991333,7.6446533203125,-5.950927734375,-16.265869140625
0.1137499,8.087613105773926,-3.93367338180542,2.5977089405059814,7.6446533203125,-6.256103515625,-16.2353515625
0.1162499,8.08043098449707,-3.931279182434082,2.5905263423919678,7.3699951171875,-6.195068359375,-16.2811279296875
0.1187499,8.085219383239746,-3.914519786834717,2.585737943649292,7.049560546875,-6.3629150390625,-16.2811279296875
0.1212499,8.090007781982422,-3.8977603912353516,2.5761611461639404,6.591796875,-6.53076171875,-16.17431640625
0.1237499,8.10437297821045,-3.866635799407959,2.5689783096313477,6.256103515625,-6.34765625,-16.2353515625
0.1262499,8.118738174438477,-3.8379054069519043,2.5522189140319824,6.072998046875,-6.4239501953125,-16.1895751953125
0.1287499,8.14028549194336,-3.801992416381836,2.5306711196899414,5.5694580078125,-6.5155029296875,-15.9759521484375
0.1312499,8.154650688171387,-3.7708675861358643,2.5043349266052246,5.096435546875,-6.53076171875,-16.2811279296875
0.1337499,8.159439086914062,-3.73016619682312,2.473210334777832,4.638671875,-6.256103515625,-16.1590576171875
0.1362499,8.157045364379883,-3.6966474056243896,2.4420857429504395,4.1351318359375,-6.0577392578125,-16.29638671875
0.1387499,8.145073890686035,-3.6535518169403076,2.4205379486083984,3.35693359375,-5.8746337890625,-16.387939453125
0.1412499,8.130708694458008,-3.6176388263702393,2.3989901542663574,2.838134765625,-5.92041015625,-16.387939453125
0.1437499,8.121131896972656,-3.576937437057495,2.38462495803833,2.44140625,-5.7373046875,-16.6168212890625
0.1462499,8.121131896972656,-3.5386300086975098,2.3726539611816406,1.861572265625,-5.79833984375,-16.7236328125
0.1487499,8.130708694458008,-3.5003228187561035,2.365471363067627,1.312255859375,-5.7220458984375,-16.5252685546875
0.1512499,8.145073890686035,-3.466804027557373,2.3582887649536133,0.8544921875,-5.7373046875,-16.4794921875
0.1537499,8.164227485656738,-3.4356794357299805,2.3487119674682617,0.4425048828125,-5.6610107421875,-16.66259765625
0.1562499,8.178592681884766,-3.4117374420166016,2.3295583724975586,-0.091552734375,-5.4168701171875,-16.66259765625
0.1587499,8.178592681884766,-3.3854012489318848,2.3056161403656006,-0.42724609375,-5.096435546875,-16.7083740234375
0.1612499,8.17380428314209,-3.3638534545898438,2.2840683460235596,-1.1138916015625,-4.8370361328125,-16.6778564453125
0.1637499,8.154650688171387,-3.3423056602478027,2.2697031497955322,-1.4190673828125,-4.5318603515625,-16.7694091796875
0.1662499,8.14028549194336,-3.3255462646484375,2.2601263523101807,-1.861572265625,-4.241943359375,-16.815185546875
0.1687499,8.125920295715332,-3.313575267791748,2.255337953567505,-2.349853515625,-4.0130615234375,-16.7083740234375
0.1712499,8.118738174438477,-3.2992098331451416,2.2577321529388428,-2.777099609375,-3.47900390625,-16.66259765625
0.1737499,8.11634349822998,-3.28963303565979,2.2625205516815186,-2.8533935546875,-3.082275390625,-16.448974609375
0.17624990000000001,8.1139497756958,-3.270479440689087,2.2601263523101807,-3.021240234375,-2.8076171875,-16.5252685546875
0.1787499,8.118738174438477,-3.2561142444610596,2.2577321529388428,-3.204345703125,-2.62451171875,-16.0675048828125
0.1812499,8.128314971923828,-3.2417490482330322,2.248155355453491,-3.326416015625,-2.2735595703125,-15.9912109375
0.1837499,8.14028549194336,-3.227383852005005,2.2409727573394775,-3.143310546875,-1.922607421875,-16.021728515625
0.1862499,8.149862289428711,-3.2130186557769775,2.2385785579681396,-3.0975341796875,-1.6632080078125,-15.838623046875
0.1887499,8.159439086914062,-3.201047658920288,2.2361843585968018,-2.838134765625,-1.0986328125,-15.5487060546875
0.1912499,8.161833763122559,-3.1890766620635986,2.233790159225464,-2.6702880859375,-0.6866455078125,-15.5181884765625
0.1937499,8.164227485656738,-3.177105665206909,2.2361843585968018,-2.7313232421875,-0.3509521484375,-15.3350830078125
0.1962499,8.159439086914062,-3.1675288677215576,2.2385785579681396,-2.5787353515625,-0.1678466796875,-14.9383544921875
0.1987499,8.157045364379883,-3.160346269607544,2.2457611560821533,-2.1209716796875,0.030517578125,-14.9688720703125
0.2012499,8.147468566894531,-3.160346269607544,2.255337953567505,-1.617431640625,0.2899169921875,-14.7705078125
0.2037499,8.14028549194336,-3.1651346683502197,2.2625205516815186,-1.312255859375,0.9918212890625,-14.373779296875
0.2062499,8.13789176940918,-3.1747114658355713,2.27209734916687,-0.9918212890625,1.46484375,-14.2364501953125
0.20874990000000002,8.135497093200684,-3.1914708614349365,2.2840683460235596,-0.701904296875,1.861572265625,-14.09912109375
0.2112499,8.13789176940918,-3.203441858291626,2.3080103397369385,-0.3509521484375,2.4871826171875,-13.8092041015625
0.2137499,8.147468566894531,-3.2130186557769775,2.3319525718688965,0.396728515625,2.593994140625,-13.3209228515625
0.2162499,8.159439086914062,-3.2130186557769775,2.3582887649536133,0.762939453125,3.4332275390625,-13.031005859375
0.2187499,8.17380428314209,-3.2082302570343018,2.3774423599243164,1.2359619140625,4.0130615234375,-12.6495361328125
0.2212499,8.185775756835938,-3.19865345954895,2.4013843536376953,1.800537109375,4.119873046875,-12.1612548828125
0.2237499,8.197746276855469,-3.1962592601776123,2.43011474609375,2.1820068359375,5.0201416015625,-11.8865966796875
0.2262499,8.214506149291992,-3.201047658920288,2.4684219360351562,3.021240234375,5.6610107421875,-11.53564453125
0.2287499,8.233659744262695,-3.2082302570343018,2.516305923461914,3.6163330078125,6.103515625,-11.1236572265625
0.2312499,8.26478385925293,-3.2130186557769775,2.564189910888672,4.6234130859375,6.77490234375,-10.6048583984375
0.2337499,8.293514251708984,-3.2154128551483154,2.609679937362671,5.37109375,7.3394775390625,-10.284423828125
0.2362499,8.324639320373535,-3.205836057662964,2.6455929279327393,5.950927734375,8.026123046875,-9.6435546875
0.23874990000000001,8.341399192810059,-3.1938650608062744,2.669534921646118,6.6986083984375,8.4991455078125,-9.2620849609375
0.2412499,8.355764389038086,-3.177105665206909,2.6815059185028076,7.8277587890625,9.063720703125,-8.6669921875
0.2437499,8.370129585266113,-3.1651346683502197,2.6862943172454834,8.4381103515625,9.735107421875,-8.3770751953125
0.2462499,8.379706382751465,-3.1531636714935303,2.6839001178741455,9.27734375,10.406494140625,-7.9193115234375
0.2487499,8.401253700256348,-3.1507694721221924,2.671929121017456,10.040283203125,10.8184814453125,-7.4615478515625
0.2512499,8.4108304977417,-3.1459810733795166,2.6623523235321045,10.986328125,11.4898681640625,-6.744384765625
0.25374990000000003,8.427590370178223,-3.138798475265503,2.6575639247894287,11.7340087890625,11.9781494140625,-6.4239501953125
0.25624990000000003,8.44195556640625,-3.1292216777801514,2.652775526046753,12.542724609375,12.5274658203125,-5.9661865234375
0.25874990000000003,8.453926086425781,-3.117250680923462,2.655169725418091,13.4124755859375,13.1683349609375,-5.2337646484375
0.26124990000000003,8.463502883911133,-3.1076738834381104,2.6599581241607666,14.1448974609375,13.5498046875,-4.7760009765625
0.26374990000000004,8.465897560119629,-3.1004912853240967,2.6623523235321045,14.923095703125,13.7786865234375,-4.3792724609375
0.26624990000000004,8.463502883911133,-3.0885202884674072,2.671929121017456,15.2740478515625,14.312744140625,-3.8909912109375
0.26874990000000004,8.458714485168457,-3.069366693496704,2.676717519760132,15.8233642578125,14.6331787109375,-3.1280517578125
0.27124990000000004,8.465897560119629,-3.0382418632507324,2.676717519760132,16.29638671875,15.1824951171875,-2.7008056640625
0.27374990000000005,8.480262756347656,-2.9951462745666504,2.6839001178741455,16.7236328125,15.7318115234375,-2.1820068359375
0.27624990000000005,8.49941635131836,-2.9520506858825684,2.691082715988159,17.2119140625,16.0369873046875,-1.556396484375
0.27874990000000005,8.523358345031738,-2.911349296569824,2.7006595134735107,17.6239013671875,16.4031982421875,-1.007080078125
0.28124990000000005,8.549694061279297,-2.8802247047424316,2.7126305103302,17.7001953125,16.90673828125,-0.8087158203125
0.28374990000000005,8.576030731201172,-2.8562827110290527,2.7222073078155518,18.1121826171875,17.3492431640625,-0.3509521484375
0.28624990000000006,8.607154846191406,-2.8371291160583496,2.7222073078155518,18.5699462890625,17.6239013671875,-0.1983642578125
0.28874990000000006,8.638279914855957,-2.8155810832977295,2.7293899059295654,18.8751220703125,17.974853515625,0.1678466796875
0.2912499,8.671798706054688,-2.7988216876983643,2.736572504043579,19.2108154296875,18.096923828125,0.6866455078125
0.2937499,8.702922821044922,-2.7724854946136475,2.7485435009002686,19.6075439453125,18.61572265625,1.007080078125
0.2962499,8.741230010986328,-2.738966703414917,2.762908697128296,20.111083984375,18.73779296875,1.495361328125
0.2987499,8.779537200927734,-2.7006595134735107,2.779668092727661,20.3857421875,19.0277099609375,1.678466796875
0.3012499,8.827422142028809,-2.652775526046753,2.7916390895843506,20.4010009765625,19.2718505859375,1.6937255859375
0.3037499,8.87051773071289,-2.612074136734009,2.801215887069702,20.660400390625,19.378662109375,1.9378662109375
0.3062499,8.913613319396973,-2.5713725090026855,2.806004285812378,21.0418701171875,19.775390625,2.105712890625
0.3087499,8.951920509338379,-2.542642116546631,2.806004285812378,21.087646484375,20.01953125,2.3040771484375
0.3112499,8.98543930053711,-2.516305923461914,2.7988216876983643,21.484375,19.927978515625,2.5787353515625
0.3137499,9.016563415527344,-2.497152328491211,2.7940332889556885,21.5911865234375,19.9737548828125,2.471923828125
0.31624990000000003,9.047688484191895,-2.4827871322631836,2.784456491470337,21.9879150390625,19.9127197265625,2.593994140625
0.31874990000000003,9.078812599182129,-2.473210334777832,2.779668092727661,21.9573974609375,19.8516845703125,2.7618408203125
0.32124990000000003,9.107542991638184,-2.4684219360351562,2.779668092727661,21.7742919921875,19.9737548828125,2.685546875
0.32374990000000003,9.131484985351562,-2.4612393379211426,2.784456491470337,21.78955078125,20.0653076171875,2.3651123046875
0.32624990000000004,9.157821655273438,-2.454056739807129,2.7916390895843506,21.7132568359375,19.8974609375,2.471923828125
0.32874990000000004,9.186552047729492,-2.456450939178467,2.80361008644104,21.484375,19.744873046875,2.44140625
0.33124990000000004,9.222464561462402,-2.4588451385498047,2.8131868839263916,21.4080810546875,19.7601318359375,2.288818359375
0.33374990000000004,9.260771751403809,-2.470816135406494,2.827552318572998,21.392822265625,19.775390625,2.3345947265625
0.33624990000000005,9.260771751403809,-2.5019407272338867,2.827552318572998,21.3623046875,19.7906494140625,2.3193359375
0.33874990000000005,9.277531623840332,-2.5330653190612793,2.851494312286377,20.904541015625,19.7601318359375,1.9989013671875
0.34124990000000005,9.275136947631836,-2.5689783096313477,2.868253707885742,20.9808349609375,19.134521484375,1.8768310546875
0.34374990000000005,9.306262016296387,-2.5905263423919678,2.920926094055176,20.7366943359375,19.3328857421875,1.9683837890625
0.34624990000000005,9.370905876159668,-2.5761611461639404,2.980781078338623,20.69091796875,19.4854736328125,1.922607421875
0.34874990000000006,9.457097053527832,-2.535459518432617,3.0526070594787598,20.32470703125,19.6075439453125,1.6326904296875
0.35124990000000006,9.624691009521484,-2.451662540435791,3.157952070236206,19.6685791015625,19.317626953125,0.885009765625
0.3537499,9.624691009521484,-2.451662540435791,3.157952070236206,19.6685791015625,19.317626953125,0.885009765625
0.3562499,9.725247383117676,-2.47560453414917,3.1866824626922607,19.7601318359375,19.317626953125,0.091552734375
0.3587499,9.725247383117676,-2.47560453414917,3.1866824626922607,19.7601318359375,19.317626953125,0.091552734375
0.3612499,9.782708168029785,-2.5785553455352783,3.1962592601776123,19.59228515625,18.85986328125,-0.823974609375
0.3637499,9.782708168029785,-2.5785553455352783,3.1962592601776123,19.59228515625,18.85986328125,-0.823974609375
0.3662499,9.821015357971191,-2.6791117191314697,3.265691041946411,18.98193359375,18.951416015625,-1.312255859375
0.3687499,9.821015357971191,-2.6791117191314697,3.265691041946411,18.98193359375,18.951416015625,-1.312255859375
0.3712499,9.806650161743164,-2.80361008644104,3.361459255218506,18.5394287109375,19.2413330078125,-1.6021728515625
0.3737499,9.806650161743164,-2.80361008644104,3.361459255218506,18.5394287109375,19.2413330078125,-1.6021728515625
0.3762499,9.75397777557373,-2.942473888397217,3.44765043258667,17.76123046875,19.805908203125,-1.495361328125
0.37874990000000003,9.75397777557373,-2.942473888397217,3.44765043258667,17.76123046875,19.805908203125,-1.495361328125
0.38124990000000003,9.739612579345703,-3.0142998695373535,3.512293815612793,17.822265625,19.8211669921875,-1.922607421875
0.38374990000000003,9.739612579345703,-3.0142998695373535,3.512293815612793,17.822265625,19.8211669921875,-1.922607421875
0.38624990000000003,9.77791976928711,-2.985569477081299,3.5410242080688477,18.2342529296875,19.500732421875,-2.0904541015625
0.38874990000000004,9.77791976928711,-2.985569477081299,3.5410242080688477,18.2342529296875,19.500732421875,-2.0904541015625
0.39124990000000004,9.80904483795166,-2.9041666984558105,3.5649664402008057,18.3868408203125,19.256591796875,-2.7008056640625
0.39374990000000004,9.80904483795166,-2.9041666984558105,3.5649664402008057,18.3868408203125,19.256591796875,-2.7008056640625
0.39624990000000004,9.775525093078613,-2.8131868839263916,3.620033025741577,19.012451171875,18.9056396484375,-3.326416015625
0.39874990000000005,9.775525093078613,-2.8131868839263916,3.620033025741577,19.012451171875,18.9056396484375,-3.326416015625
0.40124990000000005,9.691728591918945,-2.7293899059295654,3.7612907886505127,19.4549560546875,18.06640625,-3.8909912109375
0.40374990000000005,9.691728591918945,-2.7293899059295654,3.7612907886505127,19.4549560546875,18.06640625,-3.8909912109375
0.40624990000000005,9.605537414550781,-2.6623523235321045,3.952826976776123,19.9432373046875,17.913818359375,-4.8675537109375
0.40874990000000005,9.605537414550781,-2.6623523235321045,3.952826976776123,19.9432373046875,17.913818359375,-4.8675537109375
0.41124990000000006,9.536105155944824,-2.612074136734009,4.125209331512451,20.8892822265625,17.08984375,-5.7220458984375
0.41374990000000006,9.536105155944824,-2.612074136734009,4.125209331512451,20.8892822265625,17.08984375,-5.7220458984375
0.41624990000000006,9.461885452270508,-2.5474305152893066,4.252102375030518,21.087646484375,16.4337158203125,-5.950927734375
0.4187499,9.461885452270508,-2.5474305152893066,4.252102375030518,21.087646484375,16.4337158203125,-5.950927734375
0.4212499,9.41639518737793,-2.4396915435791016,4.3622355461120605,22.0947265625,14.9688720703125,-6.591796875
0.4237499,9.41639518737793,-2.4396915435791016,4.3622355461120605,22.0947265625,14.9688720703125,-6.591796875
0.4262499,9.394847869873047,-2.3104045391082764,4.467580318450928,22.52197265625,14.5416259765625,-7.4462890625
0.4287499,9.394847869873047,-2.3104045391082764,4.467580318450928,22.52197265625,14.5416259765625,-7.4462890625
0.4312499,9.370905876159668,-2.2242133617401123,4.570530891418457,22.8424072265625,13.3819580078125,-8.0413818359375
0.4337499,9.370905876159668,-2.2242133617401123,4.570530891418457,22.8424072265625,13.3819580078125,-8.0413818359375
0.4362499,9.361329078674316,-2.190694570541382,4.671087741851807,23.590087890625,11.9171142578125,-8.4381103515625
0.4387499,9.361329078674316,-2.190694570541382,4.671087741851807,23.590087890625,11.9171142578125,-8.4381103515625
0.44124990000000003,9.332598686218262,-2.1523873805999756,4.747702121734619,23.49853515625,11.1541748046875,-8.8653564453125
0.44374990000000003,9.332598686218262,-2.1523873805999756,4.747702121734619,23.49853515625,11.1541748046875,-8.8653564453125
0.44624990000000003,9.23682975769043,-2.099714994430542,4.8051629066467285,22.9034423828125,9.9639892578125,-9.063720703125
0.44874990000000003,9.23682975769043,-2.099714994430542,4.8051629066467285,22.9034423828125,9.9639892578125,-9.063720703125
0.45124990000000004,9.129091262817383,-2.0374655723571777,4.8602294921875,22.1099853515625,8.7738037109375,-9.2315673828125
0.45374990000000004,9.129091262817383,-2.0374655723571777,4.8602294921875,22.1099853515625,8.7738037109375,-9.2315673828125
0.45624990000000004,9.100360870361328,-1.9393033981323242,4.903325080871582,21.0723876953125,7.6751708984375,-9.33837890625
0.45874990000000004,9.100360870361328,-1.9393033981323242,4.903325080871582,21.0723876953125,7.6751708984375,-9.33837890625
0.46124990000000005,9.129091262817383,-1.8483237028121948,4.929661273956299,20.1416015625,6.3323974609375,-9.5672607421875
0.46374990000000005,9.129091262817383,-1.8483237028121948,4.929661273956299,20.1416015625,6.3323974609375,-9.5672607421875
0.46624990000000005,9.133879661560059,-1.8124107122421265,4.960785865783691,18.6920166015625,5.2947998046875,-9.368896484375
0.46874990000000005,9.133879661560059,-1.8124107122421265,4.960785865783691,18.6920166015625,5.2947998046875,-9.368896484375
0.47124990000000005,9.0859956741333,-1.821987509727478,5.011064052581787,16.78466796875,4.45556640625,-9.0484619140625
0.47374990000000006,9.0859956741333,-1.821987509727478,5.011064052581787,16.78466796875,4.45556640625,-9.0484619140625
0.47624990000000006,8.999804496765137,-1.8507179021835327,5.035006046295166,14.46533203125,3.35693359375,-8.6212158203125
0.47874990000000006,8.999804496765137,-1.8507179021835327,5.035006046295166,14.46533203125,3.35693359375,-8.6212158203125
0.4812499,8.899248123168945,-1.886630892753601,5.0014872550964355,12.0849609375,2.288818359375,-7.8582763671875
0.4837499,8.899248123168945,-1.886630892753601,5.0014872550964355,12.0849609375,2.288818359375,-7.8582763671875
0.4862499,8.803479194641113,-1.9321208000183105,4.93923807144165,9.5977783203125,1.2969970703125,-7.0343017578125
0.4887499,8.803479194641113,-1.9321208000183105,4.93923807144165,9.5977783203125,1.2969970703125,-7.0343017578125
0.4912499,8.731653213500977,-1.9728221893310547,4.879383087158203,6.927490234375,0.1373291015625,-5.92041015625
0.4937499,8.731653213500977,-1.9728221893310547,4.879383087158203,6.927490234375,0.1373291015625,-5.92041015625
0.4962499,8.683769226074219,-1.9752163887023926,4.8267107009887695,3.96728515625,-1.0528564453125,-4.6234130859375
0.4987499,8.683769226074219,-1.9752163887023926,4.8267107009887695,3.96728515625,-1.0528564453125,-4.6234130859375
0.5012499,8.65743350982666,-1.9153614044189453,4.793191909790039,0.6561279296875,-2.2430419921875,-3.6773681640625
0.5037499000000001,8.65743350982666,-1.9153614044189453,4.793191909790039,0.6561279296875,-2.2430419921875,-3.6773681640625
0.5062499,8.638279914855957,-1.8148049116134644,4.7836151123046875,-2.9144287109375,-3.5247802734375,-2.38037109375
0.5087499000000001,8.638279914855957,-1.8148049116134644,4.7836151123046875,-2.9144287109375,-3.5247802734375,-2.38037109375
0.5112499,8.5903959274292,-1.7166426181793213,4.752490520477295,-6.011962890625,-4.8828125,-1.6632080078125
0.5137499,8.5903959274292,-1.7166426181793213,4.752490520477295,-6.011962890625,-4.8828125,-1.6632080078125
0.5162499,8.508993148803711,-1.644816517829895,4.687847137451172,-8.85009765625,-6.6986083984375,-1.15966796875
0.5187499,8.508993148803711,-1.644816517829895,4.687847137451172,-8.85009765625,-6.6986083984375,-1.15966796875
0.5212499,8.429984092712402,-1.5945383310317993,4.587290287017822,-11.4288330078125,-7.6751708984375,-1.251220703125
0.5237499,8.406042098999023,-1.580173134803772,4.522646903991699,-12.6953125,-8.544921875,-1.3580322265625
0.5262499,8.394071578979492,-1.580173134803772,4.4532151222229,-13.885498046875,-9.1552734375,-1.15966796875
0.5287499,8.38688850402832,-1.5969325304031372,4.381389141082764,-14.8773193359375,-10.009765625,-1.0528564453125
0.5312499,8.38688850402832,-1.6328455209732056,4.304774761199951,-15.8233642578125,-10.894775390625,-1.0223388671875
0.5337499,8.38688850402832,-1.6903064250946045,4.230554580688477,-16.693115234375,-11.474609375,-0.6866455078125
0.5362499000000001,8.38449478149414,-1.7573440074920654,4.153939723968506,-17.51708984375,-12.1002197265625,-0.4730224609375
0.5387499,8.382100105285645,-1.8267759084701538,4.082113742828369,-18.096923828125,-12.725830078125,-0.1983642578125
0.5412499000000001,8.374917984008789,-1.8962076902389526,4.015076160430908,-19.012451171875,-13.3819580078125,0.0762939453125
0.5437499,8.362946510314941,-1.9608511924743652,3.957615375518799,-19.7296142578125,-13.97705078125,0.6103515625
0.5462499000000001,8.355764389038086,-2.0159177780151367,3.9025487899780273,-20.3857421875,-14.3280029296875,1.129150390625
0.5487499,8.35336971282959,-2.0614075660705566,3.8522706031799316,-20.7061767578125,-14.6331787109375,1.64794921875
0.5512499000000001,8.362946510314941,-2.099714994430542,3.799597978591919,-20.93505859375,-15.1824951171875,1.9989013671875
0.5537499,8.377311706542969,-2.121262788772583,3.754108190536499,-21.1029052734375,-15.6707763671875,2.685546875
0.5562499000000001,8.4108304977417,-2.1356279850006104,3.708618402481079,-21.331787109375,-16.05224609375,3.4027099609375
0.5587499,8.449137687683105,-2.145204782485962,3.6727054119110107,-21.30126953125,-16.4642333984375,3.814697265625
0.5612499000000001,8.49941635131836,-2.142810583114624,3.641580820083618,-21.3623046875,-16.754150390625,4.364013671875
0.5637499,8.549694061279297,-2.1475989818573,3.6176388263702393,-21.0723876953125,-16.815185546875,5.0811767578125
0.5662499000000001,8.607154846191406,-2.1499931812286377,3.5913026332855225,-20.8740234375,-17.0135498046875,5.7830810546875
0.5687499,8.65743350982666,-2.1595699787139893,3.555389642715454,-20.7061767578125,-17.059326171875,6.3018798828125
0.5712499000000001,8.710105895996094,-2.1763293743133545,3.512293815612793,-20.263671875,-17.2271728515625,6.591796875
0.5737499,8.765172004699707,-2.1978771686553955,3.4524388313293457,-19.6075439453125,-17.333984375,7.476806640625
0.5762499000000001,8.813055992126465,-2.229001760482788,3.3877954483032227,-18.9208984375,-17.15087890625,8.1329345703125
0.5787499,8.863334655761719,-2.2649147510528564,3.318363666534424,-18.280029296875,-17.2576904296875,8.9111328125
0.5812499,8.904036521911621,-2.3032219409942627,3.2417490482330322,-17.3187255859375,-17.303466796875,9.6435546875
0.5837499,8.942343711853027,-2.341529369354248,3.1699230670928955,-16.5557861328125,-17.1661376953125,10.162353515625
0.5862499,8.978256225585938,-2.3774423599243164,3.093308687210083,-15.8233642578125,-17.1051025390625,10.6658935546875
0.5887499,9.011775016784668,-2.408566951751709,3.023876667022705,-14.9993896484375,-17.0440673828125,11.3983154296875
0.5912499,9.047688484191895,-2.4396915435791016,2.96162748336792,-14.1448974609375,-16.78466796875,12.1612548828125
0.5937499,9.081207275390625,-2.4684219360351562,2.9065608978271484,-13.5650634765625,-16.7694091796875,12.3748779296875
0.5962499,9.10993766784668,-2.492363929748535,2.8610711097717285,-12.786865234375,-16.510009765625,13.214111328125
0.5987499000000001,9.133879661560059,-2.52109432220459,2.8107926845550537,-11.993408203125,-15.9759521484375,13.73291015625
0.6012499,9.150638580322266,-2.542642116546631,2.75812029838562,-11.1083984375,-15.5181884765625,14.495849609375
0.6037499000000001,9.162610054016113,-2.5689783096313477,2.698265314102173,-10.3912353515625,-15.5487060546875,15.1519775390625
0.6062499,9.174580574035645,-2.58813214302063,2.63362193107605,-10.07080078125,-15.1824951171875,15.44189453125
0.6087499000000001,9.17936897277832,-2.609679937362671,2.5737667083740234,-9.429931640625,-14.7857666015625,15.8538818359375
0.6112499,9.186552047729492,-2.626439332962036,2.52109432220459,-9.0789794921875,-14.46533203125,16.11328125
0.6137499000000001,9.181763648986816,-2.6455929279327393,2.473210334777832,-8.758544921875,-14.129638671875,16.4031982421875
0.6162499,9.172186851501465,-2.6623523235321045,2.434903144836426,-8.209228515625,-13.8397216796875,16.6015625
0.6187499000000001,9.162610054016113,-2.6839001178741455,2.4013843536376953,-8.148193359375,-13.397216796875,16.6473388671875
0.6212499,9.148244857788086,-2.7006595134735107,2.3750481605529785,-8.087158203125,-13.12255859375,16.66259765625
0.6237499000000001,9.138668060302734,-2.719813108444214,2.363077163696289,-7.7972412109375,-12.664794921875,16.754150390625
0.6262499,9.133879661560059,-2.741360902786255,2.360682964324951,-7.32421875,-12.481689453125,16.54052734375
0.6287499000000001,9.131484985351562,-2.75812029838562,2.3582887649536133,-7.080078125,-12.1917724609375,16.29638671875
0.6312499,9.126696586608887,-2.7772738933563232,2.360682964324951,-6.7138671875,-11.7340087890625,15.9912109375
0.6337499000000001,9.119514465332031,-2.7940332889556885,2.360682964324951,-6.5460205078125,-11.2762451171875,15.7012939453125
0.6362499,9.107542991638184,-2.8131868839263916,2.363077163696289,-6.0577392578125,-11.0626220703125,15.289306640625
0.6387499000000001,9.08838939666748,-2.8419175148010254,2.367865562438965,-5.7220458984375,-10.6964111328125,14.678955078125
0.6412499,9.066842079162598,-2.8850131034851074,2.3702597618103027,-5.3863525390625,-10.3912353515625,14.251708984375
0.6437499,9.045293807983398,-2.9472622871398926,2.365471363067627,-5.2032470703125,-9.7808837890625,13.7786865234375
0.6462499,9.01895809173584,-3.0190882682800293,2.363077163696289,-4.82177734375,-9.3231201171875,13.2598876953125
0.6487499,8.99740982055664,-3.1028854846954346,2.3535003662109375,-4.547119140625,-9.0179443359375,12.939453125
0.6512499,8.973467826843262,-3.1914708614349365,2.341529369354248,-4.1961669921875,-8.5296630859375,12.4969482421875
0.6537499,8.942343711853027,-3.2800562381744385,2.3295583724975586,-3.4637451171875,-8.0413818359375,12.14599609375
0.6562499,8.9064302444458,-3.3686418533325195,2.322375535964966,-3.173828125,-7.6446533203125,11.7034912109375
0.6587499,8.863334655761719,-3.44765043258667,2.319981336593628,-2.7313232421875,-7.2479248046875,11.5203857421875
0.6612499000000001,8.80587387084961,-3.5194764137268066,2.322375535964966,-2.1514892578125,-6.927490234375,11.0931396484375
0.6637499,8.753201484680176,-3.579331636428833,2.3295583724975586,-1.77001953125,-6.65283203125,10.7879638671875
0.6662499000000001,8.695740699768066,-3.627215623855591,2.33913516998291,-1.3275146484375,-6.16455078125,10.589599609375
0.6687499,8.643068313598633,-3.670311212539673,2.3582887649536133,-0.6256103515625,-5.92041015625,10.223388671875
0.6712499000000001,8.5903959274292,-3.706224203109741,2.3798365592956543,-0.091552734375,-5.462646484375,9.7198486328125
0.6737499,8.540117263793945,-3.7421371936798096,2.4133553504943848,0.579833984375,-5.126953125,9.3994140625
0.6762499000000001,8.485051155090332,-3.773261785507202,2.4468741416931152,1.129150390625,-4.8370361328125,9.1552734375
0.6787499,8.425195693969727,-3.8067808151245117,2.4827871322631836,1.64794921875,-4.4403076171875,8.7432861328125
0.6812499000000001,8.367734909057617,-3.840299606323242,2.5043349266052246,2.2430419921875,-3.997802734375,8.270263671875
0.6837499,8.303091049194336,-3.8762125968933105,2.5282769203186035,2.99072265625,-3.4942626953125,7.8582763671875
0.6862499000000001,8.245630264282227,-3.9169139862060547,2.5330653190612793,3.875732421875,-3.47900390625,7.4005126953125
0.6887499,8.195352554321289,-3.9624037742614746,2.5474305152893066,4.730224609375,-3.1585693359375,6.9580078125
0.6912499000000001,8.157045364379883,-4.0078935623168945,2.5665841102600098,5.6610107421875,-2.9296875,6.6680908203125
0.6937499,8.133103370666504,-4.0533833503723145,2.5953147411346436,6.2713623046875,-2.50244140625,6.2408447265625
0.6962499000000001,8.118738174438477,-4.091690540313721,2.63362193107605,7.0953369140625,-2.25830078125,5.8441162109375
0.6987499,8.1139497756958,-4.129997730255127,2.6815059185028076,7.8277587890625,-1.800537109375,5.401611328125
0.7012499000000001,8.109161376953125,-4.1611223220825195,2.7269957065582275,8.6822509765625,-1.2969970703125,5.279541015625
0.7037499,8.106766700744629,-4.182670593261719,2.7772738933563232,9.6282958984375,-0.9765625,5.0506591796875
0.7062499,8.099584579467773,-4.199429988861084,2.8203697204589844,10.4827880859375,-0.1983642578125,4.3792724609375
0.7087499,8.090007781982422,-4.2090067863464355,2.8658595085144043,11.29150390625,0.457763671875,3.7384033203125
0.7112499,8.073247909545898,-4.213795185089111,2.9065608978271484,12.1612548828125,0.701904296875,3.875732421875
0.7137499,8.056488990783691,-4.218583583831787,2.9472622871398926,12.939453125,1.0986328125,3.692626953125
0.7162499,8.037335395812988,-4.220977783203125,2.9879636764526367,13.7176513671875,1.5106201171875,3.387451171875
0.7187499,8.018181800842285,-4.220977783203125,3.026270866394043,14.5111083984375,2.01416015625,3.1585693359375
0.7212499,8.006210327148438,-4.218583583831787,3.0597896575927734,15.3045654296875,2.25830078125,2.899169921875
0.7237499000000001,7.994239330291748,-4.211400985717773,3.090914487838745,16.0675048828125,2.7313232421875,2.62451171875
0.7262499,7.979874134063721,-4.20421838760376,3.1052796840667725,16.5863037109375,3.570556640625,2.4566650390625
0.7287499000000001,7.970297336578369,-4.189853191375732,3.114856481552124,17.3187255859375,4.180908203125,2.38037109375
0.7312499,7.955932140350342,-4.180276393890381,3.1076738834381104,17.88330078125,4.57763671875,2.410888671875
0.7337499000000001,7.948749542236328,-4.165910720825195,3.095702886581421,18.1884765625,5.1116943359375,2.3040771484375
0.7362499,7.94635534286499,-4.146757125854492,3.0789434909820557,18.463134765625,5.7373046875,2.25830078125
0.7387499000000001,7.94635534286499,-4.125209331512451,3.0573954582214355,18.7530517578125,6.134033203125,2.13623046875
0.7412499,7.948749542236328,-4.106055736541748,3.043030261993408,19.1650390625,6.53076171875,2.13623046875
0.7437499000000001,7.953537940979004,-4.084507942199707,3.026270866394043,19.4244384765625,6.622314453125,2.2125244140625
0.7462499,7.967903137207031,-4.062960147857666,3.026270866394043,19.34814453125,7.049560546875,2.2735595703125
0.7487499000000001,7.977479934692383,-4.041412353515625,3.0166940689086914,19.5159912109375,7.1868896484375,2.0751953125
0.7512499,7.99184513092041,-4.015076160430908,3.0166940689086914,19.53125,7.32421875,2.044677734375
0.7537499000000001,8.001421928405762,-3.993528366088867,3.0095114707946777,19.0582275390625,8.1329345703125,2.13623046875
0.7562499,8.01339340209961,-3.971980571746826,2.999934673309326,18.9361572265625,8.544921875,2.3193359375
0.7587499000000001,8.02536392211914,-3.9456443786621094,2.9879636764526367,18.8751220703125,8.758544921875,2.3345947265625
0.7612499,8.04930591583252,-3.9169139862060547,2.980781078338623,18.463134765625,9.0484619140625,2.3956298828125
0.7637499000000001,8.075642585754395,-3.8762125968933105,2.9688100814819336,17.5018310546875,9.4451904296875,2.62451171875
0.7662499,8.106766700744629,-3.8379054069519043,2.96162748336792,17.08984375,9.613037109375,2.593994140625
0.7687499000000001,8.147468566894531,-3.801992416381836,2.956839084625244,16.6168212890625,9.82666015625,2.9296875
0.7712499,8.192957878112793,-3.7708675861358643,2.9448680877685547,15.7318115234375,10.2081298828125,2.838134765625
0.7737499,8.243236541748047,-3.7445313930511475,2.937685489654541,14.83154296875,10.2996826171875,3.0517578125
0.7762499,8.300697326660156,-3.7229835987091064,2.9305028915405273,13.824462890625,10.589599609375,3.1890869140625
0.7787499,8.360552787780762,-3.7014358043670654,2.9281086921691895,12.603759765625,10.894775390625,3.2501220703125
0.7812499,8.42040729522705,-3.6774938106536865,2.9281086921691895,11.8865966796875,10.9405517578125,3.570556640625
0.7837499,8.47547435760498,-3.6583402156829834,2.9305028915405273,10.8642578125,10.955810546875,3.753662109375
0.7862499000000001,8.528146743774414,-3.6391866207122803,2.9328970909118652,9.490966796875,11.2762451171875,3.6163330078125
0.7887499,8.56645393371582,-3.622427225112915,2.935291290283203,8.270263671875,11.4288330078125,3.7384033203125
0.7912499000000001,8.59997272491455,-3.6128504276275635,2.935291290283203,6.7901611328125,11.65771484375,4.08935546875
0.7937499,8.62630844116211,-3.600879430770874,2.935291290283203,5.7830810546875,11.688232421875,4.302978515625
0.7962499000000001,8.643068313598633,-3.5913026332855225,2.9257144927978516,4.6539306640625,11.444091796875,4.547119140625
0.7987499,8.65982723236084,-3.5889084339141846,2.9161376953125,3.3111572265625,11.4288330078125,4.5623779296875
0.8012499000000001,8.669404029846191,-3.5913026332855225,2.9089550971984863,1.9378662109375,11.505126953125,4.82177734375
0.8037499,8.678980827331543,-3.603273630142212,2.9017724990844727,0.396728515625,11.1846923828125,5.0048828125
0.8062499000000001,8.683769226074219,-3.627215623855591,2.9017724990844727,-0.762939453125,11.138916015625,4.913330078125
0.8087499,8.69334602355957,-3.6535518169403076,2.911349296569824,-1.9683837890625,11.0626220703125,5.1422119140625
0.8112499000000001,8.707711219787598,-3.6846764087677,2.9233202934265137,-3.0975341796875,11.1083984375,5.5084228515625
0.8137499,8.734047889709473,-3.713406801223755,2.940079689025879,-4.3487548828125,10.8642578125,5.8135986328125
0.8162499000000001,8.762778282165527,-3.734954595565796,2.96162748336792,-5.3558349609375,10.4827880859375,5.859375
0.8187499,8.801085472106934,-3.758896589279175,2.9759926795959473,-6.2408447265625,10.5743408203125,5.92041015625
0.8212499000000001,8.83699893951416,-3.77565598487854,2.9927520751953125,-7.2021484375,10.5438232421875,6.2103271484375
0.8237499,8.87291145324707,-3.7924153804779053,3.004723072052002,-8.0718994140625,10.1470947265625,6.378173828125
0.8262499000000001,8.901641845703125,-3.8091750144958496,3.0142998695373535,-8.544921875,9.979248046875,6.5765380859375
0.8287499,8.927978515625,-3.821146011352539,3.021482467651367,-9.1094970703125,9.8419189453125,6.8359375
0.8312499000000001,8.951920509338379,-3.84269380569458,3.0310592651367188,-10.009765625,9.5672607421875,7.232666015625
0.8337499,8.978256225585938,-3.864241600036621,3.0526070594787598,-10.5743408203125,9.246826171875,7.3699951171875
0.8362499,9.004592895507812,-3.892971992492676,3.0813376903533936,-11.016845703125,8.941650390625,7.537841796875
0.8387499,9.026140213012695,-3.9217023849487305,3.117250680923462,-11.5509033203125,8.7890625,7.720947265625
0.8412499,9.045293807983398,-3.952826976776123,3.1507694721221924,-11.77978515625,8.85009765625,7.7667236328125
0.8437499,9.057265281677246,-3.9839515686035156,3.179499864578247,-11.8865966796875,8.3770751953125,7.7667236328125
0.8462499,9.062053680419922,-4.0078935623168945,3.1962592601776123,-12.0391845703125,7.9498291015625,8.0718994140625
0.8487499000000001,9.069235801696777,-4.0294413566589355,3.201047658920288,-12.02392578125,8.026123046875,8.270263671875
0.8512499,9.07641887664795,-4.041412353515625,3.205836057662964,-12.1612548828125,7.6446533203125,8.36181640625
0.8537499000000001,9.0859956741333,-4.050989151000977,3.201047658920288,-11.8408203125,7.32421875,8.6517333984375
0.8562499,9.093177795410156,-4.055777549743652,3.1938650608062744,-11.77978515625,6.9427490234375,8.7432861328125
0.8587499000000001,9.100360870361328,-4.05817174911499,3.1938650608062744,-11.5509033203125,6.5765380859375,8.544921875
0.8612499,9.102754592895508,-4.065354347229004,3.1890766620635986,-11.23046875,6.3018798828125,8.9111328125
0.8637499000000001,9.100360870361328,-4.07014274597168,3.19865345954895,-11.1846923828125,5.9967041015625,9.002685546875
0.8662499,9.090784072875977,-4.079719543457031,3.2082302570343018,-11.077880859375,5.67626953125,8.8348388671875
0.8687499000000001,9.081207275390625,-4.086902141571045,3.2178070545196533,-10.7574462890625,5.462646484375,8.941650390625
0.8712499,9.066842079162598,-4.094084739685059,3.227383852005005,-10.5438232421875,5.035400390625,8.9874267578125
0.8737499000000001,9.05487060546875,-4.10366153717041,3.2345664501190186,-10.406494140625,4.7149658203125,8.697509765625
0.8762499,9.040505409240723,-4.108449935913086,3.2393548488616943,-10.0555419921875,4.4403076171875,8.8958740234375
0.8787499000000001,9.033323287963867,-4.110844135284424,3.24414324760437,-9.613037109375,4.0740966796875,8.9874267578125
0.8812499,9.026140213012695,-4.113238334655762,3.2537200450897217,-9.33837890625,3.814697265625,8.758544921875
0.8837499000000001,9.023746490478516,-4.106055736541748,3.265691041946411,-9.185791015625,3.326416015625,8.758544921875
0.8862499,9.026140213012695,-4.094084739685059,3.2800562381744385,-8.941650390625,3.1585693359375,8.72802734375
0.8887499000000001,9.030928611755371,-4.077325344085693,3.2968156337738037,-8.758544921875,3.021240234375,8.3465576171875
0.8912499,9.035717010498047,-4.060565948486328,3.313575267791748,-8.636474609375,2.716064453125,8.0413818359375
0.8937499000000001,9.040505409240723,-4.034229755401611,3.3303346633911133,-8.4075927734375,2.38037109375,7.8125
0.8962499,9.045293807983398,-4.01268196105957,3.3518824577331543,-8.3770751953125,2.0294189453125,7.7362060546875
0.8987499,9.045293807983398,-3.9839515686035156,3.375824451446533,-8.3160400390625,1.922607421875,7.2784423828125
0.9012499,9.042900085449219,-3.957615375518799,3.40216064453125,-8.0413818359375,1.708984375,6.77490234375
0.9037499,9.040505409240723,-3.9384617805480957,3.4332852363586426,-7.99560546875,1.617431640625,6.53076171875
0.9062499,9.028534889221191,-3.9193081855773926,3.4596214294433594,-7.7972412109375,1.64794921875,5.8746337890625
0.9087499,9.01895809173584,-3.909731388092041,3.488351821899414,-7.6904296875,1.5106201171875,5.4168701171875
0.9112499000000001,8.999804496765137,-3.9049429893493652,3.507505416870117,-7.50732421875,1.2664794921875,5.035400390625
0.9137499,8.980650901794434,-3.9025487899780273,3.529053211212158,-7.4462890625,1.1138916015625,4.425048828125
0.9162499000000001,8.959102630615234,-3.9001545906066895,3.5410242080688477,-7.2174072265625,1.1138916015625,3.84521484375
0.9187499,8.937555313110352,-3.8953661918640137,3.555389642715454,-7.3089599609375,0.9307861328125,3.387451171875
0.9212499000000001,8.920795440673828,-3.8810009956359863,3.555389642715454,-7.50732421875,0.91552734375,3.1280517578125
0.9237499,8.899248123168945,-3.864241600036621,3.555389642715454,-7.38525390625,0.946044921875,2.38037109375
0.9262499000000001,8.887276649475098,-3.845088005065918,3.550601005554199,-7.415771484375,0.9002685546875,1.8463134765625
0.9287499,8.87051773071289,-3.818751811981201,3.5410242080688477,-7.5225830078125,0.7781982421875,1.190185546875
0.9312499000000001,8.851364135742188,-3.7924153804779053,3.531447410583496,-7.8277587890625,0.732421875,0.6256103515625
0.9337499,8.834604263305664,-3.7708675861358643,3.514688014984131,-7.8582763671875,0.7171630859375,-0.06103515625
0.9362499000000001,8.815450668334961,-3.751713991165161,3.4979286193847656,-7.9345703125,0.54931640625,-0.7171630859375
0.9387499,8.803479194641113,-3.737348794937134,3.4787750244140625,-8.2244873046875,0.3662109375,-1.4190673828125
0.9412499000000001,8.793902397155762,-3.73016619682312,3.4596214294433594,-8.2855224609375,0.335693359375,-2.166748046875
0.9437499,8.791508674621582,-3.7253777980804443,3.442862033843994,-8.270263671875,0.1220703125,-2.7008056640625
0.9462499000000001,8.779537200927734,-3.7253777980804443,3.428496837615967,-8.4381103515625,-0.0762939453125,-3.0975341796875
0.9487499,8.772355079650879,-3.7253777980804443,3.423708438873291,-8.392333984375,-0.152587890625,-3.5400390625
0.9512499000000001,8.760383605957031,-3.73016619682312,3.421314239501953,-8.60595703125,-0.1983642578125,-4.180908203125
0.9537499,8.7484130859375,-3.734954595565796,3.428496837615967,-8.5906982421875,-0.335693359375,-4.4403076171875
0.9562499000000001,8.736441612243652,-3.7421371936798096,3.4308910369873047,-8.60595703125,-0.6561279296875,-4.791259765625
0.9587499,8.724471092224121,-3.7421371936798096,3.4404678344726562,-8.6822509765625,-0.518798828125,-5.2642822265625
0.9612499,8.712499618530273,-3.73016619682312,3.4404678344726562,-8.48388671875,-0.6103515625,-5.67626953125
0.9637499,8.700529098510742,-3.713406801223755,3.442862033843994,-8.3770751953125,-0.885009765625,-5.889892578125
0.9662499,8.69334602355957,-3.6966474056243896,3.445256233215332,-8.30078125,-0.885009765625,-6.0882568359375
0.9687499,8.686163902282715,-3.6798880100250244,3.442862033843994,-8.0108642578125,-0.67138671875,-6.3629150390625
0.9712499,8.681375503540039,-3.670311212539673,3.4524388313293457,-7.8277587890625,-0.8392333984375,-6.53076171875
0.9737499000000001,8.674192428588867,-3.6607344150543213,3.466804027557373,-7.9498291015625,-0.8544921875,-6.7138671875
0.9762499,8.667010307312012,-3.648763418197632,3.485957622528076,-7.3699951171875,-0.885009765625,-6.8206787109375
0.9787499000000001,8.65743350982666,-3.6343982219696045,3.5003228187561035,-7.0953369140625,-0.9918212890625,-7.0343017578125
0.9812499,8.652645111083984,-3.6128504276275635,3.507505416870117,-6.6375732421875,-1.1749267578125,-7.1868896484375
0.9837499000000001,8.647856712341309,-3.5889084339141846,3.4979286193847656,-6.2255859375,-1.129150390625,-7.293701171875
0.9862499,8.645462036132812,-3.5625722408294678,3.4811692237854004,-6.0577392578125,-1.007080078125,-7.4462890625
0.9887499000000001,8.638279914855957,-3.536235809326172,3.4548330307006836,-5.645751953125,-1.190185546875,-7.3699951171875
0.9912499,8.643068313598633,-3.507505416870117,3.426102638244629,-5.3558349609375,-1.129150390625,-7.476806640625
0.9937499000000001,8.647856712341309,-3.488351821899414,3.399766445159912,-5.126953125,-1.2054443359375,-7.3394775390625
0.9962499,8.664615631103516,-3.469198226928711,3.383007049560547,-4.974365234375,-0.9765625,-7.38525390625
0.9987499000000001,8.686163902282715,-3.450044631958008,3.3662476539611816,-4.608154296875,-1.5869140625,-7.232666015625
1.0012499,8.712499618530273,-3.4332852363586426,3.359065055847168,-4.0283203125,-1.64794921875,-7.0037841796875
1.0037498999999999,8.734047889709473,-3.4117374420166016,3.359065055847168,-3.7994384765625,-1.373291015625,-6.89697265625
1.0062499,8.753201484680176,-3.3901896476745605,3.361459255218506,-3.753662109375,-1.46484375,-6.9732666015625
1.0087499,8.762778282165527,-3.3686418533325195,3.361459255218506,-3.4027099609375,-1.5716552734375,-6.744384765625
1.0112499,8.767566680908203,-3.339911460876465,3.361459255218506,-2.9754638671875,-1.2969970703125,-6.5155029296875
1.0137498999999999,8.765172004699707,-3.3207578659057617,3.354276657104492,-2.899169921875,-1.3885498046875,-6.5765380859375
1.0162499,8.757989883422852,-3.2968156337738037,3.3423056602478027,-2.7313232421875,-1.373291015625,-6.40869140625
1.0187499,8.75080680847168,-3.2776620388031006,3.3303346633911133,-2.6092529296875,-1.5716552734375,-5.9051513671875
1.0212499,8.743624687194824,-3.2609026432037354,3.3231520652770996,-2.410888671875,-1.3275146484375,-5.7830810546875
1.0237498999999999,8.731653213500977,-3.248931646347046,3.315969467163086,-2.4566650390625,-1.4495849609375,-5.5084228515625
1.0262498999999998,8.724471092224121,-3.246537446975708,3.308786630630493,-2.593994140625,-1.52587890625,-5.218505859375
1.0287499,8.71489429473877,-3.2393548488616943,3.2968156337738037,-2.410888671875,-1.46484375,-5.126953125
1.0312499,8.702922821044922,-3.2417490482330322,3.2824504375457764,-2.4261474609375,-1.129150390625,-4.974365234375
1.0337498999999999,8.683769226074219,-3.2393548488616943,3.2632968425750732,-2.716064453125,-1.28173828125,-4.5928955078125
1.0362498999999998,8.671798706054688,-3.2393548488616943,3.2393548488616943,-3.082275390625,-1.190185546875,-4.364013671875
1.0387499,8.65743350982666,-3.2297780513763428,3.2154128551483154,-3.3416748046875,-1.0528564453125,-4.2572021484375
1.0412499,8.645462036132812,-3.220201253890991,3.1866824626922607,-4.058837890625,-1.068115234375,-3.936767578125
1.0437499,8.640673637390137,-3.203441858291626,3.155557870864868,-4.5928955078125,-0.8544921875,-3.7384033203125
1.0462498999999998,8.640673637390137,-3.179499864578247,3.1292216777801514,-5.0201416015625,-0.885009765625,-3.7841796875
1.0487499,8.647856712341309,-3.1531636714935303,3.1004912853240967,-5.8135986328125,-0.48828125,-3.5400390625
1.0512499,8.664615631103516,-3.1268274784088135,3.0789434909820557,-6.40869140625,-0.42724609375,-3.5552978515625
1.0537499,8.686163902282715,-3.090914487838745,3.0597896575927734,-7.4462890625,-0.213623046875,-3.997802734375
1.0562498999999999,8.702922821044922,-3.0526070594787598,3.047818660736084,-8.636474609375,0.091552734375,-3.7994384765625
1.0587499,8.722076416015625,-2.9975404739379883,3.0382418632507324,-9.4757080078125,-0.0457763671875,-3.692626953125
1.0612499,8.736441612243652,-2.937685489654541,3.0406360626220703,-10.6658935546875,0.4119873046875,-4.1046142578125
1.0637499,8.746018409729004,-2.875436305999756,3.043030261993408,-11.810302734375,0.7171630859375,-4.45556640625
1.0662498999999999,8.753201484680176,-2.82515811920166,3.0597896575927734,-12.63427734375,1.0223388671875,-4.6234130859375
1.0687499,8.75080680847168,-2.784456491470337,3.0765492916107178,-13.671875,1.2359619140625,-4.8980712890625
1.0712499,8.7484130859375,-2.762908697128296,3.1028854846954346,-14.892578125,1.7242431640625,-5.5084228515625
1.0737499,8.743624687194824,-2.7533318996429443,3.1292216777801514,-15.8233642578125,2.044677734375,-5.615234375
1.0762498999999999,8.734047889709473,-2.7509377002716064,3.1507694721221924,-16.7236328125,2.4871826171875,-5.767822265625
1.0787499,8.71728801727295,-2.7509377002716064,3.162740468978882,-17.5933837890625,2.9296875,-6.0272216796875
1.0812499,8.698134422302246,-2.7557260990142822,3.1651346683502197,-18.6309814453125,3.11279296875,-6.1492919921875
1.0837499,8.669404029846191,-2.7557260990142822,3.1651346683502197,-19.2718505859375,3.387451171875,-6.1492919921875
1.0862498999999999,8.638279914855957,-2.760514497756958,3.155557870864868,-19.9737548828125,4.0740966796875,-6.2408447265625
1.0887499,8.597578048706055,-2.765302896499634,3.1459810733795166,-20.5078125,4.6539306640625,-6.2103271484375
1.0912499,8.554482460021973,-2.7700912952423096,3.1268274784088135,-21.05712890625,5.126953125,-6.0882568359375
1.0937499,8.492233276367188,-2.7772738933563232,3.1076738834381104,-21.209716796875,5.615234375,-5.706787109375
1.0962498999999999,8.429984092712402,-2.782062292098999,3.0789434909820557,-21.392822265625,5.889892578125,-5.7373046875
1.0987498999999998,8.360552787780762,-2.7916390895843506,3.050212860107422,-21.1944580078125,6.4849853515625,-5.096435546875
1.1012499,8.29590892791748,-2.7988216876983643,3.0142998695373535,-21.026611328125,6.8817138671875,-4.4403076171875
1.1037499,8.233659744262695,-2.80361008644104,2.9735984802246094,-20.721435546875,7.2021484375,-3.7689208984375
1.1062499,8.178592681884766,-2.80361008644104,2.9281086921691895,-20.3399658203125,7.6751708984375,-2.9449462890625
1.1087498999999998,8.128314971923828,-2.7892448902130127,2.8826189041137695,-19.9127197265625,8.1024169921875,-2.288818359375
1.1112499,8.075642585754395,-2.7676970958709717,2.832340717315674,-19.256591796875,8.4686279296875,-1.4495849609375
1.1137499,8.018181800842285,-2.734178304672241,2.7892448902130127,-18.49365234375,8.880615234375,-0.3814697265625
1.1162499,7.95832633972168,-2.693476915359497,2.7437551021575928,-17.486572265625,9.3536376953125,0.762939453125
1.1187498999999999,7.888894557952881,-2.647987127304077,2.7054479122161865,-16.5863037109375,9.6435546875,1.9683837890625
1.1212499,7.817068576812744,-2.5905263423919678,2.6599581241607666,-15.5487060546875,9.979248046875,3.0670166015625
1.1237499,7.740454196929932,-2.535459518432617,2.6144683361053467,-14.4805908203125,10.345458984375,4.364013671875
1.1262499,7.6566572189331055,-2.4803929328918457,2.564189910888672,-13.153076171875,10.68115234375,5.950927734375
1.1287498999999999,7.575253963470459,-2.434903144836426,2.5115175247192383,-11.3677978515625,11.04736328125,7.537841796875
1.1312499,7.493851184844971,-2.3942017555236816,2.4612393379211426,-10.0250244140625,11.5814208984375,9.3231201171875
1.1337499,7.412448406219482,-2.360682964324951,2.403778553009033,-8.9111328125,12.1002197265625,11.04736328125
1.1362499,7.333439826965332,-2.3295583724975586,2.3343467712402344,-7.3699951171875,12.725830078125,12.939453125
1.1387498999999999,7.252037048339844,-2.300827741622925,2.255337953567505,-6.072998046875,13.0767822265625,15.31982421875
1.1412499,7.168240070343018,-2.27209734916687,2.166752576828003,-4.913330078125,13.6871337890625,17.4560546875
1.1437499,7.084442615509033,-2.2457611560821533,2.078166961669922,-3.90625,14.801025390625,19.83642578125
1.1462499,6.993463039398193,-2.2194249629974365,1.9991583824157715,-3.082275390625,15.68603515625,22.4151611328125
1.1487498999999999,6.904877662658691,-2.185906171798706,1.9345149993896484,-1.9989013671875,16.29638671875,24.7039794921875
1.1512499,6.823474884033203,-2.145204782485962,1.8914192914962769,-1.0528564453125,17.1661376953125,27.252197265625
1.1537499,6.744466304779053,-2.0925323963165283,1.8722656965255737,-0.2593994140625,18.2342529296875,29.9835205078125
1.1562499,6.682217121124268,-2.0231003761291504,1.8746598958969116,0.640869140625,19.3939208984375,32.8216552734375
1.1587498999999999,6.617573261260986,-1.9488801956176758,1.8914192914962769,1.2664794921875,20.782470703125,35.614013671875
1.1612498999999998,6.550535678863525,-1.867477297782898,1.9105730056762695,1.5411376953125,22.4456787109375,38.299560546875
1.1637499,6.466738700866699,-1.7980455160140991,1.944091796875,1.9073486328125,25.0244140625,41.3665771484375
1.1662499,6.370970726013184,-1.7477672100067139,1.965639591217041,3.4637451171875,25.4974365234375,44.219970703125
1.1687499,6.253654956817627,-1.7190368175506592,1.9967641830444336,3.753662109375,26.885986328125,47.0733642578125
1.1712498999999998,6.117185115814209,-1.7166426181793213,2.0254945755004883,3.6163330078125,29.0069580078125,50.537109375
1.1737499,5.96874475479126,-1.7310078144073486,2.056619167327881,3.631591796875,30.8685302734375,53.77197265625
1.1762499,5.810727596282959,-1.7549498081207275,2.0925323963165283,3.3721923828125,32.40966796875,56.94580078125
1.1787499,5.6455278396606445,-1.7836803197860718,2.1332337856292725,3.1280517578125,34.3170166015625,60.2569580078125
1.1812498999999999,5.4659624099731445,-1.8100165128707886,2.1715409755706787,3.021240234375,36.07177734375,63.568115234375
1.1837499,5.281609058380127,-1.8339585065841675,2.183511972427368,2.5787353515625,37.689208984375,67.07763671875
1.1862499,5.085284233093262,-1.8602946996688843,2.1547815799713135,2.197265625,39.398193359375,70.2972412109375
1.1887499,4.888959884643555,-1.8842366933822632,2.075772762298584,1.7852783203125,40.7257080078125,73.7152099609375
1.1912498999999999,4.67827033996582,-1.9177556037902832,1.9488801956176758,1.129150390625,42.205810546875,76.8890380859375
1.1937499,4.458003520965576,-1.9584569931030273,1.7908629179000854,0.5950927734375,43.5333251953125,79.925537109375
1.1962499,4.225766181945801,-2.0015525817871094,1.6160861253738403,-0.06103515625,44.525146484375,83.1756591796875
1.1987499,3.976768970489502,-2.054224967956543,1.4508862495422363,-1.03759765625,45.4864501953125,86.42578125
1.2012498999999999,3.7229835987091064,-2.1068975925445557,1.3048399686813354,-2.0599365234375,46.417236328125,89.4622802734375
1.2037499,3.464409828186035,-2.164358377456665,1.1899182796478271,-3.0975341796875,47.42431640625,92.71240234375
1.2062499,3.2106244564056396,-2.231395959854126,1.1085153818130493,-4.7149658203125,48.370361328125,95.6878662109375
1.2087499,2.9472622871398926,-2.3127987384796143,1.0462661981582642,-6.3323974609375,49.2095947265625,98.69384765625
1.2112498999999999,2.671929121017456,-2.403778553009033,0.9888052940368652,-8.23974609375,50.10986328125,101.9744873046875
1.2137499,2.363077163696289,-2.499546527862549,0.9169792532920837,-10.5438232421875,50.5523681640625,105.2093505859375
1.2162499,1.6424223184585571,-2.7078421115875244,0.7158663272857666,-14.5416259765625,50.689697265625,111.663818359375
1.2187499,1.6424223184585571,-2.7078421115875244,0.7158663272857666,-14.5416259765625,50.689697265625,111.663818359375
1.2212498999999999,0.849941611289978,-2.9759926795959473,0.3974374830722809,-18.73779296875,50.689697265625,118.1488037109375
1.2237498999999998,0.849941611289978,-2.9759926795959473,0.3974374830722809,-18.73779296875,50.689697265625,118.1488037109375
1.2262499,0.11971008777618408,-3.3494882583618164,-0.0071826050989329815,-23.529052734375,50.47607421875,124.9847412109375
1.2287499,0.11971008777618408,-3.3494882583618164,-0.0071826050989329815,-23.529052734375,50.47607421875,124.9847412109375
1.2312499,-0.48602294921875,-3.754108190536499,-0.4141969084739685,-28.8238525390625,49.6826171875,131.866455078125
1.2337498999999998,-0.48602294921875,-3.754108190536499,-0.4141969084739685,-28.8238525390625,49.6826171875,131.866455078125
1.2362499,-1.0031704902648926,-4.043806552886963,-0.790086567401886,-34.088134765625,48.4771728515625,138.5955810546875
1.2387499,-1.0031704902648926,-4.043806552886963,-0.790086567401886,-34.088134765625,48.4771728515625,138.5955810546875
1.2412499,-1.4748282432556152,-4.156333923339844,-1.1468225717544556,-40.4815673828125,46.783447265625,145.2484130859375
1.2437498999999999,-1.4748282432556152,-4.156333923339844,-1.1468225717544556,-40.4815673828125,46.783447265625,145.2484130859375
1.2462499,-1.889025092124939,-4.182670593261719,-1.4867992401123047,-46.6766357421875,44.891357421875,151.8096923828125
1.2487499,-1.889025092124939,-4.182670593261719,-1.4867992401123047,-46.6766357421875,44.891357421875,151.8096923828125
1.2512499,-2.2385785579681396,-4.213795185089111,-1.7717092037200928,-53.2379150390625,42.66357421875,158.416748046875
1.2537498999999999,-2.2385785579681396,-4.213795185089111,-1.7717092037200928,-53.2379150390625,42.66357421875,158.416748046875
1.2562499,-2.492363929748535,-4.278438568115234,-1.965639591217041,-60.821533203125,40.8477783203125,164.61181640625
1.2587499,-2.492363929748535,-4.278438568115234,-1.965639591217041,-60.821533203125,40.8477783203125,164.61181640625
1.2612499,-2.5761611461639404,-4.412513732910156,-2.070984363555908,-68.450927734375,39.2608642578125,171.356201171875
1.2637498999999999,-2.5761611461639404,-4.412513732910156,-2.070984363555908,-68.450927734375,39.2608642578125,171.356201171875
1.2662499,-2.4588451385498047,-4.623203277587891,-2.164358377456665,-76.7364501953125,39.794921875,177.8717041015625
1.2687499,-2.4588451385498047,-4.623203277587891,-2.164358377456665,-76.7364501953125,39.794921875,177.8717041015625
1.2712499,-2.1978771686553955,-4.9152960777282715,-2.33913516998291,-85.296630859375,41.015625,185.577392578125
1.2737498999999999,-2.1978771686553955,-4.9152960777282715,-2.33913516998291,-85.296630859375,41.015625,185.577392578125
1.2762499,-1.8722656965255737,-5.305551052093506,-2.559401512145996,-95.3826904296875,43.1976318359375,193.2373046875
1.2787499,-1.8722656965255737,-5.305551052093506,-2.559401512145996,-95.3826904296875,43.1976318359375,193.2373046875
1.2812499,-1.5514427423477173,-5.760449409484863,-2.734178304672241,-106.3079833984375,46.234130859375,201.66015625
1.2837498999999999,-1.5514427423477173,-5.760449409484863,-2.734178304672241,-106.3079833984375,46.234130859375,201.66015625
1.2862498999999998,-1.2665326595306396,-6.2201361656188965,-2.9065608978271484,-117.431640625,51.1474609375,210.26611328125
1.2887499,-1.2665326595306396,-6.2201361656188965,-2.9065608978271484,-117.431640625,51.1474609375,210.26611328125
1.2912499,-1.048660397529602,-6.710947513580322,-3.179499864578247,-128.72314453125,56.7779541015625,219.6044921875
1.2937499,-1.048660397529602,-6.710947513580322,-3.179499864578247,-128.72314453125,56.7779541015625,219.6044921875
1.2962498999999998,-0.9481038451194763,-7.29034423828125,-3.6343982219696045,-140.5181884765625,63.5223388671875,229.2327880859375
1.2987499,-0.9481038451194763,-7.29034423828125,-3.6343982219696045,-140.5181884765625,63.5223388671875,229.2327880859375
1.3012499,-0.9457096457481384,-8.001421928405762,-4.2760443687438965,-152.2369384765625,70.2362060546875,239.7613525390625
1.3037499,-0.9457096457481384,-8.001421928405762,-4.2760443687438965,-152.2369384765625,70.2362060546875,239.7613525390625
1.3062498999999999,-0.9074024558067322,-8.769960403442383,-4.944026470184326,-164.36767578125,77.8961181640625,250.67138671875
1.3087499,-0.9074024558067322,-8.769960403442383,-4.944026470184326,-164.36767578125,77.8961181640625,250.67138671875
1.3112499,-0.727837324142456,-9.50737476348877,-5.5114521980285645,-176.1474609375,86.1968994140625,261.5814208984375
1.3137499,-0.727837324142456,-9.50737476348877,-5.5114521980285645,-176.1474609375,86.1968994140625,261.5814208984375
1.3162498999999999,-0.4668693244457245,-10.256759643554688,-5.947196960449219,-187.744140625,95.9320068359375,272.39990234375
1.3187499,-0.4668693244457245,-10.256759643554688,-5.947196960449219,-187.744140625,95.9320068359375,272.39990234375
1.3212499,-0.21787235140800476,-11.097125053405762,-6.2847795486450195,-197.998046875,105.3619384765625,284.4085693359375
1.3237499,-0.21787235140800476,-11.097125053405762,-6.2847795486450195,-197.998046875,105.3619384765625,284.4085693359375
1.3262498999999999,0.019153613597154617,-12.050017356872559,-6.540958881378174,-206.634521484375,115.6005859375,296.4019775390625
1.3287499,0.019153613597154617,-12.050017356872559,-6.540958881378174,-206.634521484375,115.6005859375,296.4019775390625
1.3312499,0.26575639843940735,-13.110648155212402,-6.732495307922363,-214.3707275390625,125.9765625,308.868408203125
1.3337499,0.26575639843940735,-13.110648155212402,-6.732495307922363,-214.3707275390625,125.9765625,308.868408203125
1.3362498999999999,0.5219359993934631,-14.211980819702148,-6.885724067687988,-221.74072265625,136.8865966796875,321.929931640625
1.3387499,0.5219359993934631,-14.211980819702148,-6.885724067687988,-221.74072265625,136.8865966796875,321.929931640625
1.3412499,0.7350199222564697,-15.313314437866211,-6.97430944442749,-228.1951904296875,147.9644775390625,334.8388671875
1.3437499,0.7350199222564697,-15.313314437866211,-6.97430944442749,-228.1951904296875,147.9644775390625,334.8388671875
1.3462498999999999,0.8762778043746948,-16.381128311157227,-6.962338447570801,-234.8480224609375,159.7900390625,348.0682373046875
1.3487498999999998,0.8762778043746948,-16.381128311157227,-6.962338447570801,-234.8480224609375,159.7900390625,348.0682373046875
1.3512499,1.0247182846069336,-17.43218231201172,-6.94079065322876,-241.6839599609375,171.8597412109375,359.8785400390625
1.3537499,1.0247182846069336,-17.43218231201172,-6.94079065322876,-241.6839599609375,171.8597412109375,359.8785400390625
1.3562499,1.2856862545013428,-18.46647834777832,-6.957550048828125,-251.312255859375,183.1512451171875,371.9329833984375
1.3587498999999998,1.2856862545013428,-18.46647834777832,-6.957550048828125,-251.312255859375,183.1512451171875,371.9329833984375
1.3612499,1.6711528301239014,-19.457677841186523,-7.015010833740234,-260.345458984375,194.7784423828125,381.317138671875
1.3637499,1.6711528301239014,-19.457677841186523,-7.015010833740234,-260.345458984375,194.7784423828125,381.317138671875
1.3662499,2.1356279850006104,-20.48478889465332,-7.144298076629639,-268.6309814453125,205.4595947265625,387.9547119140625
1.3687498999999999,2.1356279850006104,-20.48478889465332,-7.144298076629639,-268.6309814453125,205.4595947265625,387.9547119140625
1.3712499,2.540247917175293,-21.593305587768555,-7.2352776527404785,-276.8402099609375,215.423583984375,390.8843994140625
1.3737499,2.540247917175293,-21.593305587768555,-7.2352776527404785,-276.8402099609375,215.423583984375,390.8843994140625
1.3762499,2.806004285812378,-22.756887435913086,-7.103596210479736,-284.0576171875,223.907470703125,391.1285400390625
1.3787498999999999,2.806004285812378,-22.756887435913086,-7.103596210479736,-284.0576171875,223.907470703125,391.1285400390625
1.3812499,3.0310592651367188,-24.078487396240234,-6.710947513580322,-288.9251708984375,229.644775390625,388.7176513671875
1.3837499,3.0310592651367188,-24.078487396240234,-6.710947513580322,-288.9251708984375,229.644775390625,388.7176513671875
1.3862499,3.4548330307006836,-25.668235778808594,-6.145915985107422,-291.595458984375,232.9559326171875,384.5672607421875
1.3887498999999999,3.818751811981201,-26.54690933227539,-5.815515995025635,-292.8009033203125,235.16845703125,382.659912109375
1.3912499,4.264073371887207,-27.418397903442383,-5.475539207458496,-294.6319580078125,236.6790771484375,380.0201416015625
1.3937499,4.7836151123046875,-28.282705307006836,-5.097255229949951,-297.6226806640625,238.76953125,377.105712890625
1.3962499,5.355829238891602,-29.10391616821289,-4.685452938079834,-301.6204833984375,240.386962890625,373.3673095703125
1.3987498999999999,5.937620162963867,-29.879636764526367,-4.206612586975098,-307.1441650390625,242.5384521484375,369.44580078125
1.4012499,6.507440090179443,-30.657752990722656,-3.6774938106536865,-312.2711181640625,243.2403564453125,363.9984130859375
1.4037499,7.072471618652344,-31.40713882446289,-3.117250680923462,-318.267822265625,244.4610595703125,357.6507568359375
1.4062499,7.5968017578125,-32.18525314331055,-2.5929205417633057,-323.8525390625,245.330810546875,350.52490234375
1.4087498999999999,8.090007781982422,-32.94182205200195,-2.126051187515259,-330.810546875,247.5433349609375,342.4224853515625
1.4112498999999998,8.542511940002441,-33.70796585083008,-1.7573440074920654,-337.890625,248.4893798828125,333.2366943359375
1.4137499,8.959102630615234,-34.464534759521484,-1.4628572463989258,-345.15380859375,248.4893798828125,323.2879638671875
1.4162499,9.337387084960938,-35.24983215332031,-1.2186486721038818,-353.179931640625,248.6572265625,311.981201171875
1.4187499,9.713275909423828,-36.09259033203125,-1.0103530883789062,-361.4654541015625,248.35205078125,300.537109375
1.4212498999999998,10.098742485046387,-37.01435852050781,-0.8212111592292786,-369.140625,248.0010986328125,288.970947265625
1.4237499,10.517727851867676,-38.005558013916016,-0.6344634294509888,-376.5106201171875,247.5128173828125,276.6265869140625
1.4262499,10.986991882324219,-39.051822662353516,-0.42856210470199585,-383.72802734375,246.7193603515625,263.763427734375
1.4287499,11.496956825256348,-40.11484909057617,-0.19632454216480255,-389.5263671875,245.4681396484375,250.5035400390625
1.4312498999999999,12.045228958129883,-41.175479888916016,0.10534487664699554,-394.9432373046875,244.0185546875,236.9232177734375
1.4337499,12.6365966796875,-42.20977783203125,0.4692635238170624,-399.5819091796875,242.462158203125,223.236083984375
1.4362499,13.251906394958496,-43.19858169555664,0.9169792532920837,-403.5491943359375,240.78369140625,209.47265625
1.4387499,13.893552780151367,-44.144290924072266,1.4389152526855469,-406.79931640625,238.525390625,195.7244873046875
1.4412498999999999,14.532804489135742,-45.04450988769531,2.0446481704711914,-408.7982177734375,235.3668212890625,181.5032958984375
1.4437499,15.150507926940918,-45.91121292114258,2.75812029838562,-409.027099609375,231.5521240234375,167.4652099609375
1.4462499,15.7322998046875,-46.72284698486328,3.584120035171509,-406.8756103515625,226.3336181640625,153.8238525390625
1.4487499,16.270994186401367,-47.45307922363281,4.496310710906982,-402.313232421875,219.940185546875,139.434814453125
1.4512498999999999,16.77617073059082,-48.03965759277344,5.451597213745117,-395.782470703125,213.592529296875,125.30517578125
1.4537499,17.235858917236328,-48.43470001220703,6.368576526641846,-388.0157470703125,206.23779296875,110.748291015625
1.4562499,17.66442108154297,-48.60947799682617,7.2568254470825195,-379.69970703125,199.188232421875,95.916748046875
1.4587499,18.059463500976562,-48.59032440185547,8.17141056060791,-368.316650390625,189.2242431640625,80.9326171875
1.4612498999999999,18.46647834777832,-48.42033386230469,9.191340446472168,-355.377197265625,178.4210205078125,65.3533935546875
1.4637499,18.914194107055664,-48.154579162597656,10.266336441040039,-338.2110595703125,167.266845703125,49.8504638671875
1.4662499,19.467254638671875,-47.81699752807617,11.341333389282227,-319.4122314453125,155.975341796875,33.1573486328125
1.4687499,20.12087059020996,-47.41716384887695,12.342109680175781,-300.6744384765625,143.768310546875,14.923095703125
1.4712498999999999,20.853496551513672,-46.955081939697266,13.340492248535156,-281.463623046875,127.7618408203125,-2.8076171875
1.4737498999999998,21.614852905273438,-46.44511795043945,14.429853439331055,-263.275146484375,111.2823486328125,-20.81298828125
1.4762499,22.328325271606445,-45.91839599609375,15.7322998046875,-246.9024658203125,94.329833984375,-39.5050048828125
1.4787499,22.950817108154297,-45.35096740722656,17.25501251220703,-232.9559326171875,76.507568359375,-58.4716796875
1.4812499,23.45599365234375,-44.74283981323242,18.909404754638672,-221.466064453125,58.197021484375,-77.57568359375
1.4837498999999998,23.82948875427246,-44.03655242919922,20.633230209350586,-212.1734619140625,41.1529541015625,-96.405029296875
1.4862499,24.088064193725586,-43.217735290527344,22.409727096557617,-207.366943359375,25.634765625,-115.081787109375
1.4887499,24.267627716064453,-42.310333251953125,24.152706146240234,-205.474853515625,7.965087890625,-134.429931640625
1.4912499,24.4184627532959,-41.36941146850586,25.924415588378906,-206.2225341796875,-10.0555419921875,-153.533935546875
1.4937498999999999,24.578874588012695,-40.45961380004883,27.684154510498047,-209.1522216796875,-29.0374755859375,-173.6297607421875
1.4962499,24.765623092651367,-39.63361358642578,29.482200622558594,-213.2415771484375,-47.637939453125,-193.9849853515625
1.4987499,24.947582244873047,-38.917747497558594,31.2850341796875,-218.3685302734375,-66.1468505859375,-214.7979736328125
1.5012499,25.07926368713379,-38.312015533447266,33.09983825683594,-224.273681640625,-85.26611328125,-235.83984375
1.5037498999999999,25.08165740966797,-37.825992584228516,34.852394104003906,-230.6365966796875,-103.1341552734375,-256.622314453125
1.5062499,24.90927505493164,-37.42376708984375,36.50199890136719,-238.76953125,-121.03271484375,-277.6336669921875
1.5087499,24.499866485595703,-37.090972900390625,37.9840087890625,-248.22998046875,-138.6566162109375,-299.224853515625
1.5112499,23.848642349243164,-36.79169845581055,39.26490783691406,-257.9803466796875,-155.8990478515625,-320.61767578125
1.5137498999999999,22.96518325805664,-36.494815826416016,40.303993225097656,-268.2342529296875,-173.03466796875,-342.34619140625
1.5162499,21.906946182250977,-36.2386360168457,41.07732009887695,-277.6641845703125,-189.9871826171875,-364.44091796875
1.5187499,20.760122299194336,-36.01837158203125,41.62080383300781,-286.468505859375,-206.146240234375,-386.6424560546875
1.5212499,19.589357376098633,-35.8914794921875,41.951202392578125,-294.891357421875,-221.8170166015625,-408.9508056640625
1.5237498999999999,18.46647834777832,-35.8603515625,42.140342712402344,-302.154541015625,-237.1673583984375,-430.9844970703125
1.5262499,17.408241271972656,-35.944149017333984,42.245689392089844,-307.67822265625,-251.129150390625,-453.18603515625
1.5287499,16.378734588623047,-36.106956481933594,42.331878662109375,-311.614990234375,-264.678955078125,-475.128173828125
1.5312499,15.334861755371094,-36.33201217651367,42.446800231933594,-313.873291015625,-276.5655517578125,-496.4447021484375
1.5337498999999999,14.216769218444824,-36.57382583618164,42.59284973144531,-314.8956298828125,-288.1622314453125,-500
1.5362499,12.986149787902832,-36.81563949584961,42.7508659362793,-313.96484375,-299.62158203125,-500
1.5387499,11.652579307556152,-37.03590774536133,42.853816986083984,-311.0809326171875,-310.2264404296875,-500
1.5412499,10.24239444732666,-37.25617218017578,42.86818313598633,-306.4117431640625,-319.5037841796875,-500
1.5437499,8.765172004699707,-37.471649169921875,42.77480697631836,-299.3011474609375,-328.338623046875,-500
1.5462498999999998,7.24485445022583,-37.70628356933594,42.55693435668945,-290.0390625,-336.669921875,-500
1.5487499,5.686229228973389,-37.957672119140625,42.22414016723633,-279.1290283203125,-344.635009765625,-500
1.5512499,4.098873138427734,-38.189910888671875,41.829097747802734,-266.387939453125,-351.9744873046875,-500
1.5537499,2.4827871322631836,-38.42454147338867,41.35265350341797,-253.11279296875,-358.70361328125,-500
1.5562498999999999,0.8379706144332886,-38.65678024291992,40.857051849365234,-238.9068603515625,-365.4632568359375,-500
1.5587499,-0.8619126081466675,-38.91056442260742,40.32314682006836,-223.541259765625,-372.37548828125,-500
1.5612499,-2.6408045291900635,-39.19308090209961,39.705440521240234,-208.0535888671875,-378.387451171875,-500
1.5637499,-4.517858505249023,-39.49235534667969,39.044639587402344,-192.169189453125,-385.25390625,-500
1.5662498999999999,-6.50025749206543,-39.79642105102539,38.27370834350586,-176.3916015625,-392.059326171875,-500
1.5687499,-8.578424453735352,-40.093299865722656,37.44292068481445,-161.0565185546875,-398.529052734375,-500
1.5712499,-10.759542465209961,-40.39976119995117,36.499603271484375,-146.3775634765625,-404.8614501953125,-500
1.5737499,-12.97657299041748,-40.66312026977539,35.54192352294922,-132.99560546875,-411.4532470703125,-500
1.5762498999999999,-15.22472858428955,-40.89775466918945,34.49565887451172,-120.8343505859375,-417.5262451171875,-500
1.5787499,-17.4537296295166,-41.0246467590332,33.499671936035156,-110.595703125,-422.8973388671875,-500
1.5812499,-19.670761108398438,-41.041404724121094,32.553958892822266,-102.7374267578125,-427.1392822265625,-500
1.5837499,-21.92609977722168,-40.916908264160156,31.696836471557617,-96.49658203125,-430.8319091796875,-500
1.5862498999999999,-24.24608039855957,-40.631996154785156,30.92111587524414,-91.9952392578125,-434.1278076171875,-500
1.5887499,-26.680984497070312,-40.20104217529297,30.14299964904785,-88.9739990234375,-437.0269775390625,-500
1.5912499,-29.249961853027344,-39.62164306640625,29.242778778076172,-86.700439453125,-438.9495849609375,-500
1.5937499,-31.95301628112793,-38.91056442260742,28.332983016967773,-85.723876953125,-439.8651123046875,-500
1.5962498999999999,-34.823665618896484,-38.10611343383789,27.21728515625,-82.9925537109375,-441.9708251953125,-500
1.5987499,-37.79008102416992,-37.18674087524414,26.05130958557129,-81.84814453125,-443.572998046875,-500
1.6012499,-40.904937744140625,-36.19075393676758,24.708162307739258,-81.5582275390625,-443.6187744140625,-500
1.6037499,-44.04373550415039,-35.11336135864258,23.101652145385742,-80.87158203125,-443.5272216796875,-500
1.6062499,-47.03169631958008,-33.96893310546875,21.097705841064453,-80.047607421875,-439.4073486328125,-500
1.6087498999999998,-49.67729187011719,-32.69521713256836,18.756175994873047,-79.4677734375,-431.7474365234375,-500
1.6112499,-51.70996856689453,-31.29939842224121,15.969325065612793,-78.857421875,-419.9371337890625,-500
1.6137499,-53.21113204956055,-29.671340942382812,13.187262535095215,-81.7413330078125,-403.80859375,-500
1.6162499,-54.28373336791992,-27.794286727905273,10.613495826721191,-88.80615234375,-385.8489990234375,-500
1.6187498999999999,-55.21029281616211,-25.610774993896484,8.7268648147583,-92.681884765625,-369.0185546875,-500
1.6212499,-56.04347229003906,-23.13517189025879,7.570465564727783,-91.1102294921875,-354.827880859375,-500
1.6237499,-56.886234283447266,-20.379444122314453,7.1490864753723145,-85.87646484375,-339.111328125,-500
1.6262499,-57.64040756225586,-17.38669204711914,7.12035608291626,-78.277587890625,-320.343017578125,-500
1.6287498999999999,-58.353878021240234,-14.247894287109375,7.182605266571045,-70.9381103515625,-300.4913330078125,-485.5194091796875
1.6312499,-58.97637176513672,-11.02051067352295,6.9240312576293945,-65.49072265625,-277.3284912109375,-470.367431640625
1.6337499,-59.407325744628906,-7.769184589385986,6.143521785736084,-61.4166259765625,-251.983642578125,-456.4971923828125
1.6362499,-59.5677375793457,-4.5154643058776855,4.795586109161377,-58.3038330078125,-223.5107421875,-444.9462890625
1.6387498999999999,-59.40253829956055,-1.3263877630233765,2.9688100814819336,-56.2591552734375,-192.7642822265625,-436.2945556640625
1.6412499,-59.019466400146484,1.7501614093780518,1.0079588890075684,-54.0771484375,-161.1480712890625,-428.4210205078125
1.6437499,-58.56456756591797,4.5609540939331055,-0.950498104095459,-49.1485595703125,-131.439208984375,-420.989990234375
1.6462499,-58.20304489135742,7.072471618652344,-2.655169725418091,-41.3665771484375,-104.4921875,-413.421630859375
1.6487498999999999,-57.999534606933594,9.2033109664917,-4.151545524597168,-32.379150390625,-76.7669677734375,-404.8614501953125
1.6512499,-57.90376663208008,10.994174003601074,-5.406107425689697,-22.7813720703125,-52.032470703125,-395.8740234375
1.6537499,-57.819969177246094,12.418724060058594,-6.562506675720215,-10.8795166015625,-27.130126953125,-386.383056640625
1.6562499,-57.566184997558594,13.488932609558105,-7.663839817047119,2.5787353515625,-2.6702880859375,-375.732421875
1.6587498999999999,-56.94608688354492,14.089877128601074,-8.789113998413086,16.6473388671875,20.1416015625,-364.013671875
1.6612499,-55.914188385009766,14.180856704711914,-10.02691650390625,32.501220703125,42.8314208984375,-350.250244140625
1.6637499,-54.417808532714844,13.735535621643066,-11.310209274291992,50.8880615234375,64.7735595703125,-334.3963623046875
1.6662499,-52.60061264038086,12.746729850769043,-12.662932395935059,71.807861328125,83.06884765625,-314.8345947265625
1.6687499,-50.55117416381836,11.425130844116211,-13.924676895141602,92.041015625,98.876953125,-291.748046875
1.6712498999999998,-48.48976516723633,9.950302124023438,-15.119383811950684,113.9984130859375,114.9139404296875,-266.2811279296875
1.6737499,-46.46666717529297,8.540117263793945,-16.139312744140625,136.4593505859375,127.2430419921875,-239.7613525390625
1.6762499,-44.6207389831543,7.3885064125061035,-17.07544708251953,157.684326171875,138.0157470703125,-211.456298828125
1.6787499,-42.99028396606445,6.593631267547607,-17.87271499633789,177.2918701171875,149.261474609375,-182.5408935546875
1.6812498999999999,-41.57770538330078,6.179434776306152,-18.59097671508789,195.80078125,157.8216552734375,-154.4952392578125
1.6837499,-40.33272171020508,6.167463779449463,-19.175161361694336,213.2110595703125,164.2303466796875,-126.7547607421875
1.6862499,-39.20505142211914,6.497863292694092,-19.658790588378906,229.0802001953125,170.2880859375,-100.0518798828125
1.6887499,-38.08695983886719,7.108384609222412,-20.008342742919922,242.2637939453125,175.0030517578125,-74.798583984375
1.6912498999999999,-36.916194915771484,7.908048152923584,-20.226215362548828,253.1890869140625,179.0313720703125,-51.6357421875
1.6937499,-35.620933532714844,8.796297073364258,-20.2956485748291,262.237548828125,183.41064453125,-30.4412841796875
1.6962499,-34.22990036010742,9.615114212036133,-20.24536895751953,268.829345703125,187.408447265625,-11.5203857421875
1.6987499,-32.76704406738281,10.251971244812012,-20.084957122802734,274.1241455078125,191.2078857421875,5.4779052734375
1.7012498999999999,-31.316158294677734,10.596736907958984,-19.879056930541992,277.6947021484375,193.90869140625,21.4691162109375
1.7037499,-29.927520751953125,10.60152530670166,-19.656396865844727,279.6173095703125,196.6705322265625,36.3006591796875
1.7062499,-28.639440536499023,10.278307914733887,-19.472042083740234,280.4107666015625,198.3795166015625,50.3387451171875
1.7087499,-27.447128295898438,9.670180320739746,-19.345149993896484,279.78515625,199.5849609375,64.02587890625
1.7112498999999999,-26.355371475219727,8.83939266204834,-19.285295486450195,277.069091796875,200.13427734375,77.3162841796875
1.7137499,-25.32826042175293,7.85537576675415,-19.275718688964844,273.223876953125,200.3326416015625,90.4541015625
1.7162499,-24.344242095947266,6.75883150100708,-19.3236026763916,267.852783203125,200.2716064453125,103.1036376953125
1.7187499,-23.376985549926758,5.5976433753967285,-19.407398223876953,261.2152099609375,199.737548828125,115.447998046875
1.7212498999999999,-22.402545928955078,4.388571739196777,-19.51274299621582,252.8839111328125,198.8677978515625,127.62451171875
1.7237499,-21.39937400817871,3.141192674636841,-19.615694046020508,243.3319091796875,197.9217529296875,139.251708984375
1.7262499,-20.362686157226562,1.8555063009262085,-19.68512725830078,232.4676513671875,196.9146728515625,150.909423828125
1.7287499,-19.275718688964844,0.5530605912208557,-19.718645095825195,221.00830078125,195.2667236328125,162.1246337890625
1.7312499,-18.157625198364258,-0.7469909191131592,-19.67555046081543,209.0606689453125,193.2830810546875,172.9278564453125
1.7337498999999998,-16.991649627685547,-2.027888774871826,-19.536685943603516,197.1282958984375,189.8651123046875,182.92236328125
1.7362499,-15.777789115905762,-3.2130186557769775,-19.275718688964844,185.0128173828125,184.14306640625,191.925048828125
1.7387499,-14.516044616699219,-4.304774761199951,-18.868703842163086,171.661376953125,182.7239990234375,200.8819580078125
1.7412499,-13.204022407531738,-5.257667064666748,-18.327613830566406,158.660888671875,179.8553466796875,208.6639404296875
1.7437498999999999,-11.868058204650879,-6.071695327758789,-17.68836212158203,144.53125,177.0172119140625,215.0421142578125
1.7462499,-10.551246643066406,-6.775590896606445,-16.982072830200195,129.7454833984375,175.0946044921875,220.1385498046875
1.7487499,-9.27034854888916,-7.395689010620117,-16.21832275390625,114.6240234375,173.0499267578125,224.395751953125
1.7512499,-8.037335395812988,-7.989450931549072,-15.433024406433105,100.0213623046875,171.417236328125,227.5238037109375
1.7537498999999999,-6.84981107711792,-8.609549522399902,-14.609418869018555,85.9375,169.5709228515625,229.7210693359375
1.7562499,-5.6910176277160645,-9.32302188873291,-13.749900817871094,71.7010498046875,168.3807373046875,230.926513671875
1.7587499,-4.558559894561768,-10.163386344909668,-12.856863021850586,58.59375,166.9464111328125,231.658935546875
1.7612499,-3.423708438873291,-11.12346076965332,-11.90157699584961,46.4019775390625,165.313720703125,232.086181640625
1.7637498999999999,-2.2888567447662354,-12.18409252166748,-10.927136421203613,34.6527099609375,164.0777587890625,231.8267822265625
1.7662499,-1.158793568611145,-13.30218505859375,-9.919178009033203,23.5443115234375,163.4979248046875,231.5521240234375
1.7687499,-0.040701430290937424,-14.413094520568848,-8.908824920654297,12.75634765625,162.90283203125,230.9112548828125
1.7712499,1.036689281463623,-15.476119995117188,-7.90086555480957,2.7008056640625,163.3148193359375,229.8736572265625
1.7737498999999999,2.027888774871826,-16.438589096069336,-6.900089263916016,-6.317138671875,164.154052734375,228.271484375
1.7762499,2.96162748336792,-17.25979995727539,-5.904101371765137,-14.3585205078125,165.1763916015625,226.1505126953125
1.7787499,3.804386615753174,-17.92538833618164,-4.9368438720703125,-20.93505859375,166.19873046875,223.388671875
1.7812499,4.5609540939331055,-18.4257755279541,-4.005499362945557,-26.55029296875,167.54150390625,219.4976806640625
1.7837498999999999,5.20978307723999,-18.789695739746094,-3.117250680923462,-31.3720703125,169.403076171875,214.7979736328125
1.7862499,5.7341132164001465,-19.065027236938477,-2.300827741622925,-34.515380859375,170.8831787109375,209.197998046875
1.7887499,6.143521785736084,-19.292476654052734,-1.5514427423477173,-35.614013671875,171.2646484375,203.55224609375
1.7912499,6.447585105895996,-19.522319793701172,-0.8930372595787048,-34.698486328125,171.9207763671875,197.235107421875
1.7937499,6.677428722381592,-19.778499603271484,-0.31842881441116333,-31.707763671875,172.7752685546875,190.1702880859375
1.7962498999999998,6.828263282775879,-20.06340980529785,0.181959331035614,-27.2369384765625,173.3551025390625,182.952880859375
1.7987499,6.916848659515381,-20.386627197265625,0.6224924325942993,-21.453857421875,173.7518310546875,175.6439208984375
1.8012499,6.9240312576293945,-20.72181510925293,1.05105459690094,-14.1754150390625,174.4384765625,168.4417724609375
1.8037499,6.876147270202637,-21.047426223754883,1.479616641998291,-6.103515625,174.713134765625,161.346435546875
1.8062498999999999,6.785167694091797,-21.349096298217773,1.9393033981323242,2.9144287109375,174.896240234375,154.4036865234375
1.8087499,6.658275127410889,-21.600488662719727,2.425326347351074,13.1072998046875,175.47607421875,147.76611328125
1.8112499,6.517016887664795,-21.772871017456055,2.940079689025879,24.0936279296875,175.445556640625,141.4947509765625
1.8137499,6.392518520355225,-21.87582015991211,3.4404678344726562,35.125732421875,175.3692626953125,135.2996826171875
1.8162498999999999,6.294356346130371,-21.897369384765625,3.907337188720703,47.2869873046875,175.323486328125,129.4708251953125
1.8187499,6.258443355560303,-21.866243362426758,4.302380561828613,59.4329833984375,175.5523681640625,123.504638671875
1.8212499,6.282385349273682,-21.80638885498047,4.599261283874512,72.174072265625,176.0711669921875,117.8436279296875
1.8237499,6.370970726013184,-21.729774475097656,4.786009311676025,85.0982666015625,176.239013671875,112.5335693359375
1.8262498999999999,6.512228488922119,-21.63640022277832,4.862623691558838,97.71728515625,176.2542724609375,107.147216796875
1.8287499,6.718130111694336,-21.50950813293457,4.836287498474121,110.0311279296875,176.177978515625,102.020263671875
1.8312499,6.9695210456848145,-21.3227596282959,4.750096321105957,121.4447021484375,176.025390625,96.6949462890625
1.8337499,7.266402244567871,-21.054609298706055,4.596867084503174,132.3394775390625,175.994873046875,91.2628173828125
1.8362498999999999,7.5848307609558105,-20.685903549194336,4.410119533538818,142.333984375,175.933837890625,85.7696533203125
1.8387499,7.910442352294922,-20.216638565063477,4.197035789489746,151.3824462890625,175.3997802734375,80.047607421875
1.8412499,8.214506149291992,-19.670761108398438,3.97916316986084,159.7442626953125,174.3011474609375,74.21875
1.8437499,8.51138687133789,-19.062633514404297,3.7900211811065674,167.0989990234375,173.0194091796875,67.9779052734375
1.8462498999999999,8.78432559967041,-18.437747955322266,3.6296098232269287,174.224853515625,171.478271484375,61.9354248046875
1.8487499,9.05247688293457,-17.80088996887207,3.5027170181274414,180.35888671875,170.3643798828125,55.3741455078125
1.8512499,9.315838813781738,-17.164031982421875,3.397372245788574,185.821533203125,169.2962646484375,48.828125
1.8537499,9.57441234588623,-16.53914451599121,3.3063924312591553,190.6585693359375,167.8314208984375,41.9464111328125
1.8562499,9.821015357971191,-15.911864280700684,3.2345664501190186,194.3206787109375,166.7327880859375,35.0799560546875
1.8587498999999998,10.043676376342773,-15.296554565429688,3.1938650608062744,196.71630859375,165.3900146484375,27.679443359375
1.8612499,10.228029251098633,-14.669273376464844,3.177105665206909,198.028564453125,163.51318359375,20.3704833984375
1.8637499,10.374075889587402,-14.044386863708496,3.181894063949585,198.486328125,161.6058349609375,13.092041015625
1.8662499,10.472238540649414,-13.412318229675293,3.201047658920288,197.845458984375,160.1409912109375,5.523681640625
1.8687498999999999,10.553641319274902,-12.780248641967773,3.205836057662964,195.98388671875,158.050537109375,-2.471923828125
1.8712499,10.60152530670166,-12.157755851745605,3.1914708614349365,192.9931640625,156.0516357421875,-10.2691650390625
1.8737499,10.632649421691895,-11.552022933959961,3.1531636714935303,188.96484375,154.3426513671875,-18.6004638671875
1.8762499,10.625467300415039,-10.960655212402344,3.090914487838745,184.3109130859375,152.5726318359375,-26.702880859375
1.8787498999999999,10.579977035522461,-10.405200958251953,3.0190882682800293,179.19921875,150.634765625,-34.881591796875
1.8812499,10.496180534362793,-9.888052940368652,2.920926094055176,173.52294921875,148.8037109375,-43.1671142578125
1.8837499,10.393229484558105,-9.425971984863281,2.8155810832977295,167.572021484375,147.0489501953125,-51.2237548828125
1.8862499,10.280701637268066,-9.02135181427002,2.6839001178741455,161.7431640625,145.355224609375,-59.4329833984375
1.8887498999999999,10.165780067443848,-8.698134422302246,2.537853717803955,156.219482421875,143.646240234375,-67.138671875
1.8912499,10.053253173828125,-8.451532363891602,2.3750481605529785,150.6805419921875,141.815185546875,-74.5849609375
1.8937499,9.943120002746582,-8.291120529174805,2.2026655673980713,145.6298828125,140.2435302734375,-81.634521484375
1.8962499,9.84256362915039,-8.20732307434082,2.0374655723571777,141.0369873046875,138.671875,-87.921142578125
1.8987498999999999,9.75637149810791,-8.185775756835938,1.8842366933822632,136.5203857421875,136.8865966796875,-93.7042236328125
1.9012499,9.694122314453125,-8.200140953063965,1.7525556087493896,132.32421875,135.0250244140625,-98.9837646484375
1.9037499,9.655815124511719,-8.24084186553955,1.647210717201233,128.509521484375,133.48388671875,-103.179931640625
1.9062499,9.639056205749512,-8.288725852966309,1.5705963373184204,124.9542236328125,132.354736328125,-107.0404052734375
1.9087498999999999,9.62947940826416,-8.343792915344238,1.5298948287963867,121.917724609375,131.195068359375,-110.16845703125
1.9112499,9.622296333312988,-8.4108304977417,1.525106430053711,118.95751953125,129.8370361328125,-112.8387451171875
1.9137499,9.605537414550781,-8.485051155090332,1.5394717454910278,116.8365478515625,128.448486328125,-114.7613525390625
1.9162499,9.57441234588623,-8.554482460021973,1.5729905366897583,115.1885986328125,127.2125244140625,-116.546630859375
1.9187499,9.536105155944824,-8.60236644744873,1.5969325304031372,114.19677734375,125.9307861328125,-117.5537109375
1.9212498999999998,9.48343276977539,-8.609549522399902,1.6065093278884888,113.6016845703125,125.0762939453125,-118.34716796875
1.9237499,9.418789863586426,-8.573636054992676,1.577778935432434,113.189697265625,124.267578125,-118.9727783203125
1.9262499,9.349357604980469,-8.501810073852539,1.5155296325683594,112.7471923828125,123.5504150390625,-119.4305419921875
1.9287499,9.275136947631836,-8.33182144165039,1.4389152526855469,111.358642578125,124.0692138671875,-119.44580078125
1.9312498999999999,9.150638580322266,-8.255207061767578,1.2880805730819702,110.7635498046875,130.157470703125,-117.828369140625
1.9337499,9.059659004211426,-8.109161376953125,1.1875240802764893,114.471435546875,122.7874755859375,-117.8741455078125
1.9362499,8.925583839416504,-8.056488990783691,1.0534487962722778,114.1815185546875,121.5362548828125,-118.194580078125
1.9387499,8.827422142028809,-7.994239330291748,0.9840168952941895,115.3106689453125,120.941162109375,-117.584228515625
1.9412498999999999,8.743624687194824,-7.910442352294922,0.9552865028381348,116.9891357421875,120.3765869140625,-116.790771484375
1.9437499,8.688557624816895,-7.802703380584717,0.9576807022094727,119.0032958984375,119.7052001953125,-115.8294677734375
1.9462499,8.65743350982666,-7.673416614532471,0.9816226959228516,121.0784912109375,119.0185546875,-114.593505859375
1.9487499,8.652645111083984,-7.529764175415039,1.0007762908935547,123.199462890625,118.7896728515625,-113.46435546875
1.9512498999999999,8.65743350982666,-7.371747016906738,1.0127472877502441,125.9613037109375,118.8201904296875,-112.3199462890625
1.9537499,8.667010307312012,-7.194576263427734,0.9983820915222168,127.9144287109375,118.5760498046875,-111.4349365234375
1.9562499,8.669404029846191,-6.9910688400268555,0.9600749015808105,129.4708251953125,118.3929443359375,-110.809326171875
1.9587499,8.65982723236084,-6.775590896606445,0.8954314589500427,130.67626953125,118.499755859375,-110.015869140625
1.9612498999999999,8.635885238647461,-6.562506675720215,0.8068459630012512,131.6070556640625,118.95751953125,-109.4512939453125
1.9637499,8.585607528686523,-6.3518171310424805,0.7086837291717529,132.659912109375,119.171142578125,-109.130859375
1.9662499,8.506598472595215,-6.150704383850098,0.608127236366272,133.087158203125,119.7967529296875,-108.5662841796875
1.9687499,8.394071578979492,-5.9519853591918945,0.5147533416748047,133.8348388671875,120.1934814453125,-107.757568359375
1.9712498999999999,8.250418663024902,-5.7556610107421875,0.42616790533065796,134.1552734375,120.42236328125,-107.1014404296875
1.9737499,8.092401504516602,-5.57370138168335,0.33758243918418884,134.490966796875,120.635986328125,-106.658935546875
1.9762499,7.9415669441223145,-5.410895824432373,0.22744916379451752,135.0860595703125,120.5291748046875,-106.048583984375
1.9787499,7.797914981842041,-5.2696380615234375,0.08140286058187485,135.31494140625,120.3765869140625,-105.16357421875
1.9812499,7.687781810760498,-5.147533416748047,-0.09816227108240128,135.406494140625,120.17822265625,-104.5379638671875
1.9837499,7.613561630249023,-5.054159641265869,-0.3064578175544739,135.80322265625,119.3389892578125,-103.546142578125
1.9862499,7.568071365356445,-4.982333660125732,-0.5267243981361389,136.23046875,118.408203125,-102.9205322265625
1.9887499,7.553706169128418,-4.946420669555664,-0.7469909191131592,136.932373046875,117.49267578125,-102.0355224609375
1.9912499,7.560888767242432,-4.929661273956299,-0.9792284965515137,137.3748779296875,115.9210205078125,-101.07421875
1.9937498999999999,7.572859764099121,-4.929661273956299,-1.1971008777618408,137.7105712890625,114.654541015625,-99.7467041015625
1.9962499,7.572859764099121,-4.934449672698975,-1.3910311460494995,137.8631591796875,113.70849609375,-98.876953125
1.9987499,7.544129371643066,-4.955997467041016,-1.525106430053711,138.18359375,112.3199462890625,-97.686767578125
2.0012499,7.47230339050293,-4.989516258239746,-1.6041151285171509,138.336181640625,110.7177734375,-96.5118408203125
2.0037499,7.3454108238220215,-5.023035049438477,-1.6280571222305298,137.908935546875,109.2071533203125,-95.1995849609375
2.0062499,7.184999465942383,-5.056553840637207,-1.6376339197158813,137.8936767578125,108.21533203125,-93.5516357421875
2.0087498999999998,6.993463039398193,-5.078101634979248,-1.6496049165725708,137.5732421875,107.208251953125,-92.28515625
2.0112499,6.799532890319824,-5.097255229949951,-1.6855180263519287,137.4359130859375,106.1248779296875,-90.9423828125
2.0137499,6.610390663146973,-5.125985622406006,-1.742978811264038,137.0697021484375,104.98046875,-89.17236328125
2.0162499,6.445190906524658,-5.173870086669922,-1.8171991109848022,137.176513671875,103.363037109375,-87.371826171875
2.0187499,6.315904140472412,-5.233725070953369,-1.8986018896102905,137.3748779296875,101.9744873046875,-85.540771484375
2.0212499,6.22731876373291,-5.295974254608154,-1.9704279899597168,137.51220703125,100.738525390625,-83.465576171875
2.0237499,6.189011573791504,-5.339069843292236,-2.0183119773864746,137.603759765625,99.273681640625,-81.72607421875
2.0262499,6.1770405769348145,-5.351040840148926,-2.03507137298584,137.6495361328125,97.9156494140625,-79.8797607421875
2.0287498999999998,6.189011573791504,-5.315127849578857,-2.0039467811584473,137.63427734375,96.343994140625,-78.1402587890625
2.0312499,6.208165168762207,-5.238513469696045,-1.9345149993896484,137.237548828125,95.123291015625,-76.6754150390625
2.0337499,6.229712963104248,-5.118803024291992,-1.8291701078414917,136.7645263671875,93.841552734375,-75.5767822265625
2.0362499,6.253654956817627,-4.975151062011719,-1.7046716213226318,136.3067626953125,92.559814453125,-74.2950439453125
2.0387499,6.270414352416992,-4.824316501617432,-1.580173134803772,135.6353759765625,91.36962890625,-73.6083984375
2.0412499,6.279991149902344,-4.683058738708496,-1.4724340438842773,134.857177734375,90.4693603515625,-72.9217529296875
2.0437499,6.277596950531006,-4.563348293304443,-1.3838485479354858,133.9874267578125,89.41650390625,-72.418212890625
2.0462499,6.265625953674316,-4.467580318450928,-1.316810965538025,133.026123046875,88.409423828125,-72.1435546875
2.0487499,6.2416839599609375,-4.405331134796143,-1.278503656387329,132.1563720703125,87.677001953125,-71.9146728515625
2.0512498999999997,6.229712963104248,-4.376600742340088,-1.2617442607879639,131.195068359375,86.6851806640625,-72.235107421875
2.0537499,6.229712963104248,-4.383783340454102,-1.2641384601593018,130.1422119140625,85.5560302734375,-72.3114013671875
2.0562499,6.2632317543029785,-4.417302131652832,-1.278503656387329,129.33349609375,84.4879150390625,-72.6165771484375
2.0587499,6.337451934814453,-4.477157115936279,-1.292868971824646,128.2196044921875,83.099365234375,-72.723388671875
2.0612499,6.445190906524658,-4.5394062995910645,-1.2952631711959839,126.5869140625,82.305908203125,-72.9827880859375
2.0637499,6.57926607131958,-4.594472885131836,-1.2617442607879639,124.81689453125,81.085205078125,-73.1201171875
2.0662499,6.7277069091796875,-4.639962673187256,-1.1875240802764893,122.9248046875,79.833984375,-72.93701171875
2.0687499,6.88332986831665,-4.661510944366455,-1.0462661981582642,120.9869384765625,78.9031982421875,-73.0743408203125
2.0712498999999998,7.043741226196289,-4.675876140594482,-0.8786720037460327,119.0643310546875,77.81982421875,-73.2269287109375
2.0737499,7.2137298583984375,-4.687847137451172,-0.6871358752250671,117.523193359375,76.812744140625,-73.1658935546875
2.0762499,7.580042362213135,-4.742913722991943,-0.35673606395721436,115.0360107421875,74.3408203125,-72.509765625
2.0787499,7.580042362213135,-4.742913722991943,-0.35673606395721436,115.0360107421875,74.3408203125,-72.509765625
2.0812499,8.02536392211914,-4.862623691558838,-0.16519992053508759,113.6627197265625,71.563720703125,-71.7926025390625
2.0837499,8.02536392211914,-4.862623691558838,-0.16519992053508759,113.6627197265625,71.563720703125,-71.7926025390625
2.0862499,8.547300338745117,-4.991910457611084,-0.07182604819536209,111.8316650390625,68.7408447265625,-70.4498291015625
2.0887499,8.547300338745117,-4.991910457611084,-0.07182604819536209,111.8316650390625,68.7408447265625,-70.4498291015625
2.0912498999999998,9.100360870361328,-5.063736438751221,0.023942016065120697,110.3973388671875,65.5059814453125,-68.939208984375
2.0937499,9.100360870361328,-5.063736438751221,0.023942016065120697,110.3973388671875,65.5059814453125,-68.939208984375
2.0962499,9.59835433959961,-5.063736438751221,0.19393034279346466,109.55810546875,62.255859375,-67.596435546875
2.0987499,9.59835433959961,-5.063736438751221,0.19393034279346466,109.55810546875,62.255859375,-67.596435546875
2.1012499,9.955090522766113,-5.006275653839111,0.4213795065879822,108.3984375,58.7615966796875,-66.253662109375
2.1037499,9.955090522766113,-5.006275653839111,0.4213795065879822,108.3984375,58.7615966796875,-66.253662109375
2.1062499,10.127472877502441,-4.903325080871582,0.6248866319656372,107.0098876953125,54.99267578125,-64.8345947265625
2.1087499,10.127472877502441,-4.903325080871582,0.6248866319656372,107.0098876953125,54.99267578125,-64.8345947265625
2.1112499,10.139444351196289,-4.759673118591309,0.7876923680305481,104.7821044921875,51.239013671875,-64.239501953125
2.1137498999999997,10.139444351196289,-4.759673118591309,0.7876923680305481,104.7821044921875,51.239013671875,-64.239501953125
2.1162499,10.06043529510498,-4.594472885131836,0.9193734526634216,101.776123046875,47.5006103515625,-64.0411376953125
2.1187499,10.06043529510498,-4.594472885131836,0.9193734526634216,101.776123046875,47.5006103515625,-64.0411376953125
2.1212499,9.979032516479492,-4.455609321594238,1.0031704902648926,98.175048828125,43.4417724609375,-64.3310546875
2.1237499,9.979032516479492,-4.455609321594238,1.0031704902648926,98.175048828125,43.4417724609375,-64.3310546875
2.1262499,10.000580787658691,-4.3861775398254395,1.039083480834961,93.9483642578125,39.337158203125,-65.0482177734375
2.1287499,10.000580787658691,-4.3861775398254395,1.039083480834961,93.9483642578125,39.337158203125,-65.0482177734375
2.1312499,10.189722061157227,-4.333505153656006,1.1061211824417114,88.5162353515625,35.430908203125,-65.8111572265625
2.1337498999999998,10.189722061157227,-4.333505153656006,1.1061211824417114,88.5162353515625,35.430908203125,-65.8111572265625
2.1362499,10.474632263183594,-4.247313976287842,1.280897855758667,81.451416015625,31.7230224609375,-67.2454833984375
2.1387499,10.474632263183594,-4.247313976287842,1.280897855758667,81.451416015625,31.7230224609375,-67.2454833984375
2.1412499,10.716446876525879,-4.153939723968506,1.5682021379470825,74.15771484375,28.778076171875,-68.6492919921875
2.1437499,10.716446876525879,-4.153939723968506,1.5682021379470825,74.15771484375,28.778076171875,-68.6492919921875
2.1462499,10.826580047607422,-4.062960147857666,1.9369091987609863,66.0858154296875,25.787353515625,-70.0836181640625
2.1487499,10.826580047607422,-4.062960147857666,1.9369091987609863,66.0858154296875,25.787353515625,-70.0836181640625
2.1512499,10.795455932617188,-3.9624037742614746,2.3319525718688965,57.67822265625,23.7274169921875,-72.2808837890625
2.1537498999999998,10.795455932617188,-3.9624037742614746,2.3319525718688965,57.67822265625,23.7274169921875,-72.2808837890625
2.1562499,10.6709566116333,-3.88818359375,2.6791117191314697,49.072265625,21.7437744140625,-75.0732421875
2.1587499,10.6709566116333,-3.88818359375,2.6791117191314697,49.072265625,21.7437744140625,-75.0732421875
2.1612499,10.520122528076172,-3.8738183975219727,2.9305028915405273,41.4276123046875,20.1873779296875,-78.7200927734375
2.1637499,10.520122528076172,-3.8738183975219727,2.9305028915405273,41.4276123046875,20.1873779296875,-78.7200927734375
2.1662499,10.426748275756836,-3.931279182434082,3.1292216777801514,34.0576171875,18.3868408203125,-82.03125
2.1687499,10.426748275756836,-3.931279182434082,3.1292216777801514,34.0576171875,18.3868408203125,-82.03125
2.1712499,10.460267066955566,-4.043806552886963,3.3039982318878174,27.4505615234375,17.242431640625,-84.991455078125
2.1737499,10.460267066955566,-4.043806552886963,3.3039982318878174,27.4505615234375,17.242431640625,-84.991455078125
2.1762499,10.582371711730957,-4.170699596405029,3.4548330307006836,21.6217041015625,16.7236328125,-87.615966796875
2.1787499,10.582371711730957,-4.170699596405029,3.4548330307006836,21.6217041015625,16.7236328125,-87.615966796875
2.1812499,10.716446876525879,-4.32871675491333,3.5936968326568604,16.41845703125,15.350341796875,-88.8824462890625
2.1837499,10.716446876525879,-4.32871675491333,3.5936968326568604,16.41845703125,15.350341796875,-88.8824462890625
2.1862499,10.771512985229492,-4.527435302734375,3.7708675861358643,12.451171875,14.9993896484375,-89.9658203125
2.1887499,10.771512985229492,-4.527435302734375,3.7708675861358643,12.451171875,14.9993896484375,-89.9658203125
2.1912499,10.702081680297852,-4.704606533050537,3.957615375518799,9.4146728515625,14.2669677734375,-89.8284912109375
2.1937499,10.702081680297852,-4.704606533050537,3.957615375518799,9.4146728515625,14.2669677734375,-89.8284912109375
2.1962498999999998,10.527304649353027,-4.829104900360107,4.091690540313721,7.4310302734375,14.068603515625,-89.4317626953125
2.1987499,10.527304649353027,-4.829104900360107,4.091690540313721,7.4310302734375,14.068603515625,-89.4317626953125
2.2012499,10.321403503417969,-4.944026470184326,4.1395745277404785,5.9051513671875,13.580322265625,-88.5467529296875
2.2037499,10.321403503417969,-4.944026470184326,4.1395745277404785,5.9051513671875,13.580322265625,-88.5467529296875
2.2062499,10.127472877502441,-5.063736438751221,4.094084739685059,5.8135986328125,13.18359375,-87.4481201171875
2.2087499,10.127472877502441,-5.063736438751221,4.094084739685059,5.8135986328125,13.18359375,-87.4481201171875
2.2112499,9.93354320526123,-5.147533416748047,3.993528366088867,6.5765380859375,12.603759765625,-86.24267578125
2.2137499,9.93354320526123,-5.147533416748047,3.993528366088867,6.5765380859375,12.603759765625,-86.24267578125
2.2162498999999998,9.768342971801758,-5.190629482269287,3.9049429893493652,8.0718994140625,12.1917724609375,-84.8846435546875
2.2187499,9.768342971801758,-5.190629482269287,3.9049429893493652,8.0718994140625,12.1917724609375,-84.8846435546875
2.2212499,9.641449928283691,-5.200206279754639,3.8786067962646484,10.0860595703125,11.5203857421875,-83.0535888671875
2.2237499,9.641449928283691,-5.200206279754639,3.8786067962646484,10.0860595703125,11.5203857421875,-83.0535888671875
2.2262499,9.57441234588623,-5.183446884155273,3.974374771118164,12.6953125,10.650634765625,-81.3140869140625
2.2287499,9.57441234588623,-5.183446884155273,3.974374771118164,12.6953125,10.650634765625,-81.3140869140625
2.2312499,9.579200744628906,-5.097255229949951,4.185064792633057,16.2506103515625,10.1470947265625,-79.1168212890625
2.2337499,9.579200744628906,-5.097255229949951,4.185064792633057,16.2506103515625,10.1470947265625,-79.1168212890625
2.2362499,9.600749015808105,-4.934449672698975,4.388571739196777,20.294189453125,10.162353515625,-77.392578125
2.2387499,9.600749015808105,-4.934449672698975,4.388571739196777,20.294189453125,10.162353515625,-77.392578125
2.2412499,9.564835548400879,-4.764461517333984,4.51067590713501,24.10888671875,9.70458984375,-75.439453125
2.2437499,9.564835548400879,-4.764461517333984,4.51067590713501,24.10888671875,9.70458984375,-75.439453125
2.2462499,9.490615844726562,-4.649539470672607,4.580107688903809,28.1219482421875,8.72802734375,-73.455810546875
2.2487499,9.452308654785156,-4.6040496826171875,4.60165548324585,30.0445556640625,8.1634521484375,-72.3876953125
2.2512499,9.421183586120605,-4.546588897705078,4.613626480102539,32.2418212890625,7.50732421875,-71.533203125
2.2537499,9.390059471130371,-4.486733913421631,4.6040496826171875,34.5458984375,7.3699951171875,-70.8160400390625
2.2562499,9.35893440246582,-4.41969633102417,4.580107688903809,36.68212890625,6.5460205078125,-69.8394775390625
2.2587498999999998,9.320627212524414,-4.359841346740723,4.532223701477051,38.7420654296875,5.8135986328125,-68.695068359375
2.2612499,9.275136947631836,-4.314351558685303,4.469974517822266,40.58837890625,5.126953125,-67.5811767578125
2.2637499,9.217676162719727,-4.268861770629883,4.388571739196777,42.510986328125,3.90625,-66.4520263671875
2.2662499,9.153033256530762,-4.23773717880249,4.2951979637146,44.43359375,2.9754638671875,-65.3533935546875
2.2687499,9.100360870361328,-4.19224739074707,4.197035789489746,45.989990234375,1.8768310546875,-64.0411376953125
2.2712499,9.066842079162598,-4.132391929626465,4.098873138427734,47.4853515625,0.8544921875,-62.7288818359375
2.2737499,9.057265281677246,-4.065354347229004,4.005499362945557,48.8128662109375,-0.30517578125,-61.6607666015625
2.2762499,9.064447402954102,-3.97916316986084,3.9169139862060547,49.896240234375,-1.0833740234375,-60.5621337890625
2.2787498999999998,9.069235801696777,-3.9001545906066895,3.825934410095215,50.5828857421875,-2.105712890625,-59.722900390625
2.2812499,9.057265281677246,-3.8379054069519043,3.737348794937134,50.9185791015625,-3.326416015625,-58.7158203125
2.2837499,9.030928611755371,-3.7924153804779053,3.6511576175689697,51.1932373046875,-4.6539306640625,-57.464599609375
2.2862499,8.99740982055664,-3.7612907886505127,3.5673606395721436,51.544189453125,-5.889892578125,-56.2896728515625
2.2887499,8.949525833129883,-3.734954595565796,3.507505416870117,51.4678955078125,-6.927490234375,-55.0689697265625
2.2912499,8.904036521911621,-3.6990416049957275,3.5170822143554688,51.2237548828125,-8.2244873046875,-53.955078125
2.2937499,8.848969459533691,-3.643975019454956,3.4356794357299805,51.8798828125,-11.65771484375,-53.3294677734375
2.2962499,8.78432559967041,-3.56017804145813,3.428496837615967,49.9725341796875,-11.53564453125,-52.3223876953125
2.2987499,8.71728801727295,-3.4548330307006836,3.3279404640197754,48.553466796875,-11.3677978515625,-50.7659912109375
2.3012499,8.650250434875488,-3.3231520652770996,3.24414324760437,47.5616455078125,-12.75634765625,-49.8809814453125
2.3037499,8.597578048706055,-3.184288263320923,3.1723172664642334,46.173095703125,-13.671875,-49.041748046875
2.3062499,8.564059257507324,-3.0358476638793945,3.112462282180786,44.4793701171875,-14.3585205078125,-48.309326171875
2.3087499,8.549694061279297,-2.889801502227783,3.0573954582214355,42.4957275390625,-15.07568359375,-47.2564697265625
2.3112499,8.549694061279297,-2.7461493015289307,3.0095114707946777,40.52734375,-15.838623046875,-46.630859375
2.3137499,8.561665534973145,-2.607285737991333,2.9759926795959473,38.4521484375,-16.4947509765625,-46.0357666015625
2.3162499,8.580819129943848,-2.470816135406494,2.96162748336792,36.1175537109375,-17.181396484375,-45.2117919921875
2.3187499,8.59997272491455,-2.3367409706115723,2.96162748336792,33.905029296875,-17.5933837890625,-44.8455810546875
2.3212498999999998,8.621520042419434,-2.205059766769409,2.9664158821105957,31.494140625,-18.2037353515625,-44.4793701171875
2.3237499,8.647856712341309,-2.075772762298584,2.96162748336792,29.1900634765625,-18.6309814453125,-44.097900390625
2.3262499,8.671798706054688,-1.9512743949890137,2.940079689025879,26.9012451171875,-18.829345703125,-44.1741943359375
2.3287499,8.702922821044922,-1.8387469053268433,2.9041666984558105,24.59716796875,-19.2108154296875,-44.00634765625
2.3312499,8.7268648147583,-1.7357962131500244,2.8562827110290527,22.5830078125,-19.6380615234375,-43.731689453125
2.3337499,8.738836288452148,-1.6519991159439087,2.8107926845550537,20.2789306640625,-19.744873046875,-43.8232421875
2.3362499,8.738836288452148,-1.5873557329177856,2.7772738933563232,18.2037353515625,-19.7601318359375,-43.670654296875
2.3387499,8.7268648147583,-1.5466543436050415,2.7557260990142822,16.357421875,-19.989013671875,-43.5943603515625
2.3412498999999998,8.698134422302246,-1.522712230682373,2.7461493015289307,14.4195556640625,-20.3704833984375,-43.51806640625
2.3437499,8.65743350982666,-1.522712230682373,2.7533318996429443,12.7105712890625,-20.3857421875,-43.3197021484375
2.3462499,8.597578048706055,-1.534683346748352,2.75812029838562,10.7879638671875,-20.263671875,-43.0450439453125
2.3487499,8.523358345031738,-1.5610195398330688,2.7676970958709717,9.1094970703125,-20.2484130859375,-42.7703857421875
2.3512499,8.446743965148926,-1.5945383310317993,2.782062292098999,7.843017578125,-20.4010009765625,-42.724609375
2.3537499,8.362946510314941,-1.6352397203445435,2.7916390895843506,6.3018798828125,-20.3094482421875,-42.3583984375
2.3562499,8.288725852966309,-1.6759412288665771,2.808398485183716,4.852294921875,-20.111083984375,-41.8853759765625
2.3587499,8.22887134552002,-1.7190368175506592,2.8203697204589844,3.5400390625,-19.8211669921875,-41.473388671875
2.3612499,8.180987358093262,-1.7549498081207275,2.829946517944336,2.3040771484375,-19.744873046875,-40.9088134765625
2.3637499,8.159439086914062,-1.778891921043396,2.832340717315674,1.2359619140625,-19.6380615234375,-40.52734375
2.3662499,8.149862289428711,-1.7932571172714233,2.8227639198303223,0.1678466796875,-19.439697265625,-39.825439453125
2.3687499,8.157045364379883,-1.7908629179000854,2.806004285812378,-0.8697509765625,-19.3634033203125,-39.2913818359375
2.3712499,8.157045364379883,-1.7884687185287476,2.7772738933563232,-1.8463134765625,-19.3023681640625,-38.4368896484375
2.3737499,8.154650688171387,-1.7836803197860718,2.7557260990142822,-2.8839111328125,-19.47021484375,-37.811279296875
2.3762499,8.145073890686035,-1.7860745191574097,2.741360902786255,-3.84521484375,-19.0277099609375,-37.1856689453125
2.3787499,8.123526573181152,-1.7860745191574097,2.741360902786255,-4.69970703125,-18.8446044921875,-36.07177734375
2.3812499,8.099584579467773,-1.7908629179000854,2.75812029838562,-5.6304931640625,-18.5546875,-35.1104736328125
2.3837498999999998,8.068459510803223,-1.7812861204147339,2.7964274883270264,-6.53076171875,-18.463134765625,-34.1339111328125
2.3862499,8.034940719604492,-1.7621324062347412,2.849100112915039,-7.2021484375,-17.7459716796875,-33.447265625
2.3887499,7.99184513092041,-1.7334020137786865,2.920926094055176,-8.1634521484375,-17.27294921875,-32.5469970703125
2.3912499,7.951143741607666,-1.7070658206939697,3.004723072052002,-9.1094970703125,-16.8304443359375,-31.67724609375
2.3937499,7.910442352294922,-1.6831238269805908,3.0885202884674072,-9.70458984375,-16.0980224609375,-30.94482421875
2.3962499,7.869740962982178,-1.6735470294952393,3.1675288677215576,-10.009765625,-15.4266357421875,-30.0750732421875
2.3987499,7.8314337730407715,-1.6759412288665771,3.2369606494903564,-10.4217529296875,-15.0604248046875,-29.0679931640625
2.4012499,7.800309181213379,-1.6831238269805908,3.28963303565979,-10.7269287109375,-14.4805908203125,-28.0609130859375
2.4037498999999998,7.769184589385986,-1.6950948238372803,3.339911460876465,-10.9710693359375,-13.916015625,-27.4505615234375
2.4062499,7.745242595672607,-1.702277421951294,3.383007049560547,-11.29150390625,-13.48876953125,-26.7791748046875
2.4087499,7.723694801330566,-1.7094600200653076,3.4404678344726562,-11.688232421875,-13.0615234375,-25.848388671875
2.4112499,7.709329605102539,-1.7094600200653076,3.49314022064209,-11.8255615234375,-12.3443603515625,-25.238037109375
2.4137499,7.694964408874512,-1.7118542194366455,3.5458126068115234,-11.962890625,-11.7950439453125,-24.59716796875
2.4162499,7.692570209503174,-1.7046716213226318,3.584120035171509,-12.3748779296875,-11.199951171875,-24.1546630859375
2.4187499,7.680599212646484,-1.702277421951294,3.6080620288848877,-12.63427734375,-10.68115234375,-23.5137939453125
2.4212499,7.6782050132751465,-1.6974890232086182,3.620033025741577,-12.939453125,-10.101318359375,-22.7203369140625
2.4237499,7.663839817047119,-1.6903064250946045,3.6296098232269287,-13.3056640625,-9.307861328125,-22.15576171875
2.4262499,7.659051418304443,-1.6903064250946045,3.641580820083618,-13.5650634765625,-8.6212158203125,-21.575927734375
2.4287499,7.654263019561768,-1.6974890232086182,3.663128614425659,-13.61083984375,-8.1787109375,-20.93505859375
2.4312499,7.6566572189331055,-1.7190368175506592,3.6990416049957275,-13.5650634765625,-7.5531005859375,-20.2178955078125
2.4337499,7.673416614532471,-1.745373010635376,3.7493197917938232,-13.7481689453125,-6.9427490234375,-19.6380615234375
2.4362499,7.69735860824585,-1.7764976024627686,3.8067808151245117,-13.6871337890625,-6.1798095703125,-18.8446044921875
2.4387499,7.728483200073242,-1.8076223134994507,3.869029998779297,-13.48876953125,-5.584716796875,-17.791748046875
2.4412499,7.757213592529297,-1.8531121015548706,3.936067581176758,-13.0615234375,-5.0201416015625,-16.66259765625
2.4437499,7.781155586242676,-1.9129672050476074,4.010287761688232,-12.664794921875,-4.08935546875,-15.7623291015625
2.4462498999999998,7.802703380584717,-1.9919757843017578,4.084507942199707,-11.993408203125,-3.4027099609375,-14.70947265625
2.4487499,7.819462776184082,-2.0853497982025146,4.153939723968506,-11.29150390625,-2.74658203125,-13.5498046875
2.4512499,7.845798969268799,-2.185906171798706,4.216189384460449,-10.772705078125,-2.0294189453125,-12.237548828125
2.4537499,7.876923561096191,-2.296039342880249,4.264073371887207,-9.82666015625,-1.312255859375,-10.9100341796875
2.4562499,7.915230751037598,-2.408566951751709,4.304774761199951,-8.85009765625,-0.5340576171875,-9.5062255859375
2.4587499,7.960720539093018,-2.52109432220459,4.333505153656006,-7.8582763671875,0.2288818359375,-7.99560546875
2.4612499,8.008605003356934,-2.626439332962036,4.350264549255371,-6.8359375,0.9765625,-6.40869140625
2.4637499,8.058882713317871,-2.719813108444214,4.357447147369385,-6.072998046875,1.739501953125,-5.035400390625
2.4662498999999998,8.106766700744629,-2.7940332889556885,4.345476150512695,-5.1116943359375,2.655029296875,-3.5552978515625
2.4687499,8.147468566894531,-2.8562827110290527,4.321534156799316,-4.302978515625,3.3111572265625,-1.8157958984375
2.4712499,8.197746276855469,-2.8993782997131348,4.280832767486572,-3.7384033203125,4.1046142578125,-0.6103515625
2.4737499,8.248024940490723,-2.9233202934265137,4.220977783203125,-3.0975341796875,4.8828125,0.9918212890625
2.4762499,8.317456245422363,-2.9328970909118652,4.146757125854492,-2.3345947265625,5.279541015625,2.4566650390625
2.4787499,8.391676902770996,-2.9257144927978516,4.060565948486328,-1.708984375,6.072998046875,3.5247802734375
2.4812499,8.47547435760498,-2.9041666984558105,3.971980571746826,-1.007080078125,6.7901611328125,4.8828125
2.4837499,8.561665534973145,-2.8802247047424316,3.892971992492676,-0.8392333984375,7.1258544921875,5.9967041015625
2.4862499,8.645462036132812,-2.8419175148010254,3.821146011352539,-0.3204345703125,7.3699951171875,7.0343017578125
2.4887499,8.7268648147583,-2.80361008644104,3.756502389907837,-0.3509521484375,7.7972412109375,8.0413818359375
2.4912499,8.798690795898438,-2.75812029838562,3.6990416049957275,-0.0762939453125,8.056640625,8.880615234375
2.4937499,8.860940933227539,-2.717418909072876,3.6343982219696045,0.030517578125,8.3160400390625,9.674072265625
2.4962499,8.916007041931152,-2.6815059185028076,3.5745432376861572,-0.06103515625,8.4381103515625,10.223388671875
2.4987499,8.96389102935791,-2.6575639247894287,3.507505416870117,0.091552734375,8.7738037109375,10.589599609375
2.5012499,9.014169692993164,-2.6431987285614014,3.4356794357299805,0.5340576171875,8.697509765625,11.444091796875
2.5037499,9.071630477905273,-2.631227731704712,3.3638534545898438,0.54931640625,8.7432861328125,11.993408203125
2.5062499,9.14345645904541,-2.631227731704712,3.292027235031128,0.579833984375,8.880615234375,12.4053955078125
2.5087498999999998,9.227252960205078,-2.63362193107605,3.220201253890991,0.3814697265625,8.9569091796875,12.5732421875
2.5112499,9.32302188873291,-2.647987127304077,3.1435868740081787,0.396728515625,8.880615234375,12.4664306640625
2.5137499,9.418789863586426,-2.674323320388794,3.0621838569641113,0.518798828125,8.60595703125,13.0615234375
2.5162499,9.519346237182617,-2.7102363109588623,2.980781078338623,0.6256103515625,8.48388671875,13.214111328125
2.5187499,9.610325813293457,-2.7485435009002686,2.9017724990844727,0.67138671875,8.3465576171875,13.4429931640625
2.5212499,9.701305389404297,-2.7940332889556885,2.829946517944336,0.6103515625,8.1024169921875,13.5498046875
2.5237499,9.775525093078613,-2.8371291160583496,2.762908697128296,0.579833984375,8.0108642578125,13.641357421875
2.5262499,9.840168952941895,-2.875436305999756,2.717418909072876,0.3814697265625,7.7362060546875,14.0228271484375
2.5287498999999998,9.895236015319824,-2.9089550971984863,2.674323320388794,0.2593994140625,7.2479248046875,14.22119140625
2.5312499,9.950302124023438,-2.935291290283203,2.652775526046753,0.1220703125,6.988525390625,14.312744140625
2.5337499,10.002974510192871,-2.9496564865112305,2.6431987285614014,-0.1678466796875,6.89697265625,14.404296875
2.5362499,10.062829971313477,-2.9544448852539062,2.6408045291900635,-0.701904296875,6.7291259765625,14.3890380859375
2.5387499,10.122684478759766,-2.9520506858825684,2.655169725418091,-1.03759765625,6.4849853515625,14.4195556640625
2.5412499,10.187328338623047,-2.937685489654541,2.669534921646118,-1.3580322265625,6.3323974609375,14.6636962890625
2.5437499,10.249577522277832,-2.9281086921691895,2.695871114730835,-2.1209716796875,5.9967041015625,14.373779296875
2.5462499,10.321403503417969,-2.913743495941162,2.7222073078155518,-2.6702880859375,5.7373046875,14.2364501953125
2.5487499,10.381258964538574,-2.9065608978271484,2.7533318996429443,-3.1280517578125,5.096435546875,14.0533447265625
2.5512499,10.433931350708008,-2.9041666984558105,2.782062292098999,-3.875732421875,4.6844482421875,13.7176513671875
2.5537499,10.467450141906738,-2.9065608978271484,2.801215887069702,-4.486083984375,4.39453125,13.3819580078125
