# Time (seconds),Accel_X,Accel_Y,Accel_Z,Gyro_X,Gyro_Y,Gyro_Z
0.0012499,7.876923561096191,-5.461174011230469,2.3511061668395996,34.5611572265625,4.1046142578125,-21.2860107421875
0.0037499,7.857769966125488,-5.398924827575684,2.3343467712402344,34.454345703125,3.9215087890625,-21.087646484375
0.0062499,7.845798969268799,-5.329493045806885,2.3127987384796143,34.48486328125,3.631591796875,-20.7977294921875
0.0087499,7.82185697555542,-5.2672438621521,2.293645143508911,34.4085693359375,3.570556640625,-20.69091796875
0.0112499,7.795520782470703,-5.20978307723999,2.276885747909546,34.332275390625,3.4027099609375,-20.5841064453125
0.0137499,7.754819393157959,-5.157110691070557,2.2625205516815186,34.0423583984375,3.11279296875,-20.1873779296875
0.016249899999999998,7.714118003845215,-5.1116204261779785,2.252943754196167,34.027099609375,2.7313232421875,-19.83642578125
0.0187499,7.661445617675781,-5.058948040008545,2.2409727573394775,33.660888671875,2.3345947265625,-19.6685791015625
0.021249900000000002,7.613561630249023,-5.011064052581787,2.22660756111145,32.684326171875,2.0904541015625,-19.53125
0.023749899999999997,7.570465564727783,-4.9583916664123535,2.2146365642547607,32.5469970703125,1.77001953125,-19.0887451171875
0.0262499,7.539340972900391,-4.9152960777282715,2.2026655673980713,31.982421875,1.251220703125,-18.5546875
0.028749900000000002,7.524975776672363,-4.874594688415527,2.1954829692840576,31.3873291015625,0.9613037109375,-18.2952880859375
0.031249899999999997,7.527369976043701,-4.8482584953308105,2.1954829692840576,30.975341796875,0.6103515625,-17.8070068359375
0.0337499,7.532158374786377,-4.824316501617432,2.2026655673980713,30.5023193359375,0.3662109375,-17.39501953125
0.0362499,7.5417351722717285,-4.807557106018066,2.209848165512085,30.1055908203125,0.06103515625,-16.9830322265625
0.0387499,7.536946773529053,-4.78122091293335,2.2218191623687744,29.4647216796875,-0.3662109375,-16.357421875
0.0412499,7.5201873779296875,-4.747702121734619,2.229001760482788,29.1595458984375,-0.8087158203125,-15.68603515625
0.0437499,7.4986395835876465,-4.707000732421875,2.231395959854126,28.472900390625,-1.1444091796875,-15.1824951171875
0.0462499,7.479485988616943,-4.654327869415283,2.231395959854126,27.77099609375,-1.46484375,-14.7247314453125
0.0487499,7.47230339050293,-4.599261283874512,2.22660756111145,26.7333984375,-1.7242431640625,-14.0838623046875
0.0512499,7.481880187988281,-4.541800498962402,2.2170307636260986,26.0772705078125,-1.953125,-13.397216796875
0.053749899999999996,7.501033782958984,-4.4939165115356445,2.1978771686553955,25.2227783203125,-2.1209716796875,-12.8631591796875
0.0562499,7.527369976043701,-4.455609321594238,2.1763293743133545,24.5513916015625,-2.532958984375,-12.1917724609375
0.0587499,7.5417351722717285,-4.436455726623535,2.140416383743286,23.773193359375,-2.838134765625,-11.566162109375
0.061249899999999996,7.544129371643066,-4.4292731285095215,2.1140801906585693,22.7203369140625,-3.0517578125,-10.711669921875
0.0637499,7.534552574157715,-4.424484729766846,2.0877439975738525,21.820068359375,-3.387451171875,-10.0555419921875
0.0662499,7.513004779815674,-4.414907932281494,2.075772762298584,20.99609375,-3.753662109375,-9.1400146484375
0.0687499,7.489062786102295,-4.402936935424805,2.0614075660705566,20.0958251953125,-4.180908203125,-8.1787109375
0.0712499,7.469909191131592,-4.383783340454102,2.056619167327881,19.2108154296875,-4.57763671875,-7.62939453125
0.0737499,7.46033239364624,-4.378994941711426,2.0614075660705566,18.37158203125,-5.126953125,-6.805419921875
0.0762499,7.46033239364624,-4.378994941711426,2.0685901641845703,17.5628662109375,-5.3863525390625,-5.8135986328125
0.0787499,7.4770917892456055,-4.390965938568115,2.0853497982025146,16.7083740234375,-5.706787109375,-5.0048828125
0.0812499,7.493851184844971,-4.402936935424805,2.099714994430542,15.80810546875,-6.103515625,-4.3182373046875
0.0837499,7.524975776672363,-4.417302131652832,2.1068975925445557,14.9688720703125,-5.9814453125,-3.6163330078125
0.0862499,7.556100368499756,-4.4292731285095215,2.121262788772583,14.2059326171875,-6.1492919921875,-2.6702880859375
0.0887499,7.5968017578125,-4.441244125366211,2.1332337856292725,13.7939453125,-6.2255859375,-1.708984375
0.0912499,7.644686222076416,-4.4508209228515625,2.1523873805999756,13.18359375,-6.1187744140625,-1.007080078125
0.0937499,7.6997528076171875,-4.455609321594238,2.1763293743133545,12.4664306640625,-6.0577392578125,-0.274658203125
0.0962499,7.759607791900635,-4.4508209228515625,2.1954829692840576,11.9781494140625,-6.2255859375,0.2288818359375
0.0987499,7.814674377441406,-4.438849925994873,2.2218191623687744,11.138916015625,-6.134033203125,0.9765625
0.1012499,7.857769966125488,-4.426878929138184,2.250549554824829,10.4522705078125,-5.9814453125,1.64794921875
0.1037499,7.90086555480957,-4.417302131652832,2.27209734916687,9.979248046875,-5.9814453125,2.0904541015625
0.1062499,7.927201747894287,-4.422090530395508,2.300827741622925,9.4451904296875,-5.6610107421875,2.8076171875
0.1087499,7.95832633972168,-4.436455726623535,2.3319525718688965,9.124755859375,-5.67626953125,3.326416015625
0.1112499,7.982268333435059,-4.467580318450928,2.360682964324951,8.6517333984375,-5.401611328125,3.7689208984375
0.1137499,8.001421928405762,-4.508281707763672,2.3965959548950195,8.453369140625,-5.0811767578125,4.4097900390625
0.1162499,8.018181800842285,-4.546588897705078,2.43011474609375,8.392333984375,-4.913330078125,5.0201416015625
0.1187499,8.039729118347168,-4.584896087646484,2.4612393379211426,8.3160400390625,-4.364013671875,5.523681640625
0.1212499,8.066065788269043,-4.620809078216553,2.5019407272338867,8.148193359375,-4.0283203125,5.9051513671875
0.1237499,8.094796180725098,-4.642356872558594,2.5474305152893066,7.904052734375,-3.662109375,6.1492919921875
0.1262499,8.123526573181152,-4.671087741851807,2.585737943649292,8.209228515625,-3.23486328125,6.9427490234375
0.1287499,8.149862289428711,-4.697423934936523,2.628833532333374,8.2855224609375,-3.0059814453125,7.4462890625
0.1312499,8.169015884399414,-4.72376012802124,2.6575639247894287,8.11767578125,-2.3956298828125,7.8277587890625
0.1337499,8.188169479370117,-4.754884719848633,2.6839001178741455,8.3160400390625,-1.922607421875,8.1024169921875
0.1362499,8.197746276855469,-4.778826713562012,2.7030537128448486,8.4075927734375,-1.708984375,8.4686279296875
0.1387499,8.214506149291992,-4.795586109161377,2.7246015071868896,8.7127685546875,-1.251220703125,8.8043212890625
0.1412499,8.24084186553955,-4.812345504760742,2.741360902786255,8.819580078125,-0.7171630859375,9.063720703125
0.1437499,8.271966934204102,-4.831499099731445,2.760514497756958,9.307861328125,-0.396728515625,9.490966796875
0.1462499,8.310274124145508,-4.869806289672852,2.7892448902130127,9.6282958984375,0.1373291015625,9.5977783203125
0.1487499,8.343792915344238,-4.903325080871582,2.82515811920166,10.2081298828125,0.5340576171875,9.796142578125
0.1512499,8.365341186523438,-4.944026470184326,2.8634653091430664,10.6658935546875,0.7781982421875,9.8724365234375
0.1537499,8.38449478149414,-4.967968463897705,2.9041666984558105,10.8489990234375,1.0833740234375,9.94873046875
0.1562499,8.398859977722168,-4.989516258239746,2.937685489654541,11.29150390625,1.3275146484375,10.3759765625
0.1587499,8.40843677520752,-5.011064052581787,2.9735984802246094,12.02392578125,1.8463134765625,10.31494140625
0.1612499,8.42040729522705,-5.035006046295166,3.00711727142334,12.4969482421875,2.0294189453125,10.406494140625
0.1637499,8.434772491455078,-5.066130638122559,3.0406360626220703,12.908935546875,2.3193359375,10.4827880859375
0.1662499,8.44434928894043,-5.085284233093262,3.071760892868042,13.61083984375,2.5787353515625,10.5438232421875
0.1687499,8.458714485168457,-5.116408824920654,3.098097085952759,13.5955810546875,3.2196044921875,10.711669921875
0.1712499,8.463502883911133,-5.147533416748047,3.1292216777801514,14.16015625,3.2501220703125,10.6964111328125
0.1737499,8.470685958862305,-5.178658485412598,3.1507694721221924,14.9078369140625,3.173828125,10.7421875
0.17624990000000001,8.470685958862305,-5.216965675354004,3.181894063949585,15.1824951171875,3.23486328125,10.7269287109375
0.1787499,8.47786808013916,-5.243301868438721,3.205836057662964,15.3656005859375,3.5858154296875,10.4522705078125
0.1812499,8.482656478881836,-5.252878665924072,3.2321722507476807,15.838623046875,3.5858154296875,10.528564453125
0.1837499,8.47786808013916,-5.262455463409424,3.2537200450897217,15.9454345703125,3.570556640625,10.3912353515625
0.1862499,8.473079681396484,-5.252878665924072,3.268085241317749,16.204833984375,3.570556640625,10.406494140625
0.1887499,8.468291282653809,-5.252878665924072,3.2848446369171143,16.3421630859375,3.448486328125,10.2081298828125
0.1912499,8.461109161376953,-5.2480902671813965,3.2992098331451416,16.3116455078125,3.1890869140625,9.979248046875
0.1937499,8.468291282653809,-5.2480902671813965,3.318363666534424,16.2811279296875,3.47900390625,9.857177734375
0.1962499,8.473079681396484,-5.231330871582031,3.3446998596191406,16.204833984375,3.2196044921875,9.5062255859375
0.1987499,8.47786808013916,-5.20978307723999,3.3710360527038574,15.6707763671875,2.9144287109375,9.2010498046875
0.2012499,8.47547435760498,-5.173870086669922,3.406949043273926,15.0299072265625,2.44140625,8.7432861328125
0.2037499,8.451532363891602,-5.097255229949951,3.464409828186035,13.6260986328125,1.7852783203125,8.0718994140625
0.2062499,8.437167167663574,-5.063736438751221,3.4811692237854004,12.603759765625,1.068115234375,7.659912109375
0.20874990000000002,8.432378768920898,-5.039794445037842,3.490746021270752,11.749267578125,0.732421875,6.9122314453125
0.2112499,8.432378768920898,-5.027823448181152,3.5003228187561035,10.6658935546875,0.518798828125,6.2255859375
0.2137499,8.437167167663574,-5.0254292488098145,3.509899616241455,9.46044921875,0.06103515625,5.767822265625
0.2162499,8.439560890197754,-5.03021764755249,3.5170822143554688,8.1329345703125,-0.1983642578125,4.8370361328125
0.2187499,8.44195556640625,-5.04218864440918,3.529053211212158,6.744384765625,-0.7476806640625,3.7384033203125
0.2212499,8.432378768920898,-5.049371242523193,3.536235809326172,5.218505859375,-1.2359619140625,3.143310546875
0.2237499,8.422801971435547,-5.063736438751221,3.5386300086975098,3.6468505859375,-1.8768310546875,1.983642578125
0.2262499,8.418013572692871,-5.082890033721924,3.550601005554199,2.0751953125,-2.532958984375,0.9765625
0.2287499,8.418013572692871,-5.1116204261779785,3.56017804145813,0.5950927734375,-3.0670166015625,0.0457763671875
0.2312499,8.427590370178223,-5.149928092956543,3.584120035171509,-0.8392333984375,-3.692626953125,-0.946044921875
0.2337499,8.439560890197754,-5.2049946784973145,3.600879430770874,-2.227783203125,-4.1656494140625,-1.9683837890625
0.2362499,8.451532363891602,-5.2672438621521,3.6296098232269287,-3.692626953125,-4.852294921875,-2.960205078125
0.23874990000000001,8.453926086425781,-5.3342814445495605,3.6535518169403076,-4.974365234375,-5.340576171875,-3.9520263671875
0.2412499,8.451532363891602,-5.389348030090332,3.6774938106536865,-6.2408447265625,-5.9814453125,-4.7149658203125
0.2437499,8.439560890197754,-5.442020416259766,3.6966474056243896,-7.7056884765625,-6.561279296875,-5.5389404296875
0.2462499,8.427590370178223,-5.477933406829834,3.7038300037384033,-9.0484619140625,-7.232666015625,-6.591796875
0.2487499,8.418013572692871,-5.518634796142578,3.711012601852417,-10.1470947265625,-7.87353515625,-7.5225830078125
0.2512499,8.42040729522705,-5.56173038482666,3.7205893993377686,-11.3983154296875,-8.4686279296875,-8.4075927734375
0.25374990000000003,8.434772491455078,-5.614402770996094,3.7397429943084717,-12.14599609375,-9.2010498046875,-9.3536376953125
0.25624990000000003,8.453926086425781,-5.659893035888672,3.7612907886505127,-12.87841796875,-9.58251953125,-10.4217529296875
0.25874990000000003,8.482656478881836,-5.700594425201416,3.7828385829925537,-13.580322265625,-10.2691650390625,-11.3677978515625
0.26124990000000003,8.508993148803711,-5.7341132164001465,3.801992416381836,-14.2822265625,-10.833740234375,-12.4359130859375
0.26374990000000004,8.544905662536621,-5.762843608856201,3.818751811981201,-14.46533203125,-11.4288330078125,-13.6566162109375
0.26624990000000004,8.578424453735352,-5.784391403198242,3.8283286094665527,-14.9688720703125,-12.02392578125,-14.7705078125
0.26874990000000004,8.604761123657227,-5.803544998168945,3.840299606323242,-15.045166015625,-12.542724609375,-15.7012939453125
0.27124990000000004,8.628703117370605,-5.825092792510986,3.8522706031799316,-15.1824951171875,-13.1378173828125,-16.8304443359375
0.27374990000000005,8.640673637390137,-5.837063789367676,3.866635799407959,-15.289306640625,-13.885498046875,-17.8680419921875
0.27624990000000005,8.647856712341309,-5.849034786224365,3.890577793121338,-15.2130126953125,-14.4805908203125,-18.98193359375
0.27874990000000005,8.65743350982666,-5.858611583709717,3.914519786834717,-15.2587890625,-15.228271484375,-20.01953125
0.28124990000000005,8.676587104797363,-5.8657941818237305,3.93367338180542,-14.9993896484375,-15.960693359375,-21.1029052734375
0.28374990000000005,8.710105895996094,-5.87776517868042,3.955221176147461,-14.801025390625,-16.4794921875,-21.9573974609375
0.28624990000000006,8.7484130859375,-5.889736175537109,3.9671921730041504,-14.5111083984375,-16.9830322265625,-22.796630859375
0.28874990000000006,8.786720275878906,-5.899312973022461,3.9695863723754883,-14.16015625,-17.486572265625,-23.7579345703125
0.2912499,8.810662269592285,-5.899312973022461,3.9624037742614746,-13.916015625,-17.791748046875,-24.627685546875
0.2937499,8.820239067077637,-5.892130374908447,3.9384617805480957,-13.2904052734375,-17.974853515625,-25.390625
0.2962499,8.822632789611816,-5.868188381195068,3.9025487899780273,-12.9852294921875,-18.6309814453125,-26.2603759765625
0.2987499,8.820239067077637,-5.8442463874816895,3.861847400665283,-12.603759765625,-19.287109375,-27.069091796875
0.3012499,8.820239067077637,-5.817910194396973,3.818751811981201,-12.14599609375,-19.5770263671875,-27.8472900390625
0.3037499,8.827422142028809,-5.796362400054932,3.7828385829925537,-11.6729736328125,-19.8974609375,-28.6102294921875
0.3062499,8.83939266204834,-5.772420406341553,3.7493197917938232,-11.474609375,-20.4315185546875,-29.0985107421875
0.3087499,8.856152534484863,-5.743690013885498,3.7253777980804443,-11.04736328125,-20.721435546875,-29.78515625
0.3112499,8.875306129455566,-5.710171222686768,3.6990416049957275,-10.9100341796875,-21.0418701171875,-30.517578125
0.3137499,8.89445972442627,-5.6670756340026855,3.6750996112823486,-10.68115234375,-21.17919921875,-31.158447265625
0.31624990000000003,8.899248123168945,-5.609614372253418,3.6320040225982666,-10.6201171875,-21.2554931640625,-31.73828125
0.31874990000000003,8.901641845703125,-5.535394191741943,3.5936968326568604,-10.8184814453125,-21.5911865234375,-32.40966796875
0.32124990000000003,8.884882926940918,-5.451597213745117,3.5458126068115234,-10.80322265625,-21.97265625,-33.050537109375
0.32374990000000003,8.87291145324707,-5.367800235748291,3.5051112174987793,-10.9405517578125,-22.003173828125,-33.7677001953125
0.32624990000000004,8.856152534484863,-5.2911858558654785,3.469198226928711,-10.92529296875,-22.0489501953125,-34.5001220703125
0.32874990000000004,8.846575736999512,-5.22175407409668,3.4332852363586426,-10.9405517578125,-22.15576171875,-35.003662109375
0.33124990000000004,8.83939266204834,-5.161899089813232,3.406949043273926,-10.8489990234375,-22.4456787109375,-35.675048828125
0.33374990000000004,8.834604263305664,-5.109226226806641,3.3710360527038574,-10.894775390625,-22.52197265625,-36.4837646484375
0.33624990000000005,8.829815864562988,-5.058948040008545,3.337517261505127,-10.7269287109375,-22.7813720703125,-36.956787109375
0.33874990000000005,8.822632789611816,-5.015852451324463,3.2992098331451416,-10.8184814453125,-22.88818359375,-38.055419921875
0.34124990000000005,8.808267593383789,-4.977545261383057,3.268085241317749,-11.1236572265625,-23.040771484375,-38.6505126953125
0.34374990000000005,8.789113998413086,-4.946420669555664,3.2369606494903564,-11.138916015625,-23.37646484375,-39.1082763671875
0.34624990000000005,8.767566680908203,-4.912901878356934,3.2178070545196533,-11.29150390625,-23.37646484375,-39.703369140625
0.34874990000000006,8.75080680847168,-4.881777286529541,3.205836057662964,-11.3372802734375,-23.284912109375,-40.3594970703125
0.35124990000000006,8.738836288452148,-4.8482584953308105,3.1938650608062744,-11.6424560546875,-23.4527587890625,-40.557861328125
0.3537499,8.736441612243652,-4.81473970413208,3.181894063949585,-11.8560791015625,-23.1781005859375,-40.8935546875
0.3562499,8.734047889709473,-4.786009311676025,3.1699230670928955,-12.176513671875,-22.7813720703125,-41.3970947265625
0.3587499,8.736441612243652,-4.757278919219971,3.1531636714935303,-12.4053955078125,-22.6287841796875,-41.534423828125
0.3612499,8.736441612243652,-4.730942726135254,3.138798475265503,-12.75634765625,-22.2930908203125,-41.5802001953125
0.3637499,8.738836288452148,-4.704606533050537,3.1268274784088135,-13.0615234375,-21.8048095703125,-41.6107177734375
0.3662499,8.741230010986328,-4.6734819412231445,3.117250680923462,-13.1378173828125,-21.6827392578125,-41.9464111328125
0.3687499,8.75080680847168,-4.642356872558594,3.114856481552124,-13.4429931640625,-21.0723876953125,-42.0989990234375
0.3712499,8.762778282165527,-4.60165548324585,3.1100680828094482,-13.5650634765625,-20.782470703125,-41.8701171875
0.3737499,8.78193187713623,-4.570530891418457,3.112462282180786,-13.946533203125,-20.416259765625,-41.900634765625
0.3762499,8.791508674621582,-4.527435302734375,3.1028854846954346,-14.2059326171875,-19.7296142578125,-41.717529296875
0.37874990000000003,8.791508674621582,-4.491522312164307,3.093308687210083,-14.434814453125,-19.3023681640625,-41.3665771484375
0.38124990000000003,8.779537200927734,-4.462791919708252,3.0789434909820557,-14.83154296875,-18.768310546875,-41.107177734375
0.38374990000000003,8.753201484680176,-4.438849925994873,3.0621838569641113,-14.8773193359375,-18.06640625,-40.802001953125
0.38624990000000003,8.71728801727295,-4.41969633102417,3.043030261993408,-14.801025390625,-17.7154541015625,-40.1763916015625
0.38874990000000004,8.686163902282715,-4.410119533538818,3.0334534645080566,-15.19775390625,-17.333984375,-39.73388671875
0.39124990000000004,8.650250434875488,-4.395754337310791,3.0095114707946777,-14.9993896484375,-16.7999267578125,-38.8336181640625
0.39374990000000004,8.619126319885254,-4.395754337310791,2.999934673309326,-15.0299072265625,-15.8233642578125,-38.1317138671875
0.39624990000000004,8.595184326171875,-4.398148536682129,2.985569477081299,-14.8162841796875,-15.2740478515625,-37.5213623046875
0.39874990000000005,8.571242332458496,-4.410119533538818,2.9664158821105957,-14.3585205078125,-14.862060546875,-36.7279052734375
0.40124990000000005,8.537723541259766,-4.410119533538818,2.937685489654541,-14.495849609375,-13.946533203125,-35.7818603515625
0.40374990000000005,8.49941635131836,-4.400542736053467,2.892195701599121,-14.1448974609375,-13.214111328125,-34.7900390625
0.40624990000000005,8.44195556640625,-4.352658748626709,2.827552318572998,-13.9923095703125,-12.7410888671875,-33.7677001953125
0.40874990000000005,8.38688850402832,-4.290409564971924,2.7533318996429443,-14.3585205078125,-12.6953125,-32.806396484375
0.41124990000000006,8.329427719116211,-4.213795185089111,2.671929121017456,-14.3890380859375,-12.542724609375,-31.6619873046875
0.41374990000000006,8.245630264282227,-4.144362926483154,2.513911724090576,-14.34326171875,-11.688232421875,-30.09033203125
0.41624990000000006,8.212111473083496,-4.151545524597168,2.432508945465088,-13.3514404296875,-11.4288330078125,-29.11376953125
0.4187499,8.17141056060791,-4.168305397033691,2.3487119674682617,-12.6800537109375,-11.04736328125,-28.4271240234375
0.4212499,8.121131896972656,-4.170699596405029,2.2577321529388428,-12.3138427734375,-11.016845703125,-27.6336669921875
0.4237499,8.051700592041016,-4.158728122711182,2.164358377456665,-12.02392578125,-11.3067626953125,-26.6876220703125
0.4262499,7.979874134063721,-4.137180328369141,2.073378562927246,-11.77978515625,-11.5203857421875,-26.0772705078125
0.4287499,7.91283655166626,-4.1156325340271,1.98958158493042,-11.2152099609375,-11.65771484375,-25.4974365234375
0.4312499,7.869740962982178,-4.094084739685059,1.9081788063049316,-10.3759765625,-12.0086669921875,-24.9176025390625
0.4337499,7.845798969268799,-4.065354347229004,1.8411411046981812,-9.7198486328125,-12.1612548828125,-24.1851806640625
0.4362499,7.836222171783447,-4.022258758544922,1.7741034030914307,-9.6282958984375,-12.542724609375,-23.3917236328125
0.4387499,7.833827972412109,-3.9671921730041504,1.7046716213226318,-9.3841552734375,-13.1378173828125,-22.7813720703125
0.44124990000000003,7.836222171783447,-3.907337188720703,1.6328455209732056,-9.0484619140625,-13.336181640625,-22.0184326171875
0.44374990000000003,7.845798969268799,-3.8498764038085938,1.5466543436050415,-8.819580078125,-13.824462890625,-21.5911865234375
0.44624990000000003,7.857769966125488,-3.799597978591919,1.460463047027588,-8.4991455078125,-14.2822265625,-20.8740234375
0.44874990000000003,7.872135162353516,-3.7660791873931885,1.3646949529647827,-8.026123046875,-14.6636962890625,-20.20263671875
0.45124990000000004,7.876923561096191,-3.7493197917938232,1.2761094570159912,-7.50732421875,-14.984130859375,-19.561767578125
0.45374990000000004,7.872135162353516,-3.754108190536499,1.1971008777618408,-7.0037841796875,-15.5029296875,-18.829345703125
0.45624990000000004,7.850587368011475,-3.7684733867645264,1.1420341730117798,-6.6680908203125,-16.3116455078125,-18.2342529296875
0.45874990000000004,7.826645374298096,-3.780444383621216,1.0989385843276978,-6.1798095703125,-16.6168212890625,-17.5933837890625
0.46124990000000005,7.805097579956055,-3.778050184249878,1.0797849893569946,-5.9967041015625,-17.242431640625,-16.9525146484375
0.46374990000000005,7.800309181213379,-3.7636849880218506,1.0558429956436157,-5.9967041015625,-17.9443359375,-16.2200927734375
0.46624990000000005,7.8098859786987305,-3.73016619682312,1.036689281463623,-5.950927734375,-18.280029296875,-15.594482421875
0.46874990000000005,7.838616371154785,-3.691859006881714,1.0127472877502441,-6.16455078125,-18.6309814453125,-14.984130859375
0.47124990000000005,7.879317760467529,-3.648763418197632,0.9816226959228516,-5.9814453125,-19.256591796875,-13.885498046875
0.47374990000000006,7.929595947265625,-3.60566782951355,0.9481038451194763,-5.950927734375,-19.0887451171875,-13.0767822265625
0.47624990000000006,7.982268333435059,-3.5721490383148193,0.912190854549408,-6.04248046875,-19.3939208984375,-12.4359130859375
0.47874990000000006,8.034940719604492,-3.5410242080688477,0.8690952062606812,-6.4544677734375,-19.8974609375,-11.5966796875
0.4812499,8.085219383239746,-3.509899616241455,0.8236053586006165,-6.7596435546875,-20.1263427734375,-10.7574462890625
0.4837499,8.128314971923828,-3.4763808250427246,0.768538773059845,-7.171630859375,-20.263671875,-9.765625
0.4862499,8.164227485656738,-3.44765043258667,0.7134721279144287,-7.7056884765625,-20.477294921875,-9.1552734375
0.4887499,8.190564155578613,-3.426102638244629,0.6607996821403503,-8.2550048828125,-20.7366943359375,-8.6822509765625
0.4912499,8.214506149291992,-3.421314239501953,0.6200982332229614,-8.72802734375,-20.8740234375,-7.62939453125
0.4937499,8.236053466796875,-3.4308910369873047,0.5937620401382446,-8.9569091796875,-20.9503173828125,-6.9580078125
0.4962499,8.259995460510254,-3.450044631958008,0.5770025849342346,-9.1552734375,-21.1639404296875,-6.16455078125
0.4987499,8.291120529174805,-3.4787750244140625,0.5578489899635315,-9.674072265625,-21.392822265625,-5.43212890625
0.5012499,8.31985092163086,-3.5027170181274414,0.5315127968788147,-10.040283203125,-21.4385986328125,-4.57763671875
0.5037499000000001,8.348581314086914,-3.529053211212158,0.5003881454467773,-10.31494140625,-21.6064453125,-3.8299560546875
0.5062499,8.374917984008789,-3.555389642715454,0.4572925269603729,-10.6964111328125,-21.5606689453125,-3.021240234375
0.5087499000000001,8.394071578979492,-3.5865142345428467,0.4213795065879822,-10.9405517578125,-21.4996337890625,-2.38037109375
0.5112499,8.406042098999023,-3.627215623855591,0.3878606855869293,-11.077880859375,-21.484375,-1.678466796875
0.5137499,8.4108304977417,-3.6774938106536865,0.36152446269989014,-11.2152099609375,-21.54541015625,-0.9002685546875
0.5162499,8.415618896484375,-3.732560396194458,0.33997663855552673,-11.1236572265625,-21.453857421875,-0.2899169921875
0.5187499,8.413225173950195,-3.7900211811065674,0.31364041566848755,-11.04736328125,-21.1639404296875,0.1678466796875
0.5212499,8.406042098999023,-3.8331170082092285,0.2849099934101105,-11.1541748046875,-21.209716796875,0.9918212890625
0.5237499,8.398859977722168,-3.8738183975219727,0.23942017555236816,-11.3525390625,-21.0113525390625,1.739501953125
0.5262499,8.389283180236816,-3.9049429893493652,0.19393034279346466,-10.9405517578125,-20.721435546875,2.3193359375
0.5287499,8.382100105285645,-3.9384617805480957,0.14365209639072418,-10.8489990234375,-20.4925537109375,2.838134765625
0.5312499,8.377311706542969,-3.976768970489502,0.10055647045373917,-10.833740234375,-20.4315185546875,3.23486328125
0.5337499,8.379706382751465,-4.017470359802246,0.07182604819536209,-10.43701171875,-20.20263671875,3.814697265625
0.5362499000000001,8.38688850402832,-4.065354347229004,0.05746084079146385,-10.406494140625,-19.9737548828125,4.3182373046875
0.5387499,8.396465301513672,-4.108449935913086,0.047884032130241394,-10.345458984375,-19.7601318359375,4.974365234375
0.5412499000000001,8.40843677520752,-4.14915132522583,0.038307227194309235,-9.9334716796875,-19.5465087890625,5.6304931640625
0.5437499,8.425195693969727,-4.19224739074707,0.031124621629714966,-9.82666015625,-19.10400390625,5.9661865234375
0.5462499000000001,8.429984092712402,-4.2329487800598145,0.019153613597154617,-9.918212890625,-18.5546875,6.3018798828125
0.5487499,8.437167167663574,-4.273650169372559,0.0071826050989329815,-9.7503662109375,-18.3258056640625,6.744384765625
0.5512499000000001,8.432378768920898,-4.307168960571289,-0.004788403399288654,-9.521484375,-18.035888671875,7.2784423828125
0.5537499,8.427590370178223,-4.335899353027344,-0.014365210197865963,-9.6893310546875,-17.5018310546875,7.7362060546875
0.5562499000000001,8.413225173950195,-4.352658748626709,-0.028730420395731926,-9.6588134765625,-16.9830322265625,8.0108642578125
0.5587499,8.396465301513672,-4.371812343597412,-0.043095629662275314,-9.857177734375,-16.357421875,8.3770751953125
0.5612499000000001,8.370129585266113,-4.390965938568115,-0.05506663769483566,-10.1470947265625,-16.11328125,8.97216796875
0.5637499,8.339004516601562,-4.414907932281494,-0.06464344263076782,-10.406494140625,-15.777587890625,9.3231201171875
0.5662499000000001,8.312667846679688,-4.436455726623535,-0.06703764945268631,-10.3302001953125,-15.2130126953125,9.6893310546875
0.5687499,8.293514251708984,-4.46518611907959,-0.06224924325942993,-10.6658935546875,-14.4805908203125,9.8724365234375
0.5712499000000001,8.279149055480957,-4.4939165115356445,-0.05985504388809204,-11.1541748046875,-14.0380859375,10.101318359375
0.5737499,8.281543731689453,-4.527435302734375,-0.047884032130241394,-11.199951171875,-13.519287109375,10.2691650390625
0.5762499000000001,8.288725852966309,-4.565742492675781,-0.028730420395731926,-11.444091796875,-12.8936767578125,10.1776123046875
0.5787499,8.300697326660156,-4.60165548324585,0,-11.627197265625,-12.298583984375,10.2691650390625
0.5812499,8.312667846679688,-4.639962673187256,0.038307227194309235,-11.6424560546875,-11.90185546875,10.2996826171875
0.5837499,8.31985092163086,-4.6734819412231445,0.07422025501728058,-11.6729736328125,-11.1236572265625,10.31494140625
0.5862499,8.317456245422363,-4.714183330535889,0.10773907601833344,-11.993408203125,-10.772705078125,10.19287109375
0.5887499,8.303091049194336,-4.750096321105957,0.13168109953403473,-12.0086669921875,-10.2386474609375,10.0555419921875
0.5912499,8.286332130432129,-4.793191909790039,0.14604631066322327,-11.90185546875,-9.521484375,10.25390625
0.5937499,8.26478385925293,-4.836287498474121,0.15562310814857483,-11.90185546875,-8.9874267578125,10.0860595703125
0.5962499,8.248024940490723,-4.876988887786865,0.1628057211637497,-11.8865966796875,-8.48388671875,10.0555419921875
0.5987499000000001,8.24084186553955,-4.912901878356934,0.16759411990642548,-11.9781494140625,-8.0718994140625,10.1165771484375
0.6012499,8.24084186553955,-4.946420669555664,0.17477671802043915,-11.505126953125,-7.5225830078125,10.040283203125
0.6037499000000001,8.250418663024902,-4.975151062011719,0.17717093229293823,-11.474609375,-7.110595703125,9.9945068359375
0.6062499,8.26239013671875,-4.99669885635376,0.17717093229293823,-11.3983154296875,-6.65283203125,10.0250244140625
0.6087499000000001,8.269572257995605,-5.013458251953125,0.17956513166427612,-11.41357421875,-6.04248046875,9.8724365234375
0.6112499,8.271966934204102,-5.023035049438477,0.17956513166427612,-11.5509033203125,-5.79833984375,9.6893310546875
0.6137499000000001,8.271966934204102,-5.027823448181152,0.1843535304069519,-11.4593505859375,-5.2947998046875,9.9334716796875
0.6162499,8.269572257995605,-5.0254292488098145,0.18914192914962769,-11.4593505859375,-4.669189453125,9.8876953125
0.6187499000000001,8.269572257995605,-5.023035049438477,0.18914192914962769,-11.41357421875,-4.33349609375,9.796142578125
0.6212499,8.271966934204102,-5.013458251953125,0.1867477297782898,-11.3372802734375,-3.84521484375,9.674072265625
0.6237499000000001,8.274360656738281,-4.982333660125732,0.16519992053508759,-11.3525390625,-2.99072265625,9.46044921875
0.6262499,8.279149055480957,-4.970362663269043,0.15322890877723694,-11.383056640625,-2.50244140625,9.3841552734375
0.6287499000000001,8.291120529174805,-4.955997467041016,0.14604631066322327,-11.5509033203125,-2.410888671875,9.2620849609375
0.6312499,8.307879447937012,-4.948814868927002,0.1388636976480484,-11.474609375,-1.9073486328125,8.9111328125
0.6337499000000001,8.327033042907715,-4.9368438720703125,0.1388636976480484,-11.505126953125,-1.4495849609375,8.575439453125
0.6362499,8.341399192810059,-4.924872875213623,0.1364694982767105,-11.749267578125,-1.1444091796875,8.3770751953125
0.6387499000000001,8.348581314086914,-4.910507678985596,0.15083470940589905,-11.7950439453125,-0.885009765625,8.2550048828125
0.6412499,8.35336971282959,-4.898536682128906,0.16759411990642548,-11.7034912109375,-0.5035400390625,8.23974609375
0.6437499,8.355764389038086,-4.891354084014893,0.20350714027881622,-11.8560791015625,-0.1983642578125,8.30078125
0.6462499,8.358158111572266,-4.886565685272217,0.24181437492370605,-11.7340087890625,0.0762939453125,8.1329345703125
0.6487499,8.365341186523438,-4.876988887786865,0.2825157940387726,-11.8408203125,0.3814697265625,8.1024169921875
0.6512499,8.377311706542969,-4.867412090301514,0.3208230137825012,-11.7340087890625,0.3662109375,8.056640625
0.6537499,8.38449478149414,-4.8482584953308105,0.3495534360408783,-11.7340087890625,0.732421875,7.8125
0.6562499,8.396465301513672,-4.833893299102783,0.37828385829925537,-11.566162109375,0.8697509765625,7.965087890625
0.6587499,8.403648376464844,-4.817133903503418,0.3974374830722809,-11.383056640625,1.0223388671875,8.1024169921875
0.6612499000000001,8.40843677520752,-4.8051629066467285,0.4165911078453064,-11.23046875,1.373291015625,8.026123046875
0.6637499,8.40843677520752,-4.790797710418701,0.43095630407333374,-11.077880859375,1.4190673828125,8.087158203125
0.6662499000000001,8.40843677520752,-4.778826713562012,0.4429273009300232,-10.7269287109375,1.46484375,8.36181640625
0.6687499,8.40843677520752,-4.76924991607666,0.44771572947502136,-10.7421875,1.312255859375,8.4381103515625
0.6712499000000001,8.4108304977417,-4.759673118591309,0.45250412821769714,-10.6353759765625,1.6326904296875,8.7127685546875
0.6737499,8.415618896484375,-4.745307922363281,0.44771572947502136,-10.25390625,1.6326904296875,8.9874267578125
0.6762499000000001,8.427590370178223,-4.730942726135254,0.4405331015586853,-10.0555419921875,1.52587890625,9.1094970703125
0.6787499,8.44195556640625,-4.709394931793213,0.42856210470199585,-9.765625,1.434326171875,9.2620849609375
0.6812499000000001,8.456320762634277,-4.6734819412231445,0.4165911078453064,-9.8114013671875,1.3580322265625,9.857177734375
0.6837499,8.468291282653809,-4.630385875701904,0.40222588181495667,-9.429931640625,1.3427734375,10.162353515625
0.6862499000000001,8.480262756347656,-4.580107688903809,0.38546648621559143,-9.46044921875,1.434326171875,10.2996826171875
0.6887499,8.489839553833008,-4.525041103363037,0.3711012601852417,-9.7808837890625,1.0986328125,10.7269287109375
0.6912499000000001,8.506598472595215,-4.479551315307617,0.35673606395721436,-9.9334716796875,1.1444091796875,11.04736328125
0.6937499,8.523358345031738,-4.434061527252197,0.3447650372982025,-10.101318359375,0.9918212890625,11.3677978515625
0.6962499000000001,8.542511940002441,-4.393360137939453,0.33518823981285095,-10.1470947265625,0.7781982421875,11.6119384765625
0.6987499,8.564059257507324,-4.357447147369385,0.33518823981285095,-10.68115234375,0.518798828125,12.054443359375
0.7012499000000001,8.583212852478027,-4.323928356170654,0.33758243918418884,-11.0626220703125,0.4730224609375,12.2222900390625
0.7037499,8.60236644744873,-4.288015365600586,0.3519476354122162,-11.4593505859375,0.4425048828125,12.02392578125
0.7062499,8.616731643676758,-4.2544965744018555,0.3734954595565796,-12.0086669921875,0.42724609375,12.3291015625
0.7087499,8.635885238647461,-4.223371982574463,0.395043283700943,-12.420654296875,0.2593994140625,12.4359130859375
0.7112499,8.65743350982666,-4.197035789489746,0.4213795065879822,-13.12255859375,0.335693359375,12.359619140625
0.7137499,8.69095230102539,-4.182670593261719,0.45010992884635925,-13.6871337890625,0.457763671875,12.6495361328125
0.7162499,8.729259490966797,-4.168305397033691,0.47884035110473633,-14.190673828125,0.5035400390625,12.5274658203125
0.7187499,8.767566680908203,-4.153939723968506,0.5051765441894531,-14.7705078125,0.48828125,12.39013671875
0.7212499,8.810662269592285,-4.146757125854492,0.5315127968788147,-15.2435302734375,0.518798828125,12.6495361328125
0.7237499000000001,8.846575736999512,-4.1395745277404785,0.5554547905921936,-16.05224609375,0.7171630859375,12.6190185546875
0.7262499,8.887276649475098,-4.146757125854492,0.5817909836769104,-16.54052734375,1.0986328125,12.6800537109375
0.7287499000000001,8.923190116882324,-4.1611223220825195,0.6057330369949341,-17.059326171875,1.40380859375,12.5274658203125
0.7312499,8.96389102935791,-4.185064792633057,0.6440402865409851,-17.303466796875,1.4190673828125,12.237548828125
0.7337499000000001,8.99740982055664,-4.20421838760376,0.6799532771110535,-17.4713134765625,1.6937255859375,12.26806640625
0.7362499,9.026140213012695,-4.228160381317139,0.7350199222564697,-17.730712890625,1.9989013671875,12.2833251953125
0.7387499000000001,9.038111686706543,-4.247313976287842,0.7852981686592102,-17.9443359375,2.3956298828125,12.26806640625
0.7412499,9.042900085449219,-4.271255970001221,0.8451532125473022,-18.218994140625,2.471923828125,12.0391845703125
0.7437499000000001,9.033323287963867,-4.2951979637146,0.8906430602073669,-18.3258056640625,2.6397705078125,11.90185546875
0.7462499,9.033323287963867,-4.338293552398682,0.9265560507774353,-18.4326171875,2.5787353515625,12.1612548828125
0.7487499000000001,9.042900085449219,-4.383783340454102,0.9552865028381348,-18.2647705078125,2.655029296875,11.993408203125
0.7512499,9.05247688293457,-4.434061527252197,0.9696516990661621,-17.8985595703125,3.265380859375,11.5814208984375
0.7537499000000001,9.07641887664795,-4.481945514678955,0.9768342971801758,-17.9443359375,3.41796875,11.65771484375
0.7562499,9.0859956741333,-4.517858505249023,0.9840168952941895,-17.7001953125,3.8299560546875,11.5966796875
0.7587499000000001,9.08838939666748,-4.54419469833374,0.9888052940368652,-17.2271728515625,4.0740966796875,11.41357421875
0.7612499,9.071630477905273,-4.551377296447754,0.9888052940368652,-17.242431640625,4.08935546875,11.29150390625
0.7637499000000001,9.05247688293457,-4.558559894561768,0.9911994934082031,-17.4407958984375,4.0740966796875,10.833740234375
0.7662499,9.030928611755371,-4.568136692047119,0.9768342971801758,-17.02880859375,4.0435791015625,10.92529296875
0.7687499000000001,9.009381294250488,-4.592078685760498,0.9648633003234863,-16.571044921875,4.1961669921875,10.7421875
0.7712499,9.004592895507812,-4.632780075073242,0.9457096457481384,-16.0980224609375,4.3792724609375,10.345458984375
0.7737499,8.995016098022461,-4.675876140594482,0.933738648891449,-15.19775390625,4.2724609375,10.2996826171875
0.7762499,8.975862503051758,-4.709394931793213,0.9265560507774353,-14.5721435546875,4.2572021484375,9.9945068359375
0.7787499,8.949525833129883,-4.7189717292785645,0.9217676520347595,-14.1143798828125,4.1961669921875,9.7198486328125
0.7812499,8.916007041931152,-4.72376012802124,0.9289502501487732,-14.1448974609375,4.1961669921875,9.3841552734375
0.7837499,8.884882926940918,-4.7189717292785645,0.9361328482627869,-13.73291015625,4.0435791015625,9.033203125
0.7862499000000001,8.858546257019043,-4.730942726135254,0.9552865028381348,-13.2598876953125,3.9825439453125,8.544921875
0.7887499,8.841787338256836,-4.752490520477295,0.9816226959228516,-12.969970703125,3.90625,8.0718994140625
0.7912499000000001,8.827422142028809,-4.78122091293335,1.0007762908935547,-12.3748779296875,3.936767578125,7.8582763671875
0.7937499,8.820239067077637,-4.81473970413208,1.0342950820922852,-11.627197265625,4.0283203125,7.4920654296875
0.7962499000000001,8.815450668334961,-4.843470096588135,1.048660397529602,-10.8642578125,4.1351318359375,7.0648193359375
0.7987499,8.808267593383789,-4.867412090301514,1.0678139925003052,-10.467529296875,3.997802734375,6.77490234375
0.8012499000000001,8.793902397155762,-4.884171485900879,1.072602391242981,-10.1470947265625,3.90625,6.3018798828125
0.8037499,8.772355079650879,-4.898536682128906,1.072602391242981,-9.552001953125,4.1351318359375,6.195068359375
0.8062499000000001,8.7484130859375,-4.917690277099609,1.0678139925003052,-9.2010498046875,3.96728515625,6.0272216796875
0.8087499,8.7268648147583,-4.944026470184326,1.070208191871643,-8.544921875,3.5552978515625,5.767822265625
0.8112499000000001,8.71489429473877,-4.975151062011719,1.072602391242981,-7.843017578125,3.570556640625,5.4931640625
0.8137499,8.69334602355957,-4.99669885635376,1.0773907899856567,-7.232666015625,3.6773681640625,5.3558349609375
0.8162499000000001,8.674192428588867,-5.006275653839111,1.0773907899856567,-7.171630859375,3.6468505859375,5.401611328125
0.8187499,8.633491516113281,-4.989516258239746,1.0678139925003052,-6.9732666015625,3.265380859375,5.2642822265625
0.8212499000000001,8.604761123657227,-4.970362663269043,1.0582371950149536,-6.4697265625,3.0975341796875,5.18798828125
0.8237499,8.56884765625,-4.93923807144165,1.0438719987869263,-6.195068359375,3.0364990234375,5.06591796875
0.8262499000000001,8.544905662536621,-4.917690277099609,1.0342950820922852,-6.103515625,2.9449462890625,5.1727294921875
0.8287499,8.525752067565918,-4.896142482757568,1.0223240852355957,-5.950927734375,2.5634765625,5.035400390625
0.8312499000000001,8.504204750061035,-4.874594688415527,1.0127472877502441,-5.5084228515625,2.6397705078125,5.1422119140625
0.8337499,8.461109161376953,-4.8482584953308105,0.9720458984375,-5.5694580078125,2.13623046875,5.18798828125
0.8362499,8.429984092712402,-4.831499099731445,0.9409212470054626,-5.2642822265625,2.2735595703125,5.55419921875
0.8387499,8.394071578979492,-4.809951305389404,0.9002198576927185,-5.279541015625,2.0751953125,5.4779052734375
0.8412499,8.35097599029541,-4.774038314819336,0.8523358106613159,-5.4779052734375,1.708984375,5.6610107421875
0.8437499,8.305485725402832,-4.733336925506592,0.7972691655158997,-5.92041015625,1.6632080078125,5.8135986328125
0.8462499,8.274360656738281,-4.69024133682251,0.7445967197418213,-6.16455078125,1.434326171875,5.9051513671875
0.8487499000000001,8.252813339233398,-4.651933670043945,0.6943184733390808,-6.4239501953125,1.28173828125,5.828857421875
0.8512499,8.248024940490723,-4.611232280731201,0.6536170840263367,-6.7596435546875,1.007080078125,5.9661865234375
0.8537499000000001,8.248024940490723,-4.577713489532471,0.6272808313369751,-6.805419921875,0.9002685546875,6.134033203125
0.8562499,8.24084186553955,-4.5394062995910645,0.6105214357376099,-7.049560546875,0.701904296875,6.1187744140625
0.8587499000000001,8.233659744262695,-4.51067590713501,0.6009446382522583,-7.38525390625,0.6256103515625,6.0882568359375
0.8612499,8.221688270568848,-4.481945514678955,0.5985504388809204,-7.5225830078125,0.5645751953125,6.3323974609375
0.8637499000000001,8.20492935180664,-4.46518611907959,0.5937620401382446,-7.7056884765625,0.3509521484375,6.317138671875
0.8662499,8.183381080627441,-4.4532151222229,0.5913678407669067,-8.1329345703125,0.1983642578125,6.6070556640625
0.8687499000000001,8.157045364379883,-4.446032524108887,0.5841852426528931,-8.4075927734375,-0.3814697265625,6.7901611328125
0.8712499,8.135497093200684,-4.4532151222229,0.5793967843055725,-8.72802734375,-0.213623046875,6.6680908203125
0.8737499000000001,8.121131896972656,-4.4723687171936035,0.5770025849342346,-8.72802734375,-0.1983642578125,6.9580078125
0.8762499,8.121131896972656,-4.508281707763672,0.5841852426528931,-8.636474609375,-0.3662109375,7.32421875
0.8787499000000001,8.135497093200684,-4.553771495819092,0.5889736413955688,-8.72802734375,-0.396728515625,7.4310302734375
0.8812499,8.145073890686035,-4.594472885131836,0.6033388376235962,-8.514404296875,-0.3814697265625,7.8125
0.8837499000000001,8.154650688171387,-4.627991676330566,0.6129156351089478,-8.209228515625,-0.335693359375,8.453369140625
0.8862499,8.149862289428711,-4.651933670043945,0.6248866319656372,-8.0718994140625,-0.42724609375,8.6669921875
0.8887499000000001,8.133103370666504,-4.6734819412231445,0.6392518281936646,-7.7056884765625,-0.5035400390625,8.85009765625
0.8912499,8.109161376953125,-4.69024133682251,0.6536170840263367,-7.0953369140625,-0.48828125,9.3841552734375
0.8937499000000001,8.078036308288574,-4.709394931793213,0.667982280254364,-6.65283203125,-0.6256103515625,9.918212890625
0.8962499,8.04930591583252,-4.730942726135254,0.6775590777397156,-5.9814453125,-0.579833984375,10.284423828125
0.8987499,8.030152320861816,-4.754884719848633,0.6871358752250671,-5.18798828125,-0.5950927734375,10.8489990234375
0.9012499,8.01339340209961,-4.7836151123046875,0.6967126727104187,-4.547119140625,-0.8392333984375,11.1846923828125
0.9037499,8.001421928405762,-4.81473970413208,0.7038952708244324,-3.72314453125,-0.9307861328125,11.7340087890625
0.9062499,7.982268333435059,-4.841075897216797,0.7110779285430908,-2.8076171875,-1.0986328125,12.359619140625
0.9087499,7.955932140350342,-4.865017890930176,0.7086837291717529,-2.1209716796875,-1.2359619140625,12.6495361328125
0.9112499000000001,7.922413349151611,-4.879383087158203,0.7038952708244324,-1.251220703125,-1.312255859375,13.214111328125
0.9137499,7.891288757324219,-4.891354084014893,0.6919242739677429,-0.3662109375,-1.28173828125,13.9007568359375
0.9162499000000001,7.862558364868164,-4.888959884643555,0.6775590777397156,0.4730224609375,-1.5411376953125,14.190673828125
0.9187499,7.843404769897461,-4.888959884643555,0.6607996821403503,1.1749267578125,-1.5869140625,14.4500732421875
0.9212499000000001,7.82185697555542,-4.874594688415527,0.646434485912323,2.0751953125,-1.5411376953125,15.045166015625
0.9237499,7.807491779327393,-4.857835292816162,0.629675030708313,2.8839111328125,-1.5716552734375,15.472412109375
0.9262499000000001,7.795520782470703,-4.833893299102783,0.6153098344802856,3.3721923828125,-1.800537109375,15.7623291015625
0.9287499,7.781155586242676,-4.802768707275391,0.6105214357376099,3.90625,-1.5869140625,15.9759521484375
0.9312499000000001,7.769184589385986,-4.766855716705322,0.6057330369949341,4.425048828125,-1.8157958984375,16.5252685546875
0.9337499,7.759607791900635,-4.730942726135254,0.608127236366272,4.8828125,-1.953125,16.6778564453125
0.9362499000000001,7.745242595672607,-4.697423934936523,0.6057330369949341,5.340576171875,-1.861572265625,16.8609619140625
0.9387499,7.738059997558594,-4.663905143737793,0.6057330369949341,5.43212890625,-1.800537109375,17.2576904296875
0.9412499000000001,7.73087739944458,-4.630385875701904,0.5889736413955688,5.55419921875,-1.7852783203125,17.578125
0.9437499,7.73087739944458,-4.594472885131836,0.5722141861915588,5.67626953125,-1.6937255859375,17.5628662109375
0.9462499000000001,7.733271598815918,-4.563348293304443,0.5386953949928284,5.584716796875,-1.7242431640625,17.730712890625
0.9487499,7.738059997558594,-4.537012100219727,0.5003881454467773,5.523681640625,-1.678466796875,17.913818359375
0.9512499000000001,7.747636795043945,-4.517858505249023,0.4644751250743866,5.1422119140625,-1.3580322265625,18.0816650390625
0.9537499,7.762001991271973,-4.503493309020996,0.43095630407333374,4.974365234375,-0.9765625,18.0816650390625
0.9562499000000001,7.783549785614014,-4.486733913421631,0.40940847992897034,4.425048828125,-0.9765625,17.9901123046875
0.9587499,7.8098859786987305,-4.469974517822266,0.395043283700943,3.6773681640625,-0.6866455078125,18.00537109375
0.9612499,7.843404769897461,-4.446032524108887,0.38307225704193115,3.0517578125,-0.3204345703125,18.0816650390625
0.9637499,7.879317760467529,-4.426878929138184,0.3663128614425659,2.2125244140625,0.030517578125,18.096923828125
0.9662499,7.910442352294922,-4.400542736053467,0.33997663855552673,1.0986328125,0.4730224609375,18.157958984375
0.9687499,7.943961143493652,-4.378994941711426,0.304063618183136,0.091552734375,0.885009765625,17.9443359375
0.9712499,7.975085735321045,-4.355052947998047,0.24660277366638184,-0.9613037109375,1.5716552734375,17.822265625
0.9737499000000001,8.006210327148438,-4.32871675491333,0.181959331035614,-2.2430419921875,2.044677734375,17.6849365234375
0.9762499,8.039729118347168,-4.2975921630859375,0.11252748221158981,-3.7078857421875,2.5177001953125,17.608642578125
0.9787499000000001,8.075642585754395,-4.261679172515869,0.043095629662275314,-5.06591796875,3.0364990234375,17.15087890625
0.9812499,8.109161376953125,-4.223371982574463,-0.011971008032560349,-6.9122314453125,4.0740966796875,16.7694091796875
0.9837499000000001,8.14028549194336,-4.19224739074707,-0.05746084079146385,-8.8653564453125,4.669189453125,16.3116455078125
0.9862499,8.166622161865234,-4.168305397033691,-0.08140286058187485,-10.7269287109375,5.5694580078125,15.5792236328125
0.9887499000000001,8.188169479370117,-4.158728122711182,-0.0933738648891449,-12.4969482421875,6.561279296875,14.9383544921875
0.9912499,8.20492935180664,-4.170699596405029,-0.09576806426048279,-14.312744140625,7.38525390625,14.5263671875
0.9937499000000001,8.20732307434082,-4.201824188232422,-0.0933738648891449,-16.3116455078125,8.636474609375,13.9007568359375
0.9962499,8.195352554321289,-4.244919776916504,-0.0933738648891449,-17.8985595703125,9.5367431640625,13.336181640625
0.9987499000000001,8.17380428314209,-4.299986362457275,-0.09576806426048279,-19.4854736328125,10.498046875,12.8936767578125
1.0012499,8.135497093200684,-4.355052947998047,-0.09816227108240128,-21.026611328125,11.5814208984375,12.3138427734375
1.0037498999999999,8.094796180725098,-4.412513732910156,-0.10534487664699554,-22.39990234375,12.5274658203125,11.9476318359375
1.0062499,8.04691219329834,-4.474762916564941,-0.10773907601833344,-23.6358642578125,13.73291015625,11.688232421875
1.0087499,8.001421928405762,-4.54419469833374,-0.11013327538967133,-24.7802734375,14.8773193359375,11.1236572265625
1.0112499,7.9631147384643555,-4.6255974769592285,-0.10534487664699554,-25.32958984375,15.68603515625,11.1236572265625
1.0137498999999999,7.936778545379639,-4.704606533050537,-0.09576806426048279,-26.0467529296875,16.632080078125,10.7879638671875
1.0162499,7.922413349151611,-4.800374507904053,-0.07900865375995636,-26.7333984375,17.578125,10.7574462890625
1.0187499,7.920019149780273,-4.8937482833862305,-0.05985504388809204,-26.9622802734375,18.49365234375,10.80322265625
1.0212499,7.924807548522949,-4.99669885635376,-0.035913024097681046,-26.947021484375,19.317626953125,10.8489990234375
1.0237498999999999,7.931990146636963,-5.104437828063965,-0.011971008032560349,-26.55029296875,20.1873779296875,10.955810546875
1.0262498999999998,7.931990146636963,-5.2049946784973145,0.016759412363171577,-25.8331298828125,20.904541015625,11.3677978515625
1.0287499,7.91283655166626,-5.30076265335083,0.038307227194309235,-25.45166015625,21.8658447265625,11.4288330078125
1.0312499,7.884106159210205,-5.3797712326049805,0.06464344263076782,-24.5361328125,22.430419921875,11.7950439453125
1.0337498999999999,7.833827972412109,-5.446808815002441,0.090979665517807,-23.4222412109375,23.2391357421875,12.237548828125
1.0362498999999998,7.785943984985352,-5.501875400543213,0.11971008777618408,-22.2015380859375,23.9715576171875,12.8936767578125
1.0387499,7.745242595672607,-5.544970989227295,0.15322890877723694,-20.9197998046875,24.3377685546875,13.5040283203125
1.0412499,7.7213006019592285,-5.588066577911377,0.18914192914962769,-19.378662109375,24.7650146484375,14.1754150390625
1.0437499,7.7428483963012695,-5.669469833374023,0.2801215946674347,-16.0980224609375,25.7720947265625,15.8233642578125
1.0462498999999998,7.781155586242676,-5.717353820800781,0.33518823981285095,-14.2059326171875,26.1688232421875,16.876220703125
1.0487499,7.8314337730407715,-5.765237808227539,0.3902548849582672,-12.0086669921875,26.6571044921875,17.6544189453125
1.0512499,7.881711959838867,-5.810727596282959,0.45010992884635925,-9.58251953125,26.7791748046875,18.49365234375
1.0537499,7.922413349151611,-5.8442463874816895,0.5099649429321289,-7.3394775390625,27.1453857421875,19.59228515625
1.0562498999999999,7.948749542236328,-5.863399982452393,0.569819986820221,-5.0201416015625,27.252197265625,20.4925537109375
1.0587499,7.95832633972168,-5.863399982452393,0.6272808313369751,-2.7923583984375,27.3895263671875,21.4691162109375
1.0612499,7.953537940979004,-5.851428985595703,0.6751648783683777,-0.4119873046875,27.069091796875,22.4609375
1.0637499,7.94635534286499,-5.827486991882324,0.7086837291717529,1.6021728515625,27.1759033203125,23.3001708984375
1.0662498999999999,7.939172744750977,-5.803544998168945,0.7398083209991455,3.936767578125,26.91650390625,24.4293212890625
1.0687499,7.939172744750977,-5.770026206970215,0.7613561153411865,5.9051513671875,26.763916015625,25.665283203125
1.0712499,7.94635534286499,-5.736507415771484,0.7829039692878723,8.1024169921875,26.458740234375,26.5655517578125
1.0737499,7.960720539093018,-5.693411827087402,0.8092401623725891,10.19287109375,26.1077880859375,27.2369384765625
1.0762498999999999,7.982268333435059,-5.640739440917969,0.8307880163192749,12.1002197265625,25.57373046875,28.38134765625
1.0787499,8.018181800842285,-5.580883979797363,0.8475474119186401,13.73291015625,25.0396728515625,29.266357421875
1.0812499,8.061277389526367,-5.518634796142578,0.8571242094039917,15.2435302734375,24.8260498046875,30.1513671875
1.0837499,8.11634349822998,-5.453991413116455,0.8571242094039917,16.510009765625,24.3682861328125,30.70068359375
1.0862498999999999,8.176198959350586,-5.389348030090332,0.8571242094039917,17.6849365234375,23.681640625,31.5704345703125
1.0887499,8.243236541748047,-5.327098846435547,0.8571242094039917,18.6309814453125,23.040771484375,32.0892333984375
1.0912499,8.307879447937012,-5.262455463409424,0.8690952062606812,19.4244384765625,22.247314453125,32.5164794921875
1.0937499,8.377311706542969,-5.2049946784973145,0.8834604024887085,20.0653076171875,21.636962890625,32.89794921875
1.0962498999999999,8.439560890197754,-5.147533416748047,0.9169792532920837,20.20263671875,21.2554931640625,33.14208984375
1.0987498999999998,8.497021675109863,-5.099649429321289,0.9433154463768005,20.32470703125,20.5078125,33.172607421875
1.1012499,8.542511940002441,-5.056553840637207,0.9744400978088379,20.294189453125,19.6990966796875,33.26416015625
1.1037499,8.578424453735352,-5.013458251953125,0.9983820915222168,20.01953125,19.0277099609375,33.4014892578125
1.1062499,8.607154846191406,-4.965574264526367,1.01753568649292,19.47021484375,18.3258056640625,33.355712890625
1.1087498999999998,8.633491516113281,-4.920084476470947,1.0295066833496094,19.012451171875,17.5933837890625,33.355712890625
1.1112499,8.662221908569336,-4.874594688415527,1.036689281463623,18.035888671875,16.754150390625,33.0657958984375
1.1137499,8.686163902282715,-4.841075897216797,1.036689281463623,16.876220703125,15.9149169921875,32.8216552734375
1.1162499,8.719682693481445,-4.812345504760742,1.0319008827209473,15.6097412109375,15.0299072265625,32.4554443359375
1.1187498999999999,8.7484130859375,-4.797980308532715,1.0319008827209473,14.16015625,14.70947265625,32.3028564453125
1.1212499,8.78432559967041,-4.790797710418701,1.0319008827209473,12.8173828125,14.0838623046875,32.012939453125
1.1237499,8.815450668334961,-4.790797710418701,1.0342950820922852,10.9405517578125,13.12255859375,31.585693359375
1.1262499,8.844181060791016,-4.800374507904053,1.0414776802062988,9.124755859375,12.6190185546875,30.975341796875
1.1287498999999999,8.863334655761719,-4.807557106018066,1.0582371950149536,7.2784423828125,11.8865966796875,30.4107666015625
1.1312499,8.877699851989746,-4.819528102874756,1.0845733880996704,5.096435546875,11.3067626953125,29.937744140625
1.1337499,8.89685344696045,-4.8267107009887695,1.1228805780410767,2.9449462890625,10.5438232421875,29.4647216796875
1.1362499,8.920795440673828,-4.841075897216797,1.1683704853057861,0.9765625,10.2386474609375,28.656005859375
1.1387498999999999,8.954314231872559,-4.869806289672852,1.2234370708465576,-1.2359619140625,9.613037109375,28.045654296875
1.1412499,8.990227699279785,-4.912901878356934,1.2856862545013428,-3.387451171875,8.941650390625,27.496337890625
1.1437499,9.026140213012695,-4.975151062011719,1.3551181554794312,-5.4473876953125,8.636474609375,26.7333984375
1.1462499,9.05247688293457,-5.056553840637207,1.4197616577148438,-7.1258544921875,8.1787109375,25.909423828125
1.1487498999999999,9.07641887664795,-5.145139217376709,1.4772224426269531,-8.7738037109375,7.5225830078125,25.2685546875
1.1512499,9.093177795410156,-5.231330871582031,1.522712230682373,-10.467529296875,7.1563720703125,24.4293212890625
1.1537499,9.105149269104004,-5.315127849578857,1.5514427423477173,-12.39013671875,6.8206787109375,23.6663818359375
1.1562499,9.11233139038086,-5.39174222946167,1.577778935432434,-13.61083984375,6.53076171875,22.94921875
1.1587498999999999,9.114726066589355,-5.475539207458496,1.599326729774475,-14.9993896484375,6.2255859375,21.9879150390625
1.1612498999999998,9.114726066589355,-5.5545477867126465,1.6304513216018677,-16.143798828125,5.9814453125,21.1639404296875
1.1637499,9.107542991638184,-5.6455278396606445,1.6615760326385498,-17.08984375,5.4168701171875,20.4925537109375
1.1662499,9.102754592895508,-5.731719017028809,1.7046716213226318,-17.9443359375,5.1422119140625,19.6380615234375
1.1687499,9.097966194152832,-5.825092792510986,1.7405846118927002,-18.5546875,4.94384765625,18.9361572265625
1.1712498999999998,9.083600997924805,-5.92325496673584,1.7764976024627686,-19.1650390625,4.4403076171875,18.1427001953125
1.1737499,9.069235801696777,-6.026205539703369,1.8052281141281128,-19.3939208984375,4.1961669921875,17.4560546875
1.1762499,9.040505409240723,-6.121973514556885,1.8291701078414917,-19.287109375,3.936767578125,16.693115234375
1.1787499,9.016563415527344,-6.212953567504883,1.8507179021835327,-18.9208984375,3.6163330078125,15.8843994140625
1.1812498999999999,8.990227699279785,-6.296750545501709,1.8722656965255737,-18.524169921875,3.0517578125,15.106201171875
1.1837499,8.968679428100586,-6.370970726013184,1.8914192914962769,-18.00537109375,2.8228759765625,14.2364501953125
1.1862499,8.947132110595703,-6.440402507781982,1.9105730056762695,-17.4713134765625,2.3956298828125,13.7481689453125
1.1887499,8.925583839416504,-6.502651691436768,1.9249382019042969,-16.693115234375,2.2430419921875,12.7105712890625
1.1912498999999999,8.904036521911621,-6.560112476348877,1.9297266006469727,-15.838623046875,1.9073486328125,11.7645263671875
1.1937499,8.882488250732422,-6.615179061889648,1.9297266006469727,-14.7705078125,1.2664794921875,11.1236572265625
1.1962499,8.865729331970215,-6.66785192489624,1.9273324012756348,-13.5498046875,1.0223388671875,10.467529296875
1.1987499,8.848969459533691,-6.722918510437012,1.922544002532959,-12.14599609375,0.7171630859375,9.7808837890625
1.2012498999999999,8.834604263305664,-6.780379295349121,1.920149803161621,-10.8184814453125,0.54931640625,9.1552734375
1.2037499,8.825027465820312,-6.825869083404541,1.9177556037902832,-9.765625,0.213623046875,8.4075927734375
1.2062499,8.820239067077637,-6.871358871459961,1.9177556037902832,-8.2550048828125,0.030517578125,7.62939453125
1.2087499,8.81784439086914,-6.897695064544678,1.9153614044189453,-6.7138671875,-0.2899169921875,7.110595703125
1.2112498999999999,8.820239067077637,-6.916848659515381,1.9177556037902832,-5.3253173828125,-0.6103515625,6.561279296875
1.2137499,8.825027465820312,-6.926425457000732,1.9177556037902832,-3.875732421875,-0.91552734375,6.04248046875
1.2162499,8.825027465820312,-6.92881965637207,1.9153614044189453,-2.4261474609375,-1.190185546875,5.4931640625
1.2187499,8.815450668334961,-6.921637058258057,1.9105730056762695,-1.0833740234375,-1.40380859375,4.974365234375
1.2212498999999999,8.793902397155762,-6.907271862030029,1.8986018896102905,0.213623046875,-1.64794921875,4.3487548828125
1.2237498999999998,8.757989883422852,-6.8809356689453125,1.8842366933822632,1.5716552734375,-1.6937255859375,3.9215087890625
1.2262499,8.712499618530273,-6.847416877746582,1.8602946996688843,2.8076171875,-1.89208984375,3.5400390625
1.2287499,8.669404029846191,-6.799532890319824,1.8363527059555054,3.7994384765625,-2.3956298828125,2.86865234375
1.2312499,8.621520042419434,-6.7492547035217285,1.800439715385437,4.913330078125,-2.44140625,2.197265625
1.2337498999999998,8.583212852478027,-6.698976516723633,1.7621324062347412,5.8441162109375,-2.8533935546875,1.800537109375
1.2362499,8.547300338745117,-6.643909931182861,1.723825216293335,6.9122314453125,-3.2501220703125,1.220703125
1.2387499,8.516175270080566,-6.5912370681762695,1.6855180263519287,8.0413818359375,-3.4942626953125,0.640869140625
1.2412499,8.489839553833008,-6.536170482635498,1.6496049165725708,8.7890625,-3.753662109375,0.1220703125
1.2437498999999999,8.461109161376953,-6.476315498352051,1.6112977266311646,9.5062255859375,-4.21142578125,-0.244140625
1.2462499,8.439560890197754,-6.418854713439941,1.5705963373184204,10.467529296875,-4.1046142578125,-0.8087158203125
1.2487499,8.418013572692871,-6.354211330413818,1.525106430053711,10.955810546875,-4.5623779296875,-1.28173828125
1.2512499,8.398859977722168,-6.2847795486450195,1.4772224426269531,11.383056640625,-5.218505859375,-1.7852783203125
1.2537498999999999,8.370129585266113,-6.133944988250732,1.3862427473068237,11.77978515625,-5.9661865234375,-2.6092529296875
1.2562499,8.360552787780762,-6.054935932159424,1.3455413579940796,11.7950439453125,-6.195068359375,-3.2196044921875
1.2587499,8.343792915344238,-5.983109951019287,1.314416766166687,11.7950439453125,-6.53076171875,-3.7994384765625
1.2612499,8.324639320373535,-5.916072368621826,1.2880805730819702,11.5814208984375,-6.9580078125,-4.150390625
1.2637498999999999,8.307879447937012,-5.8442463874816895,1.259350061416626,11.4288330078125,-7.2784423828125,-4.2266845703125
1.2662499,8.291120529174805,-5.78678560256958,1.2306196689605713,11.2762451171875,-7.6141357421875,-4.5318603515625
1.2687499,8.279149055480957,-5.731719017028809,1.1971008777618408,10.589599609375,-7.87353515625,-5.0811767578125
1.2712499,8.26478385925293,-5.688623428344727,1.1683704853057861,10.528564453125,-8.087158203125,-5.3253173828125
1.2737498999999999,8.236053466796875,-5.640739440917969,1.1468225717544556,10.1470947265625,-8.3465576171875,-5.5999755859375
1.2762499,8.20732307434082,-5.5976433753967285,1.1276689767837524,9.552001953125,-8.72802734375,-5.9814453125
1.2787499,8.166622161865234,-5.556941986083984,1.1085153818130493,8.8958740234375,-9.1094970703125,-6.28662109375
1.2812499,8.125920295715332,-5.5114521980285645,1.0869675874710083,8.209228515625,-9.307861328125,-6.561279296875
1.2837498999999999,8.08043098449707,-5.477933406829834,1.0582371950149536,7.4920654296875,-9.5062255859375,-6.9427490234375
1.2862498999999998,8.044517517089844,-5.442020416259766,1.0295066833496094,6.89697265625,-9.8724365234375,-6.9427490234375
1.2887499,8.018181800842285,-5.418078422546387,0.9959878921508789,6.256103515625,-10.0250244140625,-7.080078125
1.2912499,8.006210327148438,-5.396530628204346,0.9744400978088379,5.5999755859375,-10.2691650390625,-7.2174072265625
1.2937499,8.003816604614258,-5.3797712326049805,0.9528923034667969,5.157470703125,-10.6048583984375,-7.4920654296875
1.2962498999999998,8.006210327148438,-5.370194435119629,0.9385270476341248,4.69970703125,-10.9405517578125,-7.6446533203125
1.2987499,8.008605003356934,-5.355829238891602,0.9289502501487732,4.1351318359375,-11.1083984375,-7.843017578125
1.3012499,8.010998725891113,-5.351040840148926,0.9265560507774353,3.570556640625,-11.4288330078125,-7.904052734375
1.3037499,8.015787124633789,-5.34625244140625,0.9313444495201111,3.021240234375,-11.5966796875,-7.965087890625
1.3062498999999999,8.022970199584961,-5.353435039520264,0.9457096457481384,2.9144287109375,-11.71875,-8.1024169921875
1.3087499,8.034940719604492,-5.363011837005615,0.9672574996948242,2.716064453125,-11.688232421875,-7.87353515625
1.3112499,8.051700592041016,-5.374982833862305,0.9888052940368652,2.38037109375,-12.0391845703125,-7.8887939453125
1.3137499,8.078036308288574,-5.389348030090332,1.0055646896362305,2.532958984375,-12.1307373046875,-7.8582763671875
1.3162498999999999,8.111555099487305,-5.396530628204346,1.0199298858642578,2.593994140625,-12.2222900390625,-7.75146484375
1.3187499,8.147468566894531,-5.4013190269470215,1.0319008827209473,2.410888671875,-12.4053955078125,-7.7362060546875
1.3212499,8.178592681884766,-5.406107425689697,1.05105459690094,2.4871826171875,-12.0697021484375,-7.7056884765625
1.3237499,8.209717750549316,-5.408501625061035,1.0797849893569946,2.4566650390625,-12.1917724609375,-7.75146484375
1.3262498999999999,8.236053466796875,-5.415684223175049,1.113303780555725,2.5787353515625,-12.1307373046875,-7.7056884765625
1.3287499,8.257601737976074,-5.427655220031738,1.1468225717544556,3.11279296875,-12.0697021484375,-7.4005126953125
1.3312499,8.276755332946777,-5.446808815002441,1.173158884048462,3.5247802734375,-12.0849609375,-7.4310302734375
1.3337499,8.281543731689453,-5.4659624099731445,1.1899182796478271,3.8909912109375,-12.0391845703125,-7.293701171875
1.3362498999999999,8.279149055480957,-5.494692802429199,1.2042834758758545,4.21142578125,-11.871337890625,-7.080078125
1.3387499,8.274360656738281,-5.521028995513916,1.2066776752471924,4.9591064453125,-11.6729736328125,-6.927490234375
1.3412499,8.252813339233398,-5.544970989227295,1.213860273361206,5.55419921875,-11.65771484375,-6.9122314453125
1.3437499,8.2312650680542,-5.566518783569336,1.2090718746185303,6.2713623046875,-11.627197265625,-6.6070556640625
1.3462498999999999,8.20492935180664,-5.590460777282715,1.2114660739898682,7.049560546875,-11.41357421875,-6.195068359375
1.3487498999999998,8.17141056060791,-5.612008571624756,1.2114660739898682,7.9345703125,-11.383056640625,-6.103515625
1.3512499,8.135497093200684,-5.635950565338135,1.2018892765045166,8.636474609375,-11.199951171875,-5.6304931640625
1.3537499,8.109161376953125,-5.65031623840332,1.192312479019165,9.3536376953125,-11.2457275390625,-5.4473876953125
1.3562499,8.085219383239746,-5.6670756340026855,1.1779472827911377,10.3607177734375,-10.986328125,-5.401611328125
1.3587498999999998,8.073247909545898,-5.669469833374023,1.161187767982483,11.0626220703125,-10.7574462890625,-5.18798828125
1.3612499,8.063671112060547,-5.671864032745361,1.1516109704971313,11.932373046875,-10.80322265625,-4.730224609375
1.3637499,8.04930591583252,-5.669469833374023,1.1468225717544556,12.725830078125,-10.7879638671875,-4.8370361328125
1.3662499,8.030152320861816,-5.652710437774658,1.139639973640442,13.671875,-10.68115234375,-4.8828125
1.3687498999999999,8.015787124633789,-5.633556365966797,1.137245774269104,14.3280029296875,-10.711669921875,-4.6234130859375
1.3712499,8.003816604614258,-5.600037574768066,1.1324573755264282,14.9688720703125,-10.650634765625,-4.57763671875
1.3737499,8.008605003356934,-5.56173038482666,1.1348515748977661,15.7928466796875,-10.6353759765625,-4.730224609375
1.3762499,8.022970199584961,-5.518634796142578,1.139639973640442,16.29638671875,-10.650634765625,-4.608154296875
1.3787498999999999,8.034940719604492,-5.480327606201172,1.1468225717544556,16.7083740234375,-10.55908203125,-4.791259765625
1.3812499,8.04930591583252,-5.451597213745117,1.1563993692398071,17.2576904296875,-10.4827880859375,-4.9591064453125
1.3837499,8.058882713317871,-5.439626216888428,1.1659762859344482,17.730712890625,-10.55908203125,-4.9591064453125
1.3862499,8.066065788269043,-5.432443618774414,1.1779472827911377,17.913818359375,-10.223388671875,-5.1422119140625
1.3887498999999999,8.073247909545898,-5.434837818145752,1.192312479019165,18.2647705078125,-10.040283203125,-5.279541015625
1.3912499,8.073247909545898,-5.4252610206604,1.2042834758758545,18.646240234375,-10.1776123046875,-5.279541015625
1.3937499,8.070854187011719,-5.415684223175049,1.2090718746185303,18.9666748046875,-10.040283203125,-5.2642822265625
1.3962499,8.061277389526367,-5.403713226318359,1.2114660739898682,19.0887451171875,-9.82666015625,-5.2032470703125
1.3987498999999999,8.04930591583252,-5.389348030090332,1.1994950771331787,19.0582275390625,-9.82666015625,-5.340576171875
1.4012499,8.042123794555664,-5.386953830718994,1.192312479019165,19.0887451171875,-9.7198486328125,-5.4779052734375
1.4037499,8.027758598327637,-5.384559631347656,1.1851298809051514,19.2108154296875,-9.6893310546875,-5.4168701171875
1.4062499,8.015787124633789,-5.394136428833008,1.1803414821624756,19.3023681640625,-9.7808837890625,-5.340576171875
1.4087498999999999,8.001421928405762,-5.39174222946167,1.1779472827911377,19.47021484375,-9.8114013671875,-5.2490234375
1.4112498999999998,7.9846625328063965,-5.394136428833008,1.1779472827911377,19.22607421875,-9.6435546875,-5.3863525390625
1.4137499,7.965508937835693,-5.377377033233643,1.1779472827911377,19.3328857421875,-9.521484375,-5.218505859375
1.4162499,7.955932140350342,-5.370194435119629,1.1779472827911377,19.3023681640625,-9.5977783203125,-5.126953125
1.4187499,7.951143741607666,-5.360617637634277,1.1803414821624756,18.85986328125,-9.6893310546875,-5.0048828125
1.4212498999999998,7.95832633972168,-5.360617637634277,1.1803414821624756,18.798828125,-9.4146728515625,-4.913330078125
1.4237499,7.970297336578369,-5.365406036376953,1.1875240802764893,18.8140869140625,-9.21630859375,-4.7607421875
1.4262499,7.9846625328063965,-5.377377033233643,1.1994950771331787,18.7530517578125,-9.033203125,-4.7149658203125
1.4287499,7.996633529663086,-5.39174222946167,1.2090718746185303,18.768310546875,-8.880615234375,-4.547119140625
1.4312498999999999,7.999027729034424,-5.406107425689697,1.2234370708465576,18.5546875,-9.033203125,-4.5623779296875
1.4337499,7.987056732177734,-5.410895824432373,1.2234370708465576,18.2342529296875,-8.8958740234375,-4.486083984375
1.4362499,7.970297336578369,-5.410895824432373,1.2306196689605713,18.1121826171875,-8.8958740234375,-4.5166015625
1.4387499,7.936778545379639,-5.406107425689697,1.2330138683319092,17.791748046875,-8.6212158203125,-4.5013427734375
1.4412498999999999,7.905653953552246,-5.408501625061035,1.2425906658172607,17.5018310546875,-8.544921875,-4.3792724609375
1.4437499,7.872135162353516,-5.418078422546387,1.2545616626739502,17.4560546875,-8.331298828125,-4.3182373046875
1.4462499,7.85537576675415,-5.432443618774414,1.2641384601593018,17.1051025390625,-7.99560546875,-4.2724609375
1.4487499,7.841010570526123,-5.4444146156311035,1.2713210582733154,16.9830322265625,-7.8887939453125,-4.2266845703125
1.4512498999999999,7.836222171783447,-5.456385612487793,1.280897855758667,16.9677734375,-8.026123046875,-4.241943359375
1.4537499,7.836222171783447,-5.47075080871582,1.290474772453308,16.998291015625,-7.6904296875,-4.058837890625
1.4562499,7.833827972412109,-5.4875102043151855,1.3024457693099976,16.8304443359375,-7.4920654296875,-4.058837890625
1.4587499,7.826645374298096,-5.504269599914551,1.314416766166687,16.9219970703125,-7.415771484375,-4.0130615234375
1.4612498999999999,7.819462776184082,-5.523423194885254,1.3192051649093628,16.9830322265625,-7.4005126953125,-3.7078857421875
1.4637499,7.793126583099365,-5.559336185455322,1.316810965538025,17.0135498046875,-7.4462890625,-3.570556640625
1.4662499,7.769184589385986,-5.5760955810546875,1.3096283674240112,16.9525146484375,-7.32421875,-3.204345703125
1.4687499,7.735665798187256,-5.592854976654053,1.2976573705673218,17.1966552734375,-7.568359375,-2.99072265625
1.4712498999999999,7.692570209503174,-5.60722017288208,1.2832920551300049,17.181396484375,-7.4310302734375,-3.11279296875
1.4737498999999998,7.632715225219727,-5.623979568481445,1.2641384601593018,17.4102783203125,-7.2174072265625,-2.74658203125
1.4762499,7.572859764099121,-5.631162166595459,1.2401964664459229,17.578125,-7.1563720703125,-2.4261474609375
1.4787499,7.513004779815674,-5.638344764709473,1.2186486721038818,17.425537109375,-7.354736328125,-2.2735595703125
1.4812499,7.4555439949035645,-5.635950565338135,1.1971008777618408,17.4407958984375,-7.6141357421875,-1.9683837890625
1.4837498999999998,7.407660007476807,-5.631162166595459,1.1827356815338135,17.6239013671875,-7.6141357421875,-1.6021728515625
1.4862499,7.362170219421387,-5.621585369110107,1.1755530834197998,17.6849365234375,-7.7056884765625,-1.2664794921875
1.4887499,7.321468830108643,-5.609614372253418,1.1659762859344482,17.5628662109375,-7.62939453125,-1.1444091796875
1.4912499,7.2783732414245605,-5.590460777282715,1.158793568611145,17.608642578125,-7.781982421875,-0.8087158203125
1.4937498999999999,7.237671852111816,-5.57370138168335,1.1492167711257935,17.486572265625,-7.9345703125,-0.762939453125
1.4962499,7.19936466217041,-5.552153587341309,1.1348515748977661,17.364501953125,-7.9803466796875,-0.396728515625
1.4987499,7.163451671600342,-5.540182590484619,1.1204863786697388,17.51708984375,-8.11767578125,-0.1373291015625
1.5012499,7.132327079772949,-5.5329999923706055,1.1013327836990356,17.39501953125,-8.0108642578125,0.0762939453125
1.5037498999999999,7.094019412994385,-5.530605792999268,1.0869675874710083,17.3797607421875,-8.2244873046875,0.518798828125
1.5062499,7.053318023681641,-5.525817394256592,1.0678139925003052,17.4102783203125,-8.1787109375,0.91552734375
1.5087499,7.003039836883545,-5.506663799285889,1.0438719987869263,17.242431640625,-8.2244873046875,1.3275146484375
1.5112499,6.950367450714111,-5.4875102043151855,1.01753568649292,16.9525146484375,-8.453369140625,1.6326904296875
1.5137498999999999,6.89530086517334,-5.453991413116455,0.9911994934082031,16.6473388671875,-8.4228515625,1.983642578125
1.5162499,6.854599475860596,-5.43723201751709,0.9624691009521484,16.4642333984375,-8.7890625,2.5634765625
1.5187499,6.821080684661865,-5.430049419403076,0.9433154463768005,16.3421630859375,-8.8043212890625,3.021240234375
1.5212499,6.799532890319824,-5.432443618774414,0.9289502501487732,16.2811279296875,-8.6212158203125,3.387451171875
1.5237498999999999,6.777985095977783,-5.427655220031738,0.9169792532920837,16.05224609375,-8.5906982421875,3.7384033203125
1.5262499,6.761225700378418,-5.418078422546387,0.9145850539207458,15.56396484375,-8.575439453125,4.364013671875
1.5287499,6.742072105407715,-5.394136428833008,0.9050082564353943,15.2435302734375,-8.7738037109375,5.1727294921875
1.5312499,6.730101108551025,-5.363011837005615,0.8954314589500427,14.984130859375,-8.85009765625,5.523681640625
1.5337498999999999,6.722918510437012,-5.341464042663574,0.8762778043746948,14.5416259765625,-8.5296630859375,5.9967041015625
1.5362499,6.722918510437012,-5.3127336502075195,0.8595184087753296,14.5111083984375,-8.3465576171875,6.805419921875
1.5387499,6.722918510437012,-5.295974254608154,0.8307880163192749,14.190673828125,-8.1329345703125,7.3089599609375
1.5412499,6.722918510437012,-5.272032260894775,0.8164227604866028,13.580322265625,-7.9498291015625,7.8887939453125
1.5437499,6.722918510437012,-5.250484466552734,0.7924807667732239,13.092041015625,-8.1329345703125,8.5601806640625
1.5462498999999998,6.710947513580322,-5.231330871582031,0.7757213711738586,12.5274658203125,-7.720947265625,9.4757080078125
1.5487499,6.703764915466309,-5.212177276611328,0.7565677165985107,12.176513671875,-7.3394775390625,9.9945068359375
1.5512499,6.682217121124268,-5.195417881011963,0.7374141216278076,11.77978515625,-7.080078125,10.955810546875
1.5537499,6.660669326782227,-5.17626428604126,0.7134721279144287,11.138916015625,-6.6680908203125,11.71875
1.5562498999999999,6.63433313369751,-5.157110691070557,0.6871358752250671,10.711669921875,-6.34765625,12.4359130859375
1.5587499,6.603208065032959,-5.137956619262695,0.6560112833976746,10.406494140625,-6.0272216796875,13.5345458984375
1.5612499,6.574477672576904,-5.118803024291992,0.6248866319656372,9.8876953125,-5.7525634765625,14.2974853515625
1.5637499,6.540958881378174,-5.099649429321289,0.5937620401382446,9.27734375,-5.706787109375,15.2435302734375
1.5662498999999999,6.512228488922119,-5.082890033721924,0.5650315880775452,8.48388671875,-5.3253173828125,16.2353515625
1.5687499,6.476315498352051,-5.063736438751221,0.5291185975074768,8.1329345703125,-4.7760009765625,17.02880859375
1.5712499,6.435614109039307,-5.051765441894531,0.49799394607543945,7.598876953125,-4.6844482421875,17.9443359375
1.5737499,6.387730121612549,-5.032611846923828,0.4692635238170624,7.049560546875,-4.2572021484375,19.10400390625
1.5762498999999999,6.335057735443115,-5.015852451324463,0.4429273009300232,6.34765625,-4.1656494140625,20.1263427734375
1.5787499,6.275202751159668,-4.99669885635376,0.4189853072166443,5.889892578125,-3.7841796875,21.1181640625
1.5812499,6.224924564361572,-4.989516258239746,0.3926490843296051,5.55419921875,-3.6163330078125,22.3236083984375
1.5837499,6.169857978820801,-4.991910457611084,0.35673606395721436,5.18798828125,-3.3111572265625,23.2696533203125
1.5862498999999999,6.124367713928223,-5.006275653839111,0.31603461503982544,5.0201416015625,-2.899169921875,24.2462158203125
1.5887499,6.074089527130127,-5.008669853210449,0.26336219906806946,4.8370361328125,-2.838134765625,25.6805419921875
1.5912499,6.023811340332031,-5.008669853210449,0.20350714027881622,4.2266845703125,-2.838134765625,26.8707275390625
1.5937499,5.961562156677246,-4.999093055725098,0.14604631066322327,3.4942626953125,-3.0670166015625,28.350830078125
1.5962498999999999,5.894524574279785,-4.989516258239746,0.08619125932455063,3.2501220703125,-2.9144287109375,29.632568359375
1.5987499,5.815515995025635,-4.989516258239746,0.033518824726343155,2.9754638671875,-2.99072265625,30.7769775390625
1.6012499,5.722142219543457,-4.994304656982422,-0.019153613597154617,2.74658203125,-3.1890869140625,32.28759765625
1.6037499,5.616796970367432,-4.99669885635376,-0.07900865375995636,2.50244140625,-3.570556640625,34.0576171875
1.6062499,5.494692802429199,-4.994304656982422,-0.14604631066322327,2.13623046875,-4.058837890625,35.6903076171875
1.6087498999999998,5.360617637634277,-4.982333660125732,-0.2298433631658554,1.495361328125,-3.96728515625,37.2161865234375
1.6112499,5.212177276611328,-4.960785865783691,-0.31603461503982544,1.2359619140625,-4.4097900390625,39.00146484375
1.6137499,5.054159641265869,-4.932055473327637,-0.40940847992897034,0.6561279296875,-5.0048828125,40.985107421875
1.6162499,4.891354084014893,-4.903325080871582,-0.4908113479614258,-0.0152587890625,-5.279541015625,42.8466796875
1.6187498999999999,4.728548526763916,-4.869806289672852,-0.5722141861915588,-0.640869140625,-5.79833984375,44.708251953125
1.6212499,4.572925090789795,-4.836287498474121,-0.6560112833976746,-1.3427734375,-6.34765625,46.9207763671875
1.6237499,4.414907932281494,-4.795586109161377,-0.7469909191131592,-2.0904541015625,-7.0037841796875,49.3316650390625
1.6262499,4.259284973144531,-4.7405195236206055,-0.8427590131759644,-3.0059814453125,-7.537841796875,51.239013671875
1.6287498999999999,4.094084739685059,-4.67827033996582,-0.950498104095459,-3.8604736328125,-8.331298828125,53.6651611328125
1.6312499,3.93367338180542,-4.608838081359863,-1.0678139925003052,-4.7760009765625,-9.307861328125,56.1065673828125
1.6337499,3.773261785507202,-4.534617900848389,-1.1994950771331787,-5.6610107421875,-9.979248046875,58.77685546875
1.6362499,3.6080620288848877,-4.455609321594238,-1.3407529592514038,-6.8359375,-10.55908203125,61.4471435546875
1.6387498999999999,3.4596214294433594,-4.37420654296875,-1.4963760375976562,-8.2244873046875,-11.5814208984375,64.3768310546875
1.6412499,3.313575267791748,-4.28322696685791,-1.6496049165725708,-9.857177734375,-12.2222900390625,67.2454833984375
1.6437499,3.179499864578247,-4.1874589920043945,-1.8052281141281128,-11.7340087890625,-12.847900390625,70.1141357421875
1.6462499,3.071760892868042,-4.098873138427734,-1.9393033981323242,-13.61083984375,-13.85498046875,73.3489990234375
1.6487498999999999,2.9735984802246094,-4.003105163574219,-2.0661959648132324,-15.6707763671875,-14.34326171875,76.7974853515625
1.6512499,2.894589900970459,-3.9264907836914062,-2.166752576828003,-17.8680419921875,-14.984130859375,80.078125
1.6537499,2.8203697204589844,-3.8546648025512695,-2.2601263523101807,-20.2789306640625,-15.93017578125,83.5723876953125
1.6562499,2.7437551021575928,-3.7828385829925537,-2.3511061668395996,-22.94921875,-16.6778564453125,86.8377685546875
1.6587498999999999,2.6599581241607666,-3.7205893993377686,-2.4396915435791016,-25.7415771484375,-17.425537109375,90.2099609375
1.6612499,2.5737667083740234,-3.663128614425659,-2.5450363159179688,-28.74755859375,-17.8985595703125,93.963623046875
1.6637499,2.47560453414917,-3.603273630142212,-2.650381326675415,-31.73828125,-18.4173583984375,97.5341796875
1.6662499,2.38462495803833,-3.5625722408294678,-2.7772738933563232,-34.912109375,-19.0887451171875,101.13525390625
1.6687499,2.2888567447662354,-3.5266590118408203,-2.9041666984558105,-38.4521484375,-19.5465087890625,104.827880859375
1.6712498999999998,2.205059766769409,-3.512293815612793,-3.0382418632507324,-42.1905517578125,-19.95849609375,108.642578125
1.6737499,2.054224967956543,-3.5266590118408203,-3.2992098331451416,-49.7894287109375,-20.782470703125,115.9210205078125
1.6762499,1.987187385559082,-3.555389642715454,-3.4332852363586426,-53.64990234375,-21.05712890625,119.68994140625
1.6787499,1.9177556037902832,-3.5889084339141846,-3.5649664402008057,-57.18994140625,-21.453857421875,123.382568359375
1.6812498999999999,1.8363527059555054,-3.6343982219696045,-3.7038300037384033,-61.2335205078125,-21.6827392578125,127.105712890625
1.6837499,1.7381904125213623,-3.691859006881714,-3.84269380569458,-65.0787353515625,-21.9573974609375,130.7830810546875
1.6862499,1.623268723487854,-3.751713991165161,-3.993528366088867,-69.122314453125,-22.064208984375,134.46044921875
1.6887499,1.4963760375976562,-3.8331170082092285,-4.153939723968506,-73.42529296875,-22.3388671875,138.1072998046875
1.6912498999999999,1.3551181554794312,-3.9169139862060547,-4.32871675491333,-77.4993896484375,-22.369384765625,141.8914794921875
1.6937499,1.2066776752471924,-4.02465295791626,-4.501099109649658,-81.7413330078125,-22.308349609375,145.5078125
1.6962499,1.0438719987869263,-4.151545524597168,-4.675876140594482,-85.87646484375,-22.491455078125,149.10888671875
1.6987499,0.8834604024887085,-4.2951979637146,-4.841075897216797,-90.0421142578125,-22.3388671875,153.1982421875
1.7012498999999999,0.7182605266571045,-4.46518611907959,-5.003881454467773,-94.451904296875,-22.247314453125,157.3944091796875
1.7037499,0.5530605912208557,-4.639962673187256,-5.161899089813232,-98.8311767578125,-22.3846435546875,161.3006591796875
1.7062499,0.3926490843296051,-4.817133903503418,-5.322310447692871,-103.33251953125,-22.4761962890625,165.6036376953125
1.7087499,0.2322375625371933,-4.991910457611084,-5.48272180557251,-107.696533203125,-22.27783203125,169.9981689453125
1.7112498999999999,0.07182604819536209,-5.171475887298584,-5.652710437774658,-111.87744140625,-22.0489501953125,174.4537353515625
1.7137499,-0.07900865375995636,-5.360617637634277,-5.829881191253662,-115.8905029296875,-21.697998046875,178.77197265625
1.7162499,-0.2346317619085312,-5.568912982940674,-6.007051944732666,-119.781494140625,-21.728515625,183.1207275390625
1.7187499,-0.38546648621559143,-5.781997203826904,-6.174646377563477,-123.1231689453125,-21.759033203125,187.56103515625
1.7212498999999999,-0.5410895943641663,-6.01423454284668,-6.325480937957764,-126.7547607421875,-21.270751953125,192.3980712890625
1.7237499,-0.6871358752250671,-6.246472358703613,-6.45476770401001,-130.4779052734375,-20.93505859375,197.0367431640625
1.7262499,-0.8259995579719543,-6.4834980964660645,-6.5696892738342285,-133.85009765625,-20.7977294921875,201.72119140625
1.7287499,-0.9457096457481384,-6.715735912322998,-6.675034523010254,-137.1307373046875,-20.4620361328125,207.061767578125
1.7312499,-1.048660397529602,-6.9455790519714355,-6.777985095977783,-140.4266357421875,-20.172119140625,212.09716796875
1.7337498999999998,-1.139639973640442,-7.177816867828369,-6.892906665802002,-143.8140869140625,-19.5465087890625,217.5445556640625
1.7362499,-1.213860273361206,-7.407660007476807,-7.01979923248291,-146.881103515625,-18.98193359375,223.14453125
1.7387499,-1.280897855758667,-7.647080421447754,-7.156269073486328,-150.57373046875,-18.37158203125,228.7750244140625
1.7412499,-1.3407529592514038,-7.884106159210205,-7.299921035766602,-153.9154052734375,-17.669677734375,234.405517578125
1.7437498999999999,-1.3958195447921753,-8.13789176940918,-7.453149795532227,-157.3028564453125,-17.2271728515625,240.5548095703125
1.7462499,-1.4413094520568848,-8.391676902770996,-7.601590633392334,-160.308837890625,-16.6778564453125,246.5972900390625
1.7487499,-1.4724340438842773,-8.669404029846191,-7.750030994415283,-163.1622314453125,-15.8538818359375,252.8076171875
1.7512499,-1.4867992401123047,-8.956708908081055,-7.881711959838867,-165.9088134765625,-15.1519775390625,258.819580078125
1.7537498999999999,-1.479616641998291,-9.253589630126953,-7.994239330291748,-168.2586669921875,-14.70947265625,265.0909423828125
1.7562499,-1.4484920501708984,-9.567230224609375,-8.10437297821045,-170.9747314453125,-14.22119140625,270.9503173828125
1.7587499,-1.4101848602294922,-9.861717224121094,-8.212111473083496,-173.553466796875,-13.18359375,276.7486572265625
1.7612499,-1.3527239561080933,-10.165780067443848,-8.334216117858887,-176.26953125,-12.4053955078125,282.9742431640625
1.7637498999999999,-1.3096283674240112,-10.44350814819336,-8.463502883911133,-178.5736083984375,-11.7340087890625,288.970947265625
1.7662499,-1.2641384601593018,-10.721235275268555,-8.611943244934082,-181.1676025390625,-10.833740234375,294.73876953125
1.7687499,-1.2090718746185303,-10.975020408630371,-8.769960403442383,-183.8226318359375,-10.345458984375,300.5523681640625
1.7712499,-1.1444283723831177,-11.252747535705566,-8.875306129455566,-186.737060546875,-9.2315673828125,305.8319091796875
1.7737498999999999,-1.0199298858642578,-11.420342445373535,-9.064447402954102,-187.7899169921875,-8.4228515625,311.1724853515625
1.7762499,-0.8619126081466675,-11.60948371887207,-9.17936897277832,-192.81005859375,-6.5460205078125,316.314697265625
1.7787499,-0.6799532771110535,-11.73398208618164,-9.351752281188965,-198.6541748046875,-4.486083984375,321.044921875
1.7812499,-0.4884171485900879,-11.872846603393555,-9.514557838439941,-202.1636962890625,-3.6163330078125,325.6378173828125
1.7837498999999999,-0.3232172429561615,-12.069170951843262,-9.653421401977539,-205.8258056640625,-2.716064453125,330.047607421875
1.7862499,-0.17477671802043915,-12.2990140914917,-9.787496566772461,-210.2508544921875,-1.129150390625,333.8165283203125
1.7887499,-0.028730420395731926,-12.562376022338867,-9.892841339111328,-214.508056640625,0.3814697265625,337.0513916015625
1.7912499,0.11971008777618408,-12.847286224365234,-9.979032516479492,-218.8568115234375,1.8310546875,340.3778076171875
1.7937499,0.28969839215278625,-13.15613842010498,-10.036493301391602,-223.44970703125,3.387451171875,343.2464599609375
1.7962498999999998,0.47165772318840027,-13.476961135864258,-10.074800491333008,-228.3477783203125,4.974365234375,345.76416015625
1.7987499,0.6775590777397156,-13.831303596496582,-10.093954086303711,-233.58154296875,6.6375732421875,348.2666015625
1.8012499,0.8954314589500427,-14.226346969604492,-10.093954086303711,-238.494873046875,8.2855224609375,350.372314453125
1.8037499,1.1348515748977661,-14.676456451416016,-10.086771965026855,-242.8741455078125,9.857177734375,352.35595703125
1.8062498999999999,1.3910311460494995,-15.184026718139648,-10.08198356628418,-247.528076171875,11.5966796875,354.06494140625
1.8087499,1.680729627609253,-15.7322998046875,-10.091560363769531,-252.044677734375,13.7786865234375,355.560302734375
1.8112499,2.008735179901123,-16.292543411254883,-10.129867553710938,-256.65283203125,16.3421630859375,357.0404052734375
1.8137499,2.382230758666992,-16.859968185424805,-10.18493366241455,-261.3983154296875,19.195556640625,358.6273193359375
1.8162498999999999,2.7964274883270264,-17.43936538696289,-10.259154319763184,-265.7318115234375,22.064208984375,359.9700927734375
1.8187499,3.2345664501190186,-18.04270362854004,-10.321403503417969,-270.2484130859375,25.054931640625,360.53466796875
1.8212499,3.7038300037384033,-18.693927764892578,-10.362105369567871,-274.444580078125,27.7557373046875,361.297607421875
1.8237499,4.194641590118408,-19.402610778808594,-10.376470565795898,-278.3966064453125,30.517578125,361.6485595703125
1.8262498999999999,4.7189717292785645,-20.16875457763672,-10.335768699645996,-281.3720703125,33.2794189453125,361.6485595703125
1.8287499,5.2696380615234375,-20.985177993774414,-10.254365921020508,-283.599853515625,35.888671875,361.2213134765625
1.8312499,5.846640586853027,-21.88539695739746,-10.110713958740234,-285.6292724609375,38.4979248046875,360.2294921875
1.8337499,6.449979305267334,-22.814348220825195,-9.945513725280762,-286.43798828125,40.924072265625,358.88671875
1.8362498999999999,7.074865818023682,-23.798364639282227,-9.763554573059082,-287.0330810546875,43.3807373046875,357.452392578125
1.8387499,7.7213006019592285,-24.794353485107422,-9.59835433959961,-287.261962890625,45.9136962890625,355.52978515625
1.8412499,8.370129585266113,-25.81667709350586,-9.437943458557129,-287.3992919921875,48.7060546875,353.240966796875
1.8437499,9.002198219299316,-26.850971221923828,-9.275136947631836,-286.7889404296875,50.750732421875,350.76904296875
1.8462498999999999,9.627084732055664,-27.89723777770996,-9.11233139038086,-285.8428955078125,52.4139404296875,347.5494384765625
1.8487499,10.254365921020508,-28.941110610961914,-8.947132110595703,-285.0494384765625,53.863525390625,343.6279296875
1.8512499,10.903194427490234,-29.968223571777344,-8.789113998413086,-283.87451171875,55.48095703125,339.4927978515625
1.8537499,11.587936401367188,-30.966604232788086,-8.652645111083984,-281.951904296875,56.549072265625,334.41162109375
1.8562499,12.306197166442871,-31.931468963623047,-8.520963668823242,-279.4952392578125,57.281494140625,328.4912109375
1.8587498999999998,13.079524040222168,-32.826900482177734,-8.422801971435547,-276.458740234375,58.0902099609375,321.197509765625
1.8612499,13.888764381408691,-33.648109436035156,-8.358158111572266,-273.468017578125,58.807373046875,313.232421875
1.8637499,14.750677108764648,-34.34721755981445,-8.300697326660156,-270.599365234375,59.6771240234375,304.1534423828125
1.8662499,15.624560356140137,-34.98168182373047,-8.233659744262695,-267.4407958984375,60.028076171875,293.8385009765625
1.8687498999999999,16.484079360961914,-35.52037811279297,-8.130708694458008,-264.1754150390625,59.8297119140625,282.4249267578125
1.8712499,17.32683753967285,-36.03273391723633,-7.95832633972168,-260.955810546875,59.63134765625,269.71435546875
1.8737499,18.15044403076172,-36.466087341308594,-7.752425193786621,-258.11767578125,58.4259033203125,255.7525634765625
1.8762499,18.978836059570312,-36.8323974609375,-7.522581577301025,-254.486083984375,56.854248046875,240.1885986328125
1.8787498999999999,19.833566665649414,-37.12209701538086,-7.271190643310547,-252.044677734375,54.8858642578125,223.236083984375
1.8812499,21.715410232543945,-37.507564544677734,-6.8043212890625,-246.88720703125,49.9114990234375,186.279296875
1.8837499,22.768857955932617,-37.66558074951172,-6.5481414794921875,-244.6441650390625,46.7681884765625,165.71044921875
1.8862499,23.92765235900879,-37.773319244384766,-6.2632317543029785,-242.401123046875,43.15185546875,144.4549560546875
1.8887498999999999,25.191789627075195,-37.8235969543457,-5.935225963592529,-240.6463623046875,38.970947265625,121.9482421875
1.8912499,26.55409049987793,-37.7852897644043,-5.5114521980285645,-239.1357421875,34.8052978515625,98.7701416015625
1.8937499,27.988218307495117,-37.66079330444336,-4.9799394607543945,-238.34228515625,30.0445556640625,75.103759765625
1.8962499,29.46304702758789,-37.48362350463867,-4.244919776916504,-237.335205078125,24.6124267578125,50.537109375
1.8987498999999999,30.930692672729492,-37.29208755493164,-3.313575267791748,-236.51123046875,18.4326171875,24.90234375
1.9012499,32.398338317871094,-37.14603805541992,-2.166752576828003,-236.4501953125,11.749267578125,-1.007080078125
1.9037499,33.81809997558594,-37.06224060058594,-0.8762778043746948,-235.9161376953125,4.69970703125,-27.557373046875
1.9062499,35.20194625854492,-37.04787826538086,0.5195417404174805,-235.2294921875,-2.593994140625,-54.1229248046875
1.9087498999999999,36.49242401123047,-37.074214935302734,1.9632453918457031,-234.893798828125,-10.0555419921875,-80.99365234375
1.9112499,37.62009048461914,-37.10533905029297,3.428496837615967,-235.260009765625,-17.5323486328125,-108.306884765625
1.9137499,38.558616638183594,-37.11491394042969,4.896142482757568,-236.3433837890625,-25.543212890625,-135.589599609375
1.9162499,39.23617935180664,-37.0981559753418,6.311115741729736,-238.067626953125,-33.782958984375,-162.59765625
1.9187499,39.643192291259766,-37.05506134033203,7.6782050132751465,-240.753173828125,-41.6412353515625,-189.4683837890625
1.9212498999999998,39.7605094909668,-37.011962890625,8.971074104309082,-244.44580078125,-49.530029296875,-216.2017822265625
1.9237499,39.61445999145508,-36.976051330566406,10.211270332336426,-248.7640380859375,-57.5103759765625,-242.401123046875
1.9262499,39.20505142211914,-36.959293365478516,11.39161205291748,-253.173828125,-65.0787353515625,-268.2952880859375
1.9287499,38.57298278808594,-36.9928092956543,12.528857231140137,-258.30078125,-72.0367431640625,-294.5556640625
1.9312498999999999,37.71346664428711,-37.06703186035156,13.558363914489746,-263.214111328125,-78.61328125,-320.8465576171875
1.9337499,36.66001510620117,-37.18195343017578,14.504074096679688,-267.791748046875,-85.0677490234375,-346.649169921875
1.9362499,35.436580657958984,-37.344757080078125,15.320496559143066,-272.6593017578125,-90.8050537109375,-371.978759765625
1.9387499,34.0958251953125,-37.53868865966797,16.03875732421875,-277.2216796875,-96.2982177734375,-397.03369140625
1.9412498999999999,32.66648864746094,-37.79247283935547,16.670825958251953,-281.9976806640625,-101.50146484375,-421.234130859375
1.9437499,31.179689407348633,-38.11808395385742,17.25740623474121,-286.0260009765625,-106.6131591796875,-444.793701171875
1.9462499,29.630640029907227,-38.549041748046875,17.824831008911133,-289.55078125,-111.38916015625,-467.4224853515625
1.9487499,28.014554977416992,-39.087738037109375,18.4066219329834,-292.572021484375,-116.3330078125,-488.8763427734375
1.9512498999999999,26.30270004272461,-39.758113861083984,18.988412857055664,-295.074462890625,-121.2615966796875,-500
1.9537499,24.49028968811035,-40.51947021484375,19.574993133544922,-295.9442138671875,-126.0833740234375,-500
1.9562499,22.572534561157227,-41.333499908447266,20.094533920288086,-294.86083984375,-130.6915283203125,-500
1.9587499,20.53506851196289,-42.130767822265625,20.53985595703125,-293.0908203125,-135.3302001953125,-500
1.9612498999999999,18.392257690429688,-42.84184646606445,20.84152603149414,-290.4815673828125,-140.2435302734375,-500
1.9637499,16.17761993408203,-43.414058685302734,20.975601196289062,-287.0941162109375,-145.2789306640625,-500
1.9662499,13.898341178894043,-43.86177444458008,20.96841812133789,-283.0657958984375,-150.390625,-500
1.9687499,11.6430025100708,-44.16823196411133,20.78645896911621,-277.923583984375,-155.426025390625,-500
1.9712498999999999,9.435548782348633,-44.36216354370117,20.48239517211914,-272.2320556640625,-161.1480712890625,-500
1.9737499,7.304709434509277,-44.443565368652344,20.123266220092773,-266.6015625,-166.68701171875,-500
1.9762499,5.274426460266113,-44.4100456237793,19.613300323486328,-260.498046875,-172.0428466796875,-500
1.9787499,3.3207578659057617,-44.263999938964844,19.14882469177246,-254.3487548828125,-177.4444580078125,-500
1.9812499,1.4197616577148438,-44.010215759277344,18.574216842651367,-248.3062744140625,-182.8155517578125,-500
1.9837499,-0.4644751250743866,-43.61996078491211,18.013973236083984,-242.85888671875,-188.29345703125,-500
1.9862499,-2.389413356781006,-43.11717987060547,17.42739486694336,-238.4033203125,-193.8018798828125,-500
1.9887499,-4.390965938568115,-42.47313690185547,16.76898956298828,-234.9853515625,-199.676513671875,-500
1.9912499,-6.481103897094727,-41.67826461791992,16.045940399169922,-232.2845458984375,-205.352783203125,-500
1.9937498999999999,-8.643068313598633,-40.72297668457031,15.251065254211426,-230.6060791015625,-210.4949951171875,-500
1.9962499,-10.857705116271973,-39.595306396484375,14.319720268249512,-229.98046875,-215.27099609375,-500
1.9987499,-13.0914945602417,-38.28567886352539,13.390769958496094,-229.98046875,-219.512939453125,-500
2.0012499,-15.327679634094238,-36.8132438659668,12.342109680175781,-230.7586669921875,-222.869873046875,-500
2.0037499,-17.542316436767578,-35.20194625854492,11.279084205627441,-232.48291015625,-225.6927490234375,-500
2.0062499,-19.711462020874023,-33.51882553100586,10.199298858642578,-234.7412109375,-228.3477783203125,-500
2.0087498999999998,-21.787235260009766,-31.797391891479492,9.057265281677246,-237.030029296875,-229.6905517578125,-500
2.0112499,-23.75766372680664,-30.07835578918457,7.987056732177734,-238.3880615234375,-229.8126220703125,-500
2.0137499,-25.64908218383789,-28.388050079345703,6.98628044128418,-239.288330078125,-229.034423828125,-500
2.0162499,-27.478252410888672,-26.80069351196289,6.155492782592773,-239.3341064453125,-227.60009765625,-500
2.0187499,-29.34333610534668,-25.33544158935547,5.492298603057861,-237.5946044921875,-225.1434326171875,-500
2.0212499,-31.22996711730957,-24.040180206298828,4.903325080871582,-234.100341796875,-221.8017578125,-500
2.0237499,-33.080684661865234,-22.91250991821289,4.292803764343262,-230.0567626953125,-217.071533203125,-500
2.0262499,-34.76141357421875,-21.832725524902344,3.5721490383148193,-223.8922119140625,-210.174560546875,-500
2.0287498999999998,-36.159629821777344,-20.77688217163086,2.765302896499634,-216.9952392578125,-200.6988525390625,-500
2.0312499,-37.21546936035156,-19.582176208496094,2.0446481704711914,-209.1827392578125,-189.39208984375,-483.917236328125
2.0337499,-37.988800048828125,-18.21748161315918,1.5275006294250488,-200.5767822265625,-177.398681640625,-461.0748291015625
2.0362499,-38.589744567871094,-16.70673942565918,1.2713210582733154,-190.7196044921875,-164.886474609375,-438.873291015625
2.0387499,-39.17153549194336,-14.94460678100586,1.2880805730819702,-177.6123046875,-151.6265869140625,-418.9300537109375
2.0412499,-39.81317901611328,-13.022063255310059,1.434126853942871,-164.7796630859375,-138.0767822265625,-399.3682861328125
2.0437499,-40.58650588989258,-10.934319496154785,1.623268723487854,-153.2440185546875,-123.7945556640625,-380.2490234375
2.0462499,-41.42926788330078,-8.734047889709473,1.7046716213226318,-141.29638671875,-108.856201171875,-362.213134765625
2.0487499,-42.269630432128906,-6.50025749206543,1.6208745241165161,-128.753662109375,-92.4835205078125,-345.0775146484375
2.0512498999999997,-42.94240188598633,-4.467580318450928,1.2617442607879639,-116.8670654296875,-75.3326416015625,-328.216552734375
2.0537499,-43.38053894042969,-2.58813214302063,0.7230489253997803,-103.240966796875,-57.2052001953125,-312.774658203125
2.0562499,-43.471519470214844,-1.0103530883789062,0.10295066982507706,-89.385986328125,-40.1763916015625,-297.79052734375
2.0587499,-43.19139862060547,0.3495534360408783,-0.43095630407333374,-76.5380859375,-24.8260498046875,-282.9132080078125
2.0612499,-42.54975128173828,1.5849615335464478,-0.7637503147125244,-63.934326171875,-10.986328125,-268.49365234375
2.0637499,-41.587284088134766,2.779668092727661,-0.8786720037460327,-51.6815185546875,2.25830078125,-254.6539306640625
2.0662499,-40.43327713012695,3.9815573692321777,-0.8738836050033569,-40.46630859375,15.289306640625,-240.90576171875
2.0687499,-39.240966796875,5.16429328918457,-0.8451532125473022,-30.364990234375,28.25927734375,-227.1270751953125
2.0712498999999998,-38.16357421875,6.287173748016357,-0.8930372595787048,-20.782470703125,41.4276123046875,-213.6077880859375
2.0737499,-37.3160285949707,7.220912456512451,-1.0534487962722778,-10.7879638671875,53.9398193359375,-199.5086669921875
2.0762499,-36.71268844604492,7.893682956695557,-1.3024457693099976,-0.640869140625,65.9027099609375,-184.9517822265625
2.0787499,-36.29609680175781,8.279149055480957,-1.6184803247451782,10.4522705078125,77.056884765625,-170.41015625
2.0812499,-35.922603607177734,8.398859977722168,-1.9560627937316895,21.8963623046875,86.60888671875,-155.0750732421875
2.0837499,-35.453338623046875,8.303091049194336,-2.296039342880249,32.440185546875,95.2911376953125,-139.373779296875
2.0862499,-34.75423049926758,8.085219383239746,-2.63362193107605,42.90771484375,102.996826171875,-123.4130859375
2.0887499,-33.77021408081055,7.8098859786987305,-2.9735984802246094,54.0008544921875,109.344482421875,-107.3760986328125
2.0912498999999998,-31.04800796508789,7.328651428222656,-3.6535518169403076,75.0885009765625,119.476318359375,-75.8819580078125
2.0937499,-29.482200622558594,7.204153060913086,-3.9815573692321777,84.930419921875,123.7640380859375,-61.1114501953125
2.0962499,-27.923574447631836,7.151480674743652,-4.2760443687438965,94.4366455078125,127.2430419921875,-47.0123291015625
2.0987499,-26.48465919494629,7.1490864753723145,-4.529829502105713,103.424072265625,130.31005859375,-33.4320068359375
2.1012499,-25.234886169433594,7.117961883544922,-4.733336925506592,111.541748046875,132.7972412109375,-21.087646484375
2.1037499,-24.195802688598633,7.029376029968262,-4.910507678985596,119.6136474609375,133.9569091796875,-9.429931640625
2.1062499,-23.33867835998535,6.840234279632568,-5.106832027435303,127.838134765625,134.1400146484375,0.9307861328125
2.1087499,-22.565351486206055,6.478709697723389,-5.34625244140625,135.0860595703125,134.2315673828125,10.3912353515625
2.1112499,-21.866243362426758,6.1770405769348145,-5.683835029602051,142.8070068359375,133.6517333984375,19.4091796875
2.1137498999999997,-21.116859436035156,5.736507415771484,-6.078877925872803,147.8424072265625,132.6141357421875,28.4271240234375
2.1162499,-20.34592628479004,5.39174222946167,-6.562506675720215,151.1077880859375,130.889892578125,36.1175537109375
2.1187499,-19.517532348632812,4.972756862640381,-7.067683219909668,155.029296875,128.6468505859375,42.816162109375
2.1212499,-18.63646697998047,4.501099109649658,-7.613561630249023,157.8826904296875,126.1444091796875,48.858642578125
2.1237499,-17.726669311523438,3.9863457679748535,-8.169015884399414,160.0494384765625,123.046875,53.89404296875
2.1262499,-16.795324325561523,3.469198226928711,-8.738836288452148,161.651611328125,119.537353515625,58.1207275390625
2.1287499,-15.837644577026367,2.985569477081299,-9.287108421325684,162.2314453125,115.5548095703125,62.164306640625
2.1312499,-14.848838806152344,2.5546131134033203,-9.799467086791992,162.4755859375,111.358642578125,64.9261474609375
2.1337498999999998,-13.814543724060059,2.161964178085327,-10.247182846069336,162.2314453125,107.2845458984375,66.89453125
2.1362499,-12.744335174560547,1.7764976024627686,-10.60391902923584,161.8499755859375,103.3172607421875,68.4356689453125
2.1387499,-11.652579307556152,1.3742717504501343,-10.852916717529297,161.0870361328125,99.151611328125,69.64111328125
2.1412499,-10.548852920532227,0.933738648891449,-10.984597206115723,160.308837890625,95.184326171875,70.220947265625
2.1437499,-9.454702377319336,0.4596867263317108,-11.02051067352295,159.9578857421875,91.0797119140625,70.6329345703125
2.1462499,-8.365341186523438,-0.035913024097681046,-10.986991882324219,159.4390869140625,87.4481201171875,70.80078125
2.1487499,-7.287950038909912,-0.5410895943641663,-10.915165901184082,158.50830078125,83.9080810546875,70.80078125
2.1512499,-6.229712963104248,-1.0462661981582642,-10.843339920043945,157.2723388671875,80.780029296875,70.6634521484375
2.1537498999999998,-5.2049946784973145,-1.5418659448623657,-10.776301383972168,155.76171875,77.33154296875,70.953369140625
2.1562499,-4.242525577545166,-2.0183119773864746,-10.718840599060059,153.6865234375,73.944091796875,71.10595703125
2.1587499,-3.3518824577331543,-2.4684219360351562,-10.675745010375977,151.4434814453125,70.5108642578125,71.441650390625
2.1612499,-2.5450363159179688,-2.889801502227783,-10.651803016662598,148.7274169921875,66.9097900390625,72.08251953125
2.1637499,-1.8124107122421265,-3.2800562381744385,-10.649409294128418,145.599365234375,63.323974609375,72.3114013671875
2.1662499,-1.139639973640442,-3.6320040225982666,-10.682928085327148,142.1051025390625,59.814453125,72.75390625
2.1687499,-0.5171475410461426,-3.9432501792907715,-10.759542465209961,138.2293701171875,56.610107421875,73.394775390625
2.1712499,0.06464344263076782,-4.211400985717773,-10.8720703125,134.4146728515625,53.5736083984375,73.944091796875
2.1737499,0.6177040338516235,-4.436455726623535,-11.015722274780273,129.82177734375,50.8575439453125,74.554443359375
2.1762499,1.1348515748977661,-4.623203277587891,-11.164162635803223,125.1678466796875,48.126220703125,74.76806640625
2.1787499,1.6328455209732056,-4.771644115447998,-11.295844078063965,120.54443359375,45.806884765625,75.0579833984375
2.1812499,2.1045033931732178,-4.888959884643555,-11.405977249145508,115.29541015625,43.548583984375,75.042724609375
2.1837499,2.559401512145996,-4.9799394607543945,-11.475408554077148,110.0006103515625,41.6259765625,74.6002197265625
2.1862499,3.0095114707946777,-5.049371242523193,-11.520898818969727,104.79736328125,39.9627685546875,73.7762451171875
2.1887499,3.445256233215332,-5.1116204261779785,-11.537657737731934,99.5330810546875,38.482666015625,72.8912353515625
2.1912499,3.869029998779297,-5.169081687927246,-11.544840812683105,93.8720703125,37.5823974609375,71.6552734375
2.1937499,4.280832767486572,-5.238513469696045,-11.54005241394043,88.4857177734375,36.590576171875,70.2056884765625
2.1962498999999998,4.654327869415283,-5.317522048950195,-11.54005241394043,83.49609375,35.736083984375,68.8018798828125
2.1987499,4.99669885635376,-5.410895824432373,-11.552022933959961,78.094482421875,35.4766845703125,66.8792724609375
2.2012499,5.293580055236816,-5.4875102043151855,-11.566388130187988,72.9827880859375,35.3546142578125,64.971923828125
2.2037499,5.564124584197998,-5.564124584197998,-11.590330123901367,68.17626953125,35.1409912109375,63.17138671875
2.2062499,5.805939197540283,-5.626373767852783,-11.60708999633789,62.68310546875,35.369873046875,60.4248046875
2.2087499,6.030993938446045,-5.710171222686768,-11.614272117614746,57.4188232421875,35.430908203125,58.197021484375
2.2112499,6.248866558074951,-5.813121795654297,-11.60708999633789,52.5665283203125,35.797119140625,55.9844970703125
2.2137499,6.457161903381348,-5.954379558563232,-11.57596492767334,48.5076904296875,36.2701416015625,54.13818359375
2.2162498999999998,6.653486728668213,-6.112396717071533,-11.51850414276123,44.8455810546875,36.7279052734375,51.8646240234375
2.2187499,6.8378400802612305,-6.270414352416992,-11.441889762878418,41.5496826171875,37.7655029296875,49.6978759765625
2.2212499,7.003039836883545,-6.40927791595459,-11.341333389282227,38.665771484375,38.7115478515625,47.7752685546875
2.2237499,7.137115478515625,-6.514622688293457,-11.233593940734863,35.9649658203125,39.7186279296875,45.989990234375
2.2262499,7.228095054626465,-6.605602264404297,-11.130643844604492,33.6151123046875,40.7867431640625,44.4793701171875
2.2287499,7.2783732414245605,-6.701370716094971,-11.027692794799805,31.3720703125,41.93115234375,42.8314208984375
2.2312499,7.292738437652588,-6.8162922859191895,-10.936713218688965,30.09033203125,42.9840087890625,41.3665771484375
2.2337499,7.292738437652588,-6.962338447570801,-10.845733642578125,29.2205810546875,44.0673828125,40.0238037109375
2.2362499,7.283161640167236,-7.115567684173584,-10.759542465209961,28.961181640625,45.2880859375,38.6505126953125
2.2387499,7.271190643310547,-7.259219646453857,-10.668562889099121,29.052734375,46.600341796875,37.78076171875
2.2412499,7.2352776527404785,-7.38132381439209,-10.575188636779785,29.4952392578125,47.821044921875,36.9415283203125
2.2437499,7.177816867828369,-7.47230339050293,-10.472238540649414,30.3955078125,49.3927001953125,36.07177734375
2.2462499,7.0988078117370605,-7.527369976043701,-10.359710693359375,31.463623046875,50.9490966796875,35.1715087890625
2.2487499,6.9910688400268555,-7.546523571014404,-10.228029251098633,32.470703125,52.520751953125,34.393310546875
2.2512499,6.864176273345947,-7.532158374786377,-10.079588890075684,33.4625244140625,54.5501708984375,33.843994140625
2.2537499,6.720524311065674,-7.4986395835876465,-9.919178009033203,35.0189208984375,55.9844970703125,33.3099365234375
2.2562499,6.564900875091553,-7.465120792388916,-9.749189376831055,36.6363525390625,57.43408203125,32.71484375
2.2587498999999998,6.4164605140686035,-7.433996200561523,-9.59596061706543,38.5894775390625,59.2193603515625,32.135009765625
2.2612499,6.289567947387695,-7.405265808105469,-9.47146224975586,40.6341552734375,60.8367919921875,31.524658203125
2.2637499,6.184223175048828,-7.378929615020752,-9.39245319366455,42.999267578125,62.469482421875,31.158447265625
2.2662499,6.1052141189575195,-7.328651428222656,-9.361329078674316,45.34912109375,64.208984375,30.57861328125
2.2687499,6.0405707359313965,-7.259219646453857,-9.368511199951172,47.271728515625,66.131591796875,29.8919677734375
2.2712499,5.9735331535339355,-7.141903877258301,-9.402029991149902,49.3316650390625,67.962646484375,29.4189453125
2.2737499,5.889736175537109,-6.9910688400268555,-9.437943458557129,50.8270263671875,69.976806640625,29.0374755859375
2.2762499,5.7772088050842285,-6.811503887176514,-9.466673851013184,52.0172119140625,71.624755859375,28.5186767578125
2.2787498999999998,5.626373767852783,-6.617573261260986,-9.469067573547363,52.9937744140625,73.2879638671875,27.9083251953125
2.2812499,5.458779811859131,-6.430825710296631,-9.44752025604248,53.2989501953125,75.0274658203125,27.7252197265625
2.2837499,5.272032260894775,-6.260837554931641,-9.397241592407227,53.6346435546875,76.9805908203125,27.069091796875
2.2862499,5.0876784324646,-6.110002517700195,-9.32541561126709,53.802490234375,78.8116455078125,26.4892578125
2.2887499,4.920084476470947,-5.9735331535339355,-9.251194953918457,53.8330078125,80.62744140625,25.81787109375
2.2912499,4.754884719848633,-5.853823184967041,-9.172186851501465,53.3294677734375,82.672119140625,25.2227783203125
2.2937499,4.613626480102539,-5.738901615142822,-9.107542991638184,52.2918701171875,84.8846435546875,24.71923828125
2.2962499,4.479551315307617,-5.633556365966797,-9.059659004211426,51.4068603515625,87.066650390625,24.2919921875
2.2987499,4.3622355461120605,-5.535394191741943,-9.035717010498047,50.2166748046875,89.17236328125,23.5595703125
2.3012499,4.168305397033691,-5.3582234382629395,-9.038111686706543,47.210693359375,93.6279296875,21.7742919921875
2.3037499,4.086902141571045,-5.272032260894775,-9.047688484191895,45.6085205078125,95.8099365234375,20.93505859375
2.3062499,4.015076160430908,-5.1810526847839355,-9.057265281677246,43.731689453125,97.8546142578125,20.01953125
2.3087499,3.9456443786621094,-5.070919036865234,-9.047688484191895,41.6412353515625,99.884033203125,18.6920166015625
2.3112499,3.885789394378662,-4.941632270812988,-9.01895809173584,39.276123046875,102.23388671875,17.6239013671875
2.3137499,3.8355112075805664,-4.788403511047363,-8.966285705566406,36.9415283203125,104.3243408203125,16.5557861328125
2.3162499,3.8067808151245117,-4.627991676330566,-8.889671325683594,34.3475341796875,106.719970703125,15.2435302734375
2.3187499,3.799597978591919,-4.467580318450928,-8.789113998413086,31.4788818359375,109.4818115234375,13.885498046875
2.3212498999999998,3.821146011352539,-4.331110954284668,-8.669404029846191,28.778076171875,112.2283935546875,12.451171875
2.3237499,3.8786067962646484,-4.223371982574463,-8.53293514251709,26.519775390625,115.0054931640625,11.1083984375
2.3262499,3.9624037742614746,-4.14915132522583,-8.391676902770996,24.0478515625,118.0572509765625,9.552001953125
2.3287499,4.072536945343018,-4.1156325340271,-8.243236541748047,21.636962890625,121.2158203125,8.270263671875
2.3312499,4.201824188232422,-4.108449935913086,-8.094796180725098,19.989013671875,124.20654296875,7.110595703125
2.3337499,4.335899353027344,-4.129997730255127,-7.931990146636963,18.3868408203125,127.044677734375,6.0272216796875
2.3362499,4.481945514678955,-4.1611223220825195,-7.7643961906433105,16.8914794921875,129.94384765625,5.035400390625
2.3387499,4.623203277587891,-4.20421838760376,-7.577648162841797,15.7928466796875,132.965087890625,4.150390625
2.3412498999999998,4.76924991607666,-4.235342979431152,-7.393294811248779,14.6636962890625,135.9100341796875,3.23486328125
2.3437499,4.900930881500244,-4.264073371887207,-7.204153060913086,13.6566162109375,138.885498046875,2.74658203125
2.3462499,5.015852451324463,-4.2951979637146,-7.010222434997559,12.908935546875,141.6778564453125,2.3345947265625
2.3487499,5.037400245666504,-4.240131378173828,-6.825869083404541,12.6190185546875,144.287109375,2.1514892578125
2.3512499,5.173870086669922,-4.230554580688477,-6.557718276977539,10.8795166015625,147.0794677734375,1.5716552734375
2.3537499,5.20978307723999,-4.19224739074707,-6.478709697723389,9.09423828125,150.0396728515625,1.251220703125
2.3562499,5.305551052093506,-4.2760443687438965,-6.246472358703613,11.8560791015625,152.3284912109375,1.922607421875
2.3587499,5.382165431976318,-4.410119533538818,-6.141127586364746,13.4735107421875,154.5867919921875,2.8228759765625
2.3612499,5.3582234382629395,-4.651933670043945,-5.980715751647949,14.9078369140625,156.3873291015625,3.3721923828125
2.3637499,5.327098846435547,-4.841075897216797,-5.810727596282959,17.3492431640625,157.6995849609375,4.45556640625
2.3662499,5.257667064666748,-5.003881454467773,-5.6670756340026855,19.8974609375,159.3780517578125,5.645751953125
2.3687499,5.193023681640625,-5.056553840637207,-5.590460777282715,21.6217041015625,160.8428955078125,6.8206787109375
2.3712499,5.128379821777344,-5.008669853210449,-5.525817394256592,22.796630859375,161.9415283203125,8.209228515625
2.3737499,5.085284233093262,-4.886565685272217,-5.48272180557251,23.7579345703125,163.360595703125,9.368896484375
2.3762499,5.051765441894531,-4.733336925506592,-5.4252610206604,24.6429443359375,164.6270751953125,11.016845703125
2.3787499,5.018246650695801,-4.618414878845215,-5.367800235748291,25.9857177734375,166.0614013671875,12.939453125
2.3812499,4.977545261383057,-4.5609540939331055,-5.293580055236816,28.5797119140625,167.29736328125,14.5721435546875
2.3837498999999998,4.927267074584961,-4.580107688903809,-5.2265424728393555,31.55517578125,168.304443359375,16.4642333984375
2.3862499,4.869806289672852,-4.594472885131836,-5.147533416748047,33.99658203125,169.281005859375,17.8985595703125
2.3887499,4.807557106018066,-4.6040496826171875,-5.070919036865234,35.5377197265625,170.4559326171875,19.3328857421875
2.3912499,4.750096321105957,-4.580107688903809,-4.987122058868408,36.80419921875,171.6766357421875,21.1029052734375
2.3937499,4.697423934936523,-4.570530891418457,-4.903325080871582,39.1845703125,172.3785400390625,22.76611328125
2.3962499,4.649539470672607,-4.6040496826171875,-4.841075897216797,42.54150390625,173.004150390625,24.4293212890625
2.3987499,4.632780075073242,-4.687847137451172,-4.802768707275391,45.59326171875,173.9501953125,26.1688232421875
2.4012499,4.642356872558594,-4.78122091293335,-4.793191909790039,48.64501953125,174.774169921875,27.984619140625
2.4037498999999998,4.687847137451172,-4.8482584953308105,-4.797980308532715,51.3153076171875,175.7354736328125,29.6630859375
2.4062499,4.786009311676025,-4.8722004890441895,-4.809951305389404,53.7567138671875,176.7425537109375,31.3568115234375
2.4087499,4.910507678985596,-4.843470096588135,-4.807557106018066,56.2744140625,177.886962890625,32.7911376953125
2.4112499,5.051765441894531,-4.776432514190674,-4.788403511047363,58.3343505859375,178.89404296875,34.3170166015625
2.4137499,5.185841083526611,-4.692635536193848,-4.745307922363281,60.546875,180.084228515625,35.6597900390625
2.4162499,5.286397457122803,-4.60165548324585,-4.683058738708496,62.6373291015625,181.1981201171875,36.80419921875
2.4187499,5.351040840148926,-4.513070106506348,-4.594472885131836,64.63623046875,182.2052001953125,37.8265380859375
2.4212499,5.386953830718994,-4.441244125366211,-4.503493309020996,66.5283203125,182.9833984375,38.5894775390625
2.4237499,5.410895824432373,-4.371812343597412,-4.400542736053467,68.3441162109375,183.8836669921875,39.3829345703125
2.4262499,5.427655220031738,-4.299986362457275,-4.2975921630859375,69.5343017578125,184.4482421875,39.9932861328125
2.4287499,5.461174011230469,-4.213795185089111,-4.19224739074707,70.7855224609375,185.1806640625,40.283203125
2.4312499,5.501875400543213,-4.125209331512451,-4.089296340942383,71.746826171875,185.6231689453125,40.4815673828125
2.4337499,5.568912982940674,-4.05817174911499,-3.9887399673461914,72.5555419921875,186.3555908203125,40.863037109375
2.4362499,5.633556365966797,-4.034229755401611,-3.9025487899780273,73.516845703125,187.0574951171875,40.8172607421875
2.4387499,5.7125654220581055,-4.065354347229004,-3.8283286094665527,74.64599609375,187.4542236328125,40.6341552734375
2.4412499,5.7772088050842285,-4.141968727111816,-3.7684733867645264,75.897216796875,187.92724609375,40.4815673828125
2.4437499,5.839457988739014,-4.24970817565918,-3.7181951999664307,76.72119140625,188.1103515625,40.5426025390625
2.4462498999999998,5.899312973022461,-4.37420654296875,-3.6846764087677,77.7740478515625,188.4002685546875,40.4205322265625
2.4487499,5.949591159820557,-4.5154643058776855,-3.6511576175689697,78.582763671875,188.5528564453125,40.46630859375
2.4512499,5.995080947875977,-4.6734819412231445,-3.6296098232269287,79.4525146484375,188.8580322265625,40.58837890625
2.4537499,6.030993938446045,-4.843470096588135,-3.603273630142212,80.1239013671875,189.1632080078125,40.557861328125
2.4562499,6.069301128387451,-5.020640850067139,-3.5649664402008057,81.268310546875,189.178466796875,40.7562255859375
2.4587499,6.102819919586182,-5.178658485412598,-3.5242648124694824,82.183837890625,189.5751953125,40.95458984375
2.4612499,6.138733386993408,-5.329493045806885,-3.466804027557373,82.855224609375,189.7735595703125,40.9393310546875
2.4637499,6.167463779449463,-5.451597213745117,-3.4093432426452637,83.7860107421875,189.5904541015625,41.1224365234375
2.4662498999999998,6.19379997253418,-5.547365188598633,-3.3470940589904785,84.53369140625,189.422607421875,41.1529541015625
2.4687499,6.212953567504883,-5.626373767852783,-3.270479440689087,85.1898193359375,189.4073486328125,41.107177734375
2.4712499,6.224924564361572,-5.688623428344727,-3.1866824626922607,85.5712890625,189.361572265625,41.107177734375
2.4737499,6.232107162475586,-5.750872611999512,-3.0765492916107178,86.36474609375,189.1326904296875,40.9088134765625
2.4762499,6.234501361846924,-5.817910194396973,-2.956839084625244,87.34130859375,188.8275146484375,40.4510498046875
2.4787499,6.229712963104248,-5.892130374908447,-2.832340717315674,88.348388671875,187.9119873046875,40.069580078125
2.4812499,6.2416839599609375,-5.9735331535339355,-2.7222073078155518,89.41650390625,187.225341796875,39.5965576171875
2.4837499,6.265625953674316,-6.0597243309021,-2.63362193107605,91.0186767578125,186.248779296875,39.031982421875
2.4862499,6.31829833984375,-6.160281181335449,-2.559401512145996,92.28515625,185.1959228515625,38.1927490234375
2.4887499,6.3949127197265625,-6.275202751159668,-2.5067291259765625,93.9483642578125,184.3109130859375,37.6739501953125
2.4912499,6.50025749206543,-6.404489517211914,-2.4684219360351562,96.13037109375,182.8765869140625,36.956787109375
2.4937499,6.6127848625183105,-6.517016887664795,-2.449268341064453,98.2208251953125,181.671142578125,36.1480712890625
2.4962499,6.732495307922363,-6.617573261260986,-2.4396915435791016,99.9298095703125,179.8095703125,35.064697265625
2.4987499,6.835445880889893,-6.655880928039551,-2.434903144836426,102.142333984375,177.9022216796875,34.210205078125
2.5012499,6.933608055114746,-6.6630635261535645,-2.425326347351074,103.607177734375,176.3763427734375,33.172607421875
2.5037499,7.029376029968262,-6.6391215324401855,-2.4133553504943848,104.91943359375,174.1943359375,32.3333740234375
2.5062499,7.129932880401611,-6.6127848625183105,-2.3965959548950195,106.5826416015625,172.088623046875,31.463623046875
2.5087498999999998,7.249642848968506,-6.610390663146973,-2.3942017555236816,108.9019775390625,170.074462890625,30.6854248046875
2.5112499,7.515398979187012,-6.653486728668213,-2.406172752380371,112.518310546875,166.046142578125,28.38134765625
2.5137499,7.65186882019043,-6.689399719238281,-2.408566951751709,114.3798828125,163.8641357421875,27.5726318359375
2.5162499,7.771578788757324,-6.710947513580322,-2.3965959548950195,115.7989501953125,161.6058349609375,26.214599609375
2.5187499,7.86734676361084,-6.730101108551025,-2.382230758666992,117.034912109375,159.3475341796875,25.1312255859375
2.5212499,7.929595947265625,-6.7277069091796875,-2.3511061668395996,118.2403564453125,157.470703125,24.0936279296875
2.5237499,7.967903137207031,-6.71334171295166,-2.31758713722229,119.232177734375,155.364990234375,22.674560546875
2.5262499,7.987056732177734,-6.677428722381592,-2.2816741466522217,119.68994140625,152.740478515625,21.5301513671875
2.5287498999999998,8.003816604614258,-6.617573261260986,-2.231395959854126,119.81201171875,150.177001953125,20.477294921875
2.5312499,8.02536392211914,-6.540958881378174,-2.1715409755706787,119.3695068359375,147.8271484375,19.287109375
2.5337499,8.068459510803223,-6.452373504638672,-2.1068975925445557,118.8201904296875,145.599365234375,17.974853515625
2.5362499,8.14028549194336,-6.356605529785156,-2.032677173614502,118.0572509765625,143.3868408203125,16.7083740234375
2.5387499,8.238448143005371,-6.2632317543029785,-1.9632453918457031,116.9281005859375,141.0980224609375,15.380859375
2.5412499,8.35336971282959,-6.169857978820801,-1.8914192914962769,115.8294677734375,138.9617919921875,14.0228271484375
2.5437499,8.468291282653809,-6.088454723358154,-1.8195933103561401,114.5477294921875,136.8408203125,12.5732421875
2.5462499,8.56645393371582,-6.009446144104004,-1.7573440074920654,113.0218505859375,134.8724365234375,11.1083984375
2.5487499,8.640673637390137,-5.932831764221191,-1.6903064250946045,111.0992431640625,132.6751708984375,9.8114013671875
2.5512499,8.688557624816895,-5.853823184967041,-1.625662922859192,108.7799072265625,130.584716796875,8.3465576171875
2.5537499,8.710105895996094,-5.767632007598877,-1.556231141090393,106.5521240234375,128.47900390625,6.8817138671875
2.5562499,8.731653213500977,-5.681440830230713,-1.4867992401123047,103.790283203125,126.4190673828125,5.31005859375
