# Time (seconds),Accel_X,Accel_Y,Accel_Z,Gyro_X,Gyro_Y,Gyro_Z
0.0012499,8.470685958862305,-4.410119533538818,1.0223240852355957,-11.7950439453125,-2.197265625,-10.5438232421875
0.0037499,8.463502883911133,-4.3861775398254395,1.0438719987869263,-11.3525390625,-2.62451171875,-10.284423828125
0.0062499,8.456320762634277,-4.335899353027344,1.0438719987869263,-10.1470947265625,-3.23486328125,-10.3759765625
0.0087499,8.456320762634277,-4.304774761199951,1.0247182846069336,-9.4146728515625,-3.7689208984375,-10.2386474609375
0.0112499,8.461109161376953,-4.280832767486572,0.9983820915222168,-8.7890625,-3.997802734375,-10.2691650390625
0.0137499,8.456320762634277,-4.252102375030518,0.9744400978088379,-7.8125,-4.180908203125,-10.3912353515625
0.016249899999999998,8.451532363891602,-4.228160381317139,0.9457096457481384,-6.988525390625,-4.425048828125,-10.650634765625
0.0187499,8.44434928894043,-4.189853191375732,0.9241618514060974,-5.9814453125,-4.730224609375,-10.7421875
0.021249900000000002,8.44434928894043,-4.146757125854492,0.9097966551780701,-5.5389404296875,-4.8980712890625,-10.955810546875
0.023749899999999997,8.465897560119629,-4.101267337799072,0.9026140570640564,-5.0506591796875,-5.4473876953125,-11.0626220703125
0.0262499,8.501810073852539,-4.060565948486328,0.912190854549408,-5.0048828125,-5.5999755859375,-11.3372802734375
0.028749900000000002,8.554482460021973,-4.039018154144287,0.9313444495201111,-4.4403076171875,-5.5389404296875,-11.23046875
0.031249899999999997,8.614337921142578,-4.036623954772949,0.9624691009521484,-4.21142578125,-5.523681640625,-11.3677978515625
0.0337499,8.667010307312012,-4.046200752258301,1.0031704902648926,-3.7689208984375,-5.8135986328125,-11.444091796875
0.0362499,8.719682693481445,-4.0533833503723145,1.0558429956436157,-2.9296875,-5.8135986328125,-11.53564453125
0.0387499,8.760383605957031,-4.048594951629639,1.115697979927063,-2.74658203125,-5.55419921875,-11.41357421875
0.0412499,8.801085472106934,-4.027047157287598,1.173158884048462,-2.716064453125,-5.5694580078125,-11.444091796875
0.0437499,8.841787338256836,-3.9863457679748535,1.2234370708465576,-2.6397705078125,-5.462646484375,-11.322021484375
0.0462499,8.882488250732422,-3.93367338180542,1.256955862045288,-2.8533935546875,-5.4168701171875,-11.0015869140625
0.0487499,8.932766914367676,-3.8786067962646484,1.280897855758667,-3.7689208984375,-5.3253173828125,-11.16943359375
0.0512499,8.973467826843262,-3.8283286094665527,1.2976573705673218,-4.45556640625,-5.06591796875,-11.1541748046875
0.053749899999999996,9.009381294250488,-3.8067808151245117,1.292868971824646,-5.035400390625,-4.8370361328125,-10.833740234375
0.0562499,9.02135181427002,-3.823540210723877,1.2737152576446533,-5.4473876953125,-4.364013671875,-10.894775390625
0.0587499,9.011775016784668,-3.8714241981506348,1.2473790645599365,-5.8441162109375,-3.997802734375,-10.8642578125
0.061249899999999996,8.980650901794434,-3.9432501792907715,1.2114660739898682,-5.9967041015625,-3.6773681640625,-10.6353759765625
0.0637499,8.935160636901855,-4.010287761688232,1.1803414821624756,-6.04248046875,-3.47900390625,-10.589599609375
0.0662499,8.882488250732422,-4.0533833503723145,1.1540051698684692,-6.2255859375,-3.6468505859375,-10.25390625
0.0687499,8.83939266204834,-4.067748546600342,1.1276689767837524,-6.591796875,-3.4942626953125,-10.2081298828125
0.0712499,8.801085472106934,-4.05817174911499,1.1085153818130493,-7.4005126953125,-3.0364990234375,-10.162353515625
0.0737499,8.779537200927734,-4.043806552886963,1.0893617868423462,-8.3770751953125,-3.173828125,-9.82666015625
0.0762499,8.765172004699707,-4.034229755401611,1.070208191871643,-8.97216796875,-2.99072265625,-9.857177734375
0.0787499,8.753201484680176,-4.046200752258301,1.0558429956436157,-9.2926025390625,-3.0670166015625,-9.674072265625
0.0812499,8.75080680847168,-4.0749311447143555,1.039083480834961,-9.6435546875,-3.0517578125,-9.429931640625
0.0837499,8.741230010986328,-4.1156325340271,1.0295066833496094,-10.07080078125,-2.6702880859375,-9.2010498046875
0.0862499,8.724471092224121,-4.173093795776367,1.0103530883789062,-10.3607177734375,-2.777099609375,-9.033203125
0.0887499,8.69334602355957,-4.23773717880249,0.9911994934082031,-10.7421875,-3.0670166015625,-8.880615234375
0.0912499,8.645462036132812,-4.316745758056641,0.9624691009521484,-11.2762451171875,-3.143310546875,-8.6212158203125
0.0937499,8.5903959274292,-4.398148536682129,0.9289502501487732,-11.474609375,-3.11279296875,-8.056640625
0.0962499,8.540117263793945,-4.469974517822266,0.8882488012313843,-11.6119384765625,-3.23486328125,-7.537841796875
0.0987499,8.494627952575684,-4.522646903991699,0.8403648138046265,-11.7950439453125,-3.2958984375,-6.988525390625
0.1012499,8.453926086425781,-4.54419469833374,0.7829039692878723,-11.8408203125,-3.3416748046875,-6.3934326171875
0.1037499,8.4108304977417,-4.537012100219727,0.7182605266571045,-12.2528076171875,-3.3416748046875,-5.9051513671875
0.1062499,8.362946510314941,-4.505887508392334,0.6344634294509888,-12.1612548828125,-3.6468505859375,-5.7830810546875
0.1087499,8.310274124145508,-4.460397720336914,0.545877993106842,-12.451171875,-3.8299560546875,-5.340576171875
0.1112499,8.26239013671875,-4.402936935424805,0.4572925269603729,-12.4664306640625,-3.9825439453125,-5.1727294921875
0.1137499,8.22887134552002,-4.3406877517700195,0.3758896589279175,-12.7105712890625,-4.547119140625,-4.974365234375
0.1162499,8.197746276855469,-4.285621166229248,0.30885201692581177,-13.153076171875,-4.913330078125,-4.8370361328125
0.1187499,8.17380428314209,-4.235342979431152,0.26096799969673157,-13.3514404296875,-4.94384765625,-4.8828125
0.1212499,8.13789176940918,-4.206612586975098,0.21787235140800476,-13.48876953125,-5.2642822265625,-4.9591064453125
0.1237499,8.097189903259277,-4.199429988861084,0.17956513166427612,-13.8397216796875,-5.55419921875,-4.974365234375
0.1262499,8.054094314575195,-4.201824188232422,0.1388636976480484,-14.1754150390625,-5.9051513671875,-5.096435546875
0.1287499,8.018181800842285,-4.213795185089111,0.10055647045373917,-14.404296875,-6.256103515625,-5.43212890625
0.1312499,7.99184513092041,-4.216189384460449,0.07182604819536209,-14.617919921875,-6.683349609375,-5.279541015625
0.1337499,7.977479934692383,-4.2090067863464355,0.05267243832349777,-14.95361328125,-7.0037841796875,-5.1727294921875
0.1362499,7.9846625328063965,-4.189853191375732,0.040701430290937424,-15.380859375,-7.32421875,-5.37109375
0.1387499,8.001421928405762,-4.175487995147705,0.031124621629714966,-15.9912109375,-7.7972412109375,-5.340576171875
0.1412499,8.039729118347168,-4.170699596405029,0.019153613597154617,-16.6168212890625,-8.148193359375,-5.218505859375
0.1437499,8.08282470703125,-4.180276393890381,0.002394201699644327,-16.54052734375,-8.36181640625,-5.0048828125
0.1462499,8.133103370666504,-4.19224739074707,-0.011971008032560349,-16.8609619140625,-8.544921875,-4.913330078125
0.1487499,8.183381080627441,-4.20421838760376,-0.023942016065120697,-17.3492431640625,-8.697509765625,-4.69970703125
0.1512499,8.2312650680542,-4.197035789489746,-0.035913024097681046,-17.669677734375,-8.544921875,-4.547119140625
0.1537499,8.269572257995605,-4.180276393890381,-0.0454898327589035,-18.1884765625,-8.7127685546875,-4.21142578125
0.1562499,8.310274124145508,-4.153939723968506,-0.05506663769483566,-18.6309814453125,-8.7432861328125,-3.7078857421875
0.1587499,8.348581314086914,-4.1180267333984375,-0.06703764945268631,-19.0887451171875,-8.6822509765625,-3.448486328125
0.1612499,8.38449478149414,-4.084507942199707,-0.07182604819536209,-19.683837890625,-8.758544921875,-3.3111572265625
0.1637499,8.422801971435547,-4.046200752258301,-0.07900865375995636,-20.1263427734375,-9.0179443359375,-2.9296875
0.1662499,8.453926086425781,-4.022258758544922,-0.07900865375995636,-20.599365234375,-8.7432861328125,-2.3956298828125
0.1687499,8.492233276367188,-4.005499362945557,-0.08140286058187485,-20.93505859375,-8.23974609375,-1.983642578125
0.1712499,8.523358345031738,-4.005499362945557,-0.07900865375995636,-21.0418701171875,-8.36181640625,-1.64794921875
0.1737499,8.552088737487793,-4.005499362945557,-0.07422025501728058,-21.1181640625,-8.11767578125,-1.5106201171875
0.17624990000000001,8.573636054992676,-4.003105163574219,-0.06703764945268631,-21.240234375,-7.8582763671875,-1.28173828125
0.1787499,8.588001251220703,-3.97916316986084,-0.06224924325942993,-21.4691162109375,-7.7362060546875,-0.5340576171875
0.1812499,8.607154846191406,-3.9480385780334473,-0.05985504388809204,-21.6064453125,-7.4920654296875,-0.2899169921875
0.1837499,8.62391471862793,-3.9025487899780273,-0.06464344263076782,-21.5911865234375,-7.26318359375,-0.152587890625
0.1862499,8.645462036132812,-3.864241600036621,-0.06703764945268631,-21.42333984375,-6.7291259765625,-0.1373291015625
0.1887499,8.669404029846191,-3.8331170082092285,-0.06703764945268631,-21.3165283203125,-6.5155029296875,-0.091552734375
0.1912499,8.69095230102539,-3.8091750144958496,-0.06703764945268631,-20.81298828125,-6.5460205078125,0.1373291015625
0.1937499,8.712499618530273,-3.794809579849243,-0.05746084079146385,-20.172119140625,-6.2103271484375,0.1678466796875
0.1962499,8.734047889709473,-3.7900211811065674,-0.05027823522686958,-19.5770263671875,-5.9051513671875,-0.0457763671875
0.1987499,8.753201484680176,-3.7924153804779053,-0.035913024097681046,-19.04296875,-5.5084228515625,-0.1983642578125
0.2012499,8.762778282165527,-3.8115692138671875,-0.014365210197865963,-18.37158203125,-5.4473876953125,-0.1220703125
0.2037499,8.774748802185059,-3.84269380569458,0.019153613597154617,-17.303466796875,-5.1116943359375,-0.2899169921875
0.2062499,8.78193187713623,-3.883395195007324,0.06224924325942993,-16.082763671875,-4.669189453125,-0.48828125
0.20874990000000002,8.796297073364258,-3.928884983062744,0.10534487664699554,-15.1214599609375,-4.45556640625,-0.54931640625
0.2112499,8.825027465820312,-3.9839515686035156,0.15083470940589905,-13.85498046875,-4.1046142578125,-0.67138671875
0.2137499,8.882488250732422,-4.122815132141113,0.21547815203666687,-11.1083984375,-3.11279296875,-0.3662109375
0.2162499,8.89685344696045,-4.211400985717773,0.23702596127986908,-9.124755859375,-2.6702880859375,0.213623046875
0.2187499,8.899248123168945,-4.292803764343262,0.2537853717803955,-7.293701171875,-2.2430419921875,0.2593994140625
0.2212499,8.889671325683594,-4.357447147369385,0.2561795711517334,-5.4931640625,-1.5869140625,0.3204345703125
0.2237499,8.87291145324707,-4.393360137939453,0.2513911724090576,-3.90625,-1.3580322265625,0.7781982421875
0.2262499,8.860940933227539,-4.410119533538818,0.24181437492370605,-2.38037109375,-0.9307861328125,1.495361328125
0.2287499,8.851364135742188,-4.4077253341674805,0.22744916379451752,-0.4730224609375,-0.9002685546875,1.5869140625
0.2312499,8.858546257019043,-4.400542736053467,0.21547815203666687,1.52587890625,-0.6866455078125,1.8768310546875
0.2337499,8.863334655761719,-4.3861775398254395,0.21787235140800476,3.2958984375,-0.3204345703125,1.9989013671875
0.2362499,8.884882926940918,-4.371812343597412,0.22026655077934265,5.2642822265625,0.030517578125,2.3345947265625
0.23874990000000001,8.892065048217773,-4.3622355461120605,0.23942017555236816,7.080078125,0.244140625,2.532958984375
0.2412499,8.901641845703125,-4.357447147369385,0.2561795711517334,8.85009765625,0.3204345703125,2.8076171875
0.2437499,8.913613319396973,-4.364629745483398,0.2825157940387726,10.6964111328125,0.6561279296875,2.8076171875
0.2462499,8.918401718139648,-4.383783340454102,0.3064578175544739,12.359619140625,0.9765625,3.082275390625
0.2487499,8.93037223815918,-4.405331134796143,0.33279404044151306,13.9923095703125,1.1444091796875,3.2958984375
0.2512499,8.935160636901855,-4.436455726623535,0.3471592366695404,15.8233642578125,1.373291015625,3.3721923828125
0.25374990000000003,8.93037223815918,-4.448426723480225,0.3495534360408783,17.6239013671875,1.6632080078125,3.7689208984375
0.25624990000000003,8.916007041931152,-4.434061527252197,0.33039984107017517,19.378662109375,1.89208984375,4.241943359375
0.25874990000000003,8.892065048217773,-4.436455726623535,0.30885201692581177,19.71435546875,1.953125,4.241943359375
0.26124990000000003,8.87051773071289,-4.431667327880859,0.2801215946674347,20.56884765625,2.0751953125,4.150390625
0.26374990000000004,8.858546257019043,-4.484339714050293,0.26815059781074524,22.247314453125,2.227783203125,4.8980712890625
0.26624990000000004,8.858546257019043,-4.529829502105713,0.26336219906806946,24.322509765625,2.50244140625,5.279541015625
0.26874990000000004,8.868123054504395,-4.513070106506348,0.2513911724090576,26.55029296875,2.86865234375,5.645751953125
0.27124990000000004,8.875306129455566,-4.477157115936279,0.2513911724090576,27.252197265625,3.23486328125,6.0882568359375
0.27374990000000005,8.865729331970215,-4.3622355461120605,0.2298433631658554,26.702880859375,3.204345703125,6.0882568359375
0.27624990000000005,8.846575736999512,-4.2951979637146,0.21547815203666687,27.3284912109375,2.9449462890625,6.5765380859375
0.27874990000000005,8.81784439086914,-4.268861770629883,0.2059013396501541,27.83203125,2.7923583984375,6.8511962890625
0.28124990000000005,8.798690795898438,-4.288015365600586,0.20111294090747833,29.1748046875,2.655029296875,7.0037841796875
0.28374990000000005,8.791508674621582,-4.290409564971924,0.20111294090747833,30.82275390625,2.74658203125,7.2784423828125
0.28624990000000006,8.789113998413086,-4.278438568115234,0.20350714027881622,31.6009521484375,2.7618408203125,7.6904296875
0.28874990000000006,8.777143478393555,-4.19224739074707,0.20350714027881622,31.524658203125,2.6702880859375,7.6446533203125
0.2912499,8.7484130859375,-4.113238334655762,0.2082955539226532,31.31103515625,2.5177001953125,7.8277587890625
0.2937499,8.700529098510742,-4.039018154144287,0.22026655077934265,31.1431884765625,2.166748046875,8.2244873046875
0.2962499,8.652645111083984,-4.015076160430908,0.23942017555236816,31.494140625,1.739501953125,8.453369140625
0.2987499,8.614337921142578,-4.010287761688232,0.2561795711517334,32.073974609375,1.3275146484375,8.697509765625
0.3012499,8.5903959274292,-4.02465295791626,0.26575639843940735,32.470703125,1.3580322265625,8.819580078125
0.3037499,8.561665534973145,-4.027047157287598,0.26815059781074524,32.3638916015625,1.4495849609375,9.0179443359375
0.3062499,8.525752067565918,-4.005499362945557,0.2513911724090576,32.0892333984375,1.220703125,9.0484619140625
0.3087499,8.468291282653809,-3.9839515686035156,0.22505496442317963,31.79931640625,0.5340576171875,9.27734375
0.3112499,8.40843677520752,-3.9480385780334473,0.19153612852096558,31.341552734375,-0.1678466796875,9.552001953125
0.3137499,8.367734909057617,-3.9217023849487305,0.15562310814857483,30.94482421875,-0.7476806640625,9.6282958984375
0.31624990000000003,8.35336971282959,-3.8953661918640137,0.13168109953403473,30.76171875,-0.946044921875,9.735107421875
0.31874990000000003,8.372523307800293,-3.8714241981506348,0.1173158809542656,30.3192138671875,-1.373291015625,10.07080078125
0.32124990000000003,8.403648376464844,-3.847482204437256,0.1149216815829277,29.6478271484375,-1.708984375,10.040283203125
0.32374990000000003,8.434772491455078,-3.825934410095215,0.12210428714752197,29.0679931640625,-1.9989013671875,10.25390625
0.32624990000000004,8.456320762634277,-3.799597978591919,0.13407529890537262,28.01513671875,-2.3345947265625,10.43701171875
0.32874990000000004,8.468291282653809,-3.780444383621216,0.15322890877723694,27.2064208984375,-3.082275390625,10.528564453125
0.33124990000000004,8.47547435760498,-3.758896589279175,0.17238251864910126,26.2908935546875,-3.570556640625,10.589599609375
0.33374990000000004,8.482656478881836,-3.751713991165161,0.19632454216480255,25.360107421875,-4.0435791015625,10.6658935546875
0.33624990000000005,8.489839553833008,-3.73016619682312,0.2059013396501541,24.017333984375,-4.33349609375,10.8642578125
0.33874990000000005,8.485051155090332,-3.732560396194458,0.21308395266532898,22.88818359375,-4.638671875,11.199951171875
0.34124990000000005,8.485051155090332,-3.732560396194458,0.2106897532939911,21.636962890625,-5.2032470703125,11.3525390625
0.34374990000000005,8.482656478881836,-3.754108190536499,0.20350714027881622,20.263671875,-5.6304931640625,11.3067626953125
0.34624990000000005,8.487444877624512,-3.77565598487854,0.19632454216480255,18.98193359375,-5.950927734375,11.4898681640625
0.34874990000000006,8.504204750061035,-3.804386615753174,0.1843535304069519,17.9290771484375,-6.3018798828125,11.474609375
0.35124990000000006,8.523358345031738,-3.8355112075805664,0.17477671802043915,16.632080078125,-6.591796875,11.566162109375
0.3537499,8.544905662536621,-3.864241600036621,0.16759411990642548,14.923095703125,-6.9122314453125,11.627197265625
0.3562499,8.559270858764648,-3.892971992492676,0.1628057211637497,13.702392578125,-7.0343017578125,11.77978515625
0.3587499,8.564059257507324,-3.9240965843200684,0.15801730751991272,12.481689453125,-7.3089599609375,11.90185546875
0.3612499,8.554482460021973,-3.957615375518799,0.15562310814857483,11.1541748046875,-7.598876953125,11.8408203125
0.3637499,8.542511940002441,-3.998316764831543,0.15083470940589905,9.9945068359375,-8.1329345703125,11.9781494140625
0.3662499,8.530540466308594,-4.043806552886963,0.14365209639072418,8.575439453125,-8.3465576171875,11.9781494140625
0.3687499,8.530540466308594,-4.086902141571045,0.1412578970193863,7.476806640625,-8.6517333984375,12.1612548828125
0.3712499,8.537723541259766,-4.122815132141113,0.13407529890537262,6.6070556640625,-8.7890625,12.2222900390625
0.3737499,8.554482460021973,-4.158728122711182,0.12210428714752197,5.5694580078125,-9.002685546875,12.176513671875
0.3762499,8.56645393371582,-4.197035789489746,0.10534487664699554,4.3487548828125,-9.185791015625,12.20703125
0.37874990000000003,8.578424453735352,-4.23773717880249,0.08619125932455063,3.509521484375,-9.2620849609375,12.115478515625
0.38124990000000003,8.578424453735352,-4.278438568115234,0.06224924325942993,2.5482177734375,-9.4451904296875,11.8408203125
0.38374990000000003,8.576030731201172,-4.311957359313965,0.038307227194309235,1.8310546875,-9.6282958984375,11.9781494140625
0.38624990000000003,8.56645393371582,-4.3406877517700195,0.0071826050989329815,1.1749267578125,-9.6893310546875,12.1917724609375
0.38874990000000004,8.547300338745117,-4.369418144226074,-0.019153613597154617,0.6103515625,-9.94873046875,12.0086669921875
0.39124990000000004,8.528146743774414,-4.390965938568115,-0.05027823522686958,-0.0457763671875,-10.07080078125,11.749267578125
0.39374990000000004,8.513781547546387,-4.426878929138184,-0.0694318488240242,-0.6561279296875,-10.31494140625,11.7645263671875
0.39624990000000004,8.501810073852539,-4.4532151222229,-0.08140286058187485,-1.1444091796875,-10.43701171875,11.5203857421875
0.39874990000000005,8.504204750061035,-4.481945514678955,-0.07661445438861847,-1.220703125,-10.467529296875,11.4898681640625
0.40124990000000005,8.508993148803711,-4.5154643058776855,-0.06464344263076782,-1.556396484375,-11.0015869140625,11.3677978515625
0.40374990000000005,8.513781547546387,-4.551377296447754,-0.033518824726343155,-1.678466796875,-10.986328125,11.16943359375
0.40624990000000005,8.525752067565918,-4.596867084503174,0,-1.5411376953125,-11.1083984375,11.16943359375
0.40874990000000005,8.537723541259766,-4.642356872558594,0.035913024097681046,-1.5106201171875,-11.3372802734375,11.04736328125
0.41124990000000006,8.556877136230469,-4.685452938079834,0.07661445438861847,-1.28173828125,-11.260986328125,10.7421875
0.41374990000000006,8.571242332458496,-4.721365928649902,0.10773907601833344,-1.0986328125,-11.0931396484375,10.7421875
0.41624990000000006,8.585607528686523,-4.750096321105957,0.12928688526153564,-0.7781982421875,-11.04736328125,10.772705078125
0.4187499,8.592789649963379,-4.771644115447998,0.1412578970193863,-0.48828125,-11.322021484375,10.7421875
0.4212499,8.5903959274292,-4.790797710418701,0.1412578970193863,-0.2593994140625,-10.986328125,10.589599609375
0.4237499,8.583212852478027,-4.817133903503418,0.12928688526153564,0.5340576171875,-10.6048583984375,10.7879638671875
0.4262499,8.5903959274292,-4.824316501617432,0.12210428714752197,0.9918212890625,-10.4217529296875,10.650634765625
0.4287499,8.60236644744873,-4.833893299102783,0.10534487664699554,1.5869140625,-10.345458984375,10.7269287109375
0.4312499,8.621520042419434,-4.845864295959473,0.09576806426048279,2.44140625,-10.19287109375,10.711669921875
0.4337499,8.638279914855957,-4.857835292816162,0.09576806426048279,3.1280517578125,-9.8724365234375,10.6048583984375
0.4362499,8.647856712341309,-4.867412090301514,0.10295066982507706,3.6773681640625,-9.8114013671875,10.7879638671875
0.4387499,8.652645111083984,-4.876988887786865,0.12449848651885986,4.21142578125,-9.82666015625,10.833740234375
0.44124990000000003,8.655038833618164,-4.876988887786865,0.15322890877723694,5.0811767578125,-9.6435546875,10.7269287109375
0.44374990000000003,8.662221908569336,-4.869806289672852,0.19153612852096558,5.9356689453125,-9.3994140625,11.0626220703125
0.44624990000000003,8.669404029846191,-4.853046894073486,0.22505496442317963,6.6680908203125,-9.1552734375,11.0626220703125
0.44874990000000003,8.681375503540039,-4.836287498474121,0.24660277366638184,7.2784423828125,-8.7432861328125,10.986328125
0.45124990000000004,8.688557624816895,-4.812345504760742,0.2537853717803955,7.8582763671875,-8.4991455078125,11.3677978515625
0.45374990000000004,8.688557624816895,-4.793191909790039,0.24420857429504395,8.5601806640625,-8.1634521484375,11.65771484375
0.45624990000000004,8.678980827331543,-4.776432514190674,0.2346317619085312,9.33837890625,-7.8887939453125,11.77978515625
0.45874990000000004,8.669404029846191,-4.759673118591309,0.22505496442317963,10.4217529296875,-7.4310302734375,11.7034912109375
0.46124990000000005,8.655038833618164,-4.742913722991943,0.22266076505184174,11.138916015625,-7.1563720703125,11.4593505859375
0.46374990000000005,8.638279914855957,-4.721365928649902,0.22026655077934265,12.054443359375,-7.1563720703125,11.7950439453125
0.46624990000000005,8.621520042419434,-4.697423934936523,0.21787235140800476,12.9547119140625,-7.293701171875,12.176513671875
0.46874990000000005,8.604761123657227,-4.671087741851807,0.21308395266532898,13.7786865234375,-7.1563720703125,12.1612548828125
0.47124990000000005,8.5903959274292,-4.644751071929932,0.21308395266532898,14.58740234375,-6.9122314453125,11.962890625
0.47374990000000006,8.576030731201172,-4.618414878845215,0.22266076505184174,15.5181884765625,-6.744384765625,12.0697021484375
0.47624990000000006,8.56884765625,-4.594472885131836,0.24181437492370605,16.4031982421875,-6.9580078125,12.1002197265625
0.47874990000000006,8.561665534973145,-4.572925090789795,0.26096799969673157,17.4102783203125,-6.9427490234375,12.26806640625
0.4812499,8.564059257507324,-4.55616569519043,0.2801215946674347,18.0511474609375,-6.7596435546875,12.481689453125
0.4837499,8.564059257507324,-4.5394062995910645,0.29209262132644653,18.768310546875,-6.7596435546875,12.481689453125
0.4862499,8.56884765625,-4.517858505249023,0.3016694188117981,19.6990966796875,-6.7901611328125,12.542724609375
0.4887499,8.56884765625,-4.491522312164307,0.2968810200691223,20.5535888671875,-6.8511962890625,12.5885009765625
0.4912499,8.580819129943848,-4.455609321594238,0.2849099934101105,20.99609375,-6.744384765625,12.969970703125
0.4937499,8.5903959274292,-4.414907932281494,0.2585737705230713,21.3470458984375,-6.744384765625,12.847900390625
0.4962499,8.607154846191406,-4.37420654296875,0.22266076505184174,21.9573974609375,-6.6070556640625,13.1683349609375
0.4987499,8.62391471862793,-4.331110954284668,0.181959331035614,22.308349609375,-6.4239501953125,13.4735107421875
0.5012499,8.633491516113281,-4.290409564971924,0.15083470940589905,22.491455078125,-6.34765625,13.641357421875
0.5037499000000001,8.643068313598633,-4.24970817565918,0.12210428714752197,22.6287841796875,-6.439208984375,13.916015625
0.5062499,8.647856712341309,-4.213795185089111,0.10534487664699554,22.613525390625,-6.2255859375,14.007568359375
0.5087499000000001,8.65743350982666,-4.177882194519043,0.09576806426048279,22.552490234375,-6.0272216796875,14.251708984375
0.5112499,8.669404029846191,-4.144362926483154,0.0933738648891449,22.3846435546875,-5.8746337890625,14.34326171875
0.5137499,8.686163902282715,-4.108449935913086,0.10295066982507706,22.15576171875,-5.8441162109375,14.7857666015625
0.5162499,8.698134422302246,-4.067748546600342,0.12210428714752197,21.91162109375,-5.7525634765625,14.70947265625
0.5187499,8.712499618530273,-4.017470359802246,0.14844051003456116,21.6217041015625,-5.6915283203125,15.0604248046875
0.5212499,8.722076416015625,-3.971980571746826,0.17956513166427612,21.2554931640625,-5.401611328125,15.1824951171875
0.5237499,8.734047889709473,-3.9264907836914062,0.21547815203666687,20.6756591796875,-5.2490234375,15.3961181640625
0.5262499,8.753201484680176,-3.885789394378662,0.24899697303771973,20.3704833984375,-5.1422119140625,15.4571533203125
0.5287499,8.777143478393555,-3.8546648025512695,0.2753331959247589,19.9432373046875,-5.0201416015625,15.5181884765625
0.5312499,8.80587387084961,-3.8307228088378906,0.2992752194404602,19.47021484375,-4.638671875,15.716552734375
0.5337499,8.829815864562988,-3.8115692138671875,0.31124621629714966,18.829345703125,-4.547119140625,15.869140625
0.5362499000000001,8.851364135742188,-3.804386615753174,0.31124621629714966,18.1427001953125,-4.2724609375,15.7470703125
0.5387499,8.865729331970215,-3.8067808151245117,0.30885201692581177,17.6849365234375,-4.08935546875,16.2353515625
0.5412499000000001,8.87291145324707,-3.823540210723877,0.2968810200691223,17.120361328125,-3.72314453125,16.4337158203125
0.5437499,8.865729331970215,-3.8498764038085938,0.2849099934101105,16.8914794921875,-3.5247802734375,16.66259765625
0.5462499000000001,8.851364135742188,-3.883395195007324,0.2753331959247589,16.6473388671875,-3.662109375,17.059326171875
0.5487499,8.825027465820312,-3.9240965843200684,0.26575639843940735,16.4337158203125,-3.47900390625,17.303466796875
0.5512499000000001,8.796297073364258,-3.957615375518799,0.27054479718208313,16.143798828125,-3.35693359375,17.3797607421875
0.5537499,8.779537200927734,-3.9887399673461914,0.2801215946674347,15.7470703125,-3.4637451171875,17.822265625
0.5562499000000001,8.767566680908203,-4.019864559173584,0.2968810200691223,15.19775390625,-3.265380859375,18.3563232421875
0.5587499,8.769960403442383,-4.041412353515625,0.31364041566848755,15.0146484375,-3.23486328125,18.49365234375
0.5612499000000001,8.777143478393555,-4.060565948486328,0.3256114423274994,14.739990234375,-3.2501220703125,18.8140869140625
0.5637499,8.793902397155762,-4.0749311447143555,0.33279404044151306,14.3890380859375,-3.2196044921875,19.3023681640625
0.5662499000000001,8.822632789611816,-4.082113742828369,0.33518823981285095,14.09912109375,-3.4942626953125,19.59228515625
0.5687499,8.846575736999512,-4.086902141571045,0.3280056416988373,13.8092041015625,-3.35693359375,19.805908203125
0.5712499000000001,8.877699851989746,-4.084507942199707,0.31842881441116333,13.6260986328125,-3.0059814453125,20.1263427734375
0.5737499,8.9064302444458,-4.084507942199707,0.3064578175544739,13.1072998046875,-3.0364990234375,20.3094482421875
0.5762499000000001,8.925583839416504,-4.084507942199707,0.304063618183136,12.5732421875,-2.9296875,20.4620361328125
0.5787499,8.949525833129883,-4.091690540313721,0.31124621629714966,11.8408203125,-3.1280517578125,20.8282470703125
0.5812499,8.96389102935791,-4.110844135284424,0.3256114423274994,11.5814208984375,-3.1280517578125,21.1639404296875
0.5837499,8.980650901794434,-4.137180328369141,0.3447650372982025,11.29150390625,-3.082275390625,21.30126953125
0.5862499,8.990227699279785,-4.175487995147705,0.3711012601852417,10.528564453125,-3.2196044921875,21.3165283203125
0.5887499,8.995016098022461,-4.220977783203125,0.3998316824436188,10.040283203125,-3.0975341796875,21.4385986328125
0.5912499,8.990227699279785,-4.268861770629883,0.42856210470199585,9.46044921875,-3.0364990234375,21.2249755859375
0.5937499,8.983044624328613,-4.316745758056641,0.4644751250743866,9.0179443359375,-3.021240234375,21.3623046875
0.5962499,8.978256225585938,-4.369418144226074,0.5027823448181152,8.453369140625,-3.0975341796875,21.514892578125
0.5987499000000001,8.973467826843262,-4.41969633102417,0.5363011956214905,7.8582763671875,-2.9754638671875,21.2860107421875
0.6012499,8.980650901794434,-4.4723687171936035,0.569819986820221,7.3089599609375,-2.777099609375,21.1029052734375
0.6037499000000001,8.990227699279785,-4.532223701477051,0.6009446382522583,6.8206787109375,-2.7923583984375,21.148681640625
0.6062499,9.006986618041992,-4.596867084503174,0.6272808313369751,6.4697265625,-2.8839111328125,21.026611328125
0.6087499000000001,9.014169692993164,-4.661510944366455,0.6560112833976746,5.950927734375,-2.4261474609375,20.9197998046875
0.6112499,9.02135181427002,-4.72376012802124,0.6799532771110535,5.645751953125,-2.349853515625,20.7672119140625
0.6137499000000001,9.026140213012695,-4.78122091293335,0.706289529800415,5.2642822265625,-2.0599365234375,20.538330078125
0.6162499,9.026140213012695,-4.836287498474121,0.7230489253997803,5.0048828125,-1.9378662109375,20.44677734375
0.6187499000000001,9.033323287963867,-4.898536682128906,0.7398083209991455,4.7149658203125,-2.0294189453125,20.1416015625
0.6212499,9.042900085449219,-4.975151062011719,0.751779317855835,4.608154296875,-1.739501953125,20.0653076171875
0.6237499000000001,9.045293807983398,-5.061342239379883,0.7637503147125244,4.3487548828125,-1.556396484375,19.866943359375
0.6262499,9.05487060546875,-5.154716491699219,0.7757213711738586,4.486083984375,-1.6937255859375,19.805908203125
0.6287499000000001,9.059659004211426,-5.2480902671813965,0.7972691655158997,4.8065185546875,-1.312255859375,19.683837890625
0.6312499,9.05247688293457,-5.420472621917725,0.849941611289978,5.0201416015625,-1.2054443359375,19.4854736328125
0.6337499000000001,9.040505409240723,-5.492298603057861,0.8786720037460327,5.401611328125,-0.9918212890625,19.256591796875
0.6362499,9.026140213012695,-5.549759387969971,0.9169792532920837,5.645751953125,-1.15966796875,19.2718505859375
0.6387499000000001,9.006986618041992,-5.595249176025391,0.950498104095459,6.2408447265625,-1.129150390625,19.3023681640625
0.6412499,8.987833023071289,-5.635950565338135,0.9888052940368652,6.6070556640625,-0.9613037109375,19.1497802734375
0.6437499,8.968679428100586,-5.676652431488037,1.0223240852355957,7.1563720703125,-1.129150390625,19.0887451171875
0.6462499,8.954314231872559,-5.7125654220581055,1.0438719987869263,7.8887939453125,-1.0986328125,18.798828125
0.6487499,8.944737434387207,-5.738901615142822,1.0534487962722778,8.4075927734375,-1.2054443359375,18.5699462890625
0.6512499,8.935160636901855,-5.7556610107421875,1.0534487962722778,8.941650390625,-1.007080078125,18.463134765625
0.6537499,8.939949035644531,-5.760449409484863,1.0462661981582642,9.5672607421875,-0.8392333984375,18.280029296875
0.6562499,8.949525833129883,-5.765237808227539,1.0342950820922852,10.0860595703125,-1.129150390625,18.0511474609375
0.6587499,8.971074104309082,-5.774814605712891,1.0199298858642578,10.650634765625,-0.9765625,17.913818359375
0.6612499000000001,8.995016098022461,-5.789179801940918,1.0103530883789062,11.444091796875,-1.1138916015625,17.730712890625
0.6637499,9.01895809173584,-5.803544998168945,1.0007762908935547,11.932373046875,-1.40380859375,17.1661376953125
0.6662499000000001,9.042900085449219,-5.8203043937683105,0.9911994934082031,12.359619140625,-1.2969970703125,16.8914794921875
0.6687499,9.059659004211426,-5.829881191253662,0.9792284965515137,12.6953125,-1.3275146484375,16.7236328125
0.6712499000000001,9.071630477905273,-5.8442463874816895,0.9576807022094727,13.275146484375,-1.28173828125,16.4337158203125
0.6737499,9.07641887664795,-5.853823184967041,0.9481038451194763,13.427734375,-1.15966796875,16.3116455078125
0.6762499000000001,9.078812599182129,-5.861005783081055,0.9313444495201111,13.85498046875,-1.2664794921875,15.838623046875
0.6787499,9.083600997924805,-5.868188381195068,0.9361328482627869,14.5416259765625,-1.5869140625,15.4571533203125
0.6812499000000001,9.090784072875977,-5.870582580566406,0.9385270476341248,14.6942138671875,-1.739501953125,15.106201171875
0.6837499,9.105149269104004,-5.8657941818237305,0.9528923034667969,14.556884765625,-1.8768310546875,14.7552490234375
0.6862499000000001,9.117119789123535,-5.863399982452393,0.9648633003234863,14.739990234375,-1.8157958984375,14.1754150390625
0.6887499,9.141061782836914,-5.851428985595703,0.9840168952941895,15.1214599609375,-2.044677734375,13.6871337890625
0.6912499000000001,9.162610054016113,-5.834669589996338,1.0007762908935547,14.9993896484375,-2.0751953125,13.4429931640625
0.6937499,9.188945770263672,-5.813121795654297,1.01753568649292,15.0299072265625,-2.044677734375,12.6800537109375
0.6962499000000001,9.21288776397705,-5.784391403198242,1.0223240852355957,15.0299072265625,-2.0294189453125,12.1002197265625
0.6987499,9.232041358947754,-5.75326681137085,1.015141487121582,14.862060546875,-2.0599365234375,11.383056640625
0.7012499000000001,9.246406555175781,-5.724536418914795,1.0055646896362305,14.739990234375,-1.8768310546875,10.8184814453125
0.7037499,9.253589630126953,-5.693411827087402,0.9888052940368652,14.3280029296875,-1.7852783203125,10.0860595703125
0.7062499,9.258378028869629,-5.664681434631348,0.9696516990661621,13.9312744140625,-1.89208984375,9.124755859375
0.7087499,9.263166427612305,-5.638344764709473,0.9481038451194763,13.8092041015625,-2.01416015625,8.48388671875
0.7112499,9.26795482635498,-5.602431774139404,0.9265560507774353,13.4429931640625,-1.9073486328125,7.598876953125
0.7137499,9.277531623840332,-5.568912982940674,0.9074024558067322,13.0767822265625,-2.0904541015625,6.6375732421875
0.7162499,9.275136947631836,-5.52821159362793,0.8978256583213806,12.7410888671875,-2.13623046875,5.67626953125
0.7187499,9.275136947631836,-5.489904403686523,0.8930372595787048,12.1917724609375,-2.3345947265625,4.730224609375
0.7212499,9.27034854888916,-5.456385612487793,0.9026140570640564,11.6424560546875,-2.5177001953125,3.753662109375
0.7237499000000001,9.26795482635498,-5.430049419403076,0.912190854549408,11.0931396484375,-2.7008056640625,2.5177001953125
0.7262499,9.272743225097656,-5.413290023803711,0.9313444495201111,10.7421875,-2.74658203125,1.495361328125
0.7287499000000001,9.284713745117188,-5.4013190269470215,0.9457096457481384,10.25390625,-3.0059814453125,0.518798828125
0.7312499,9.301473617553711,-5.394136428833008,0.9624691009521484,9.8419189453125,-3.265380859375,-0.6103515625
0.7337499000000001,9.313444137573242,-5.396530628204346,0.9744400978088379,9.3994140625,-3.265380859375,-1.8157958984375
0.7362499,9.318233489990234,-5.394136428833008,0.9888052940368652,9.033203125,-3.2806396484375,-2.7618408203125
0.7387499000000001,9.313444137573242,-5.4013190269470215,0.9983820915222168,8.36181640625,-3.265380859375,-3.7994384765625
0.7412499,9.311050415039062,-5.4013190269470215,1.0103530883789062,7.781982421875,-3.265380859375,-4.7607421875
0.7437499000000001,9.30386734008789,-5.415684223175049,1.01753568649292,7.1563720703125,-3.4332275390625,-5.7525634765625
0.7462499,9.296685218811035,-5.430049419403076,1.0295066833496094,6.53076171875,-3.5552978515625,-6.65283203125
0.7487499000000001,9.289502143859863,-5.449203014373779,1.0414776802062988,6.04248046875,-3.5552978515625,-7.4310302734375
0.7512499,9.282320022583008,-5.475539207458496,1.0606313943862915,5.79833984375,-3.5400390625,-8.148193359375
0.7537499000000001,9.272743225097656,-5.494692802429199,1.0749965906143188,5.5999755859375,-3.72314453125,-9.1094970703125
0.7562499,9.27034854888916,-5.518634796142578,1.091755986213684,5.218505859375,-3.936767578125,-9.9029541015625
0.7587499000000001,9.263166427612305,-5.5329999923706055,1.1037269830703735,4.69970703125,-3.875732421875,-10.467529296875
0.7612499,9.260771751403809,-5.549759387969971,1.115697979927063,4.2266845703125,-3.90625,-11.1236572265625
0.7637499000000001,9.258378028869629,-5.564124584197998,1.1324573755264282,3.8909912109375,-3.9825439453125,-11.8865966796875
0.7662499,9.258378028869629,-5.57370138168335,1.1492167711257935,3.6468505859375,-3.875732421875,-12.603759765625
0.7687499000000001,9.263166427612305,-5.580883979797363,1.173158884048462,3.387451171875,-3.9520263671875,-13.4124755859375
0.7712499,9.265560150146484,-5.595249176025391,1.2018892765045166,3.2196044921875,-4.058837890625,-14.09912109375
0.7737499,9.272743225097656,-5.60722017288208,1.235408067703247,3.082275390625,-3.9825439453125,-14.58740234375
0.7762499,9.275136947631836,-5.628767967224121,1.2737152576446533,3.143310546875,-4.1046142578125,-15.3656005859375
0.7787499,9.277531623840332,-5.65031623840332,1.3024457693099976,2.9449462890625,-4.058837890625,-16.0980224609375
0.7812499,9.279925346374512,-5.671864032745361,1.3335703611373901,3.11279296875,-4.2266845703125,-16.632080078125
0.7837499,9.279925346374512,-5.6910176277160645,1.359906554222107,3.35693359375,-4.3792724609375,-17.242431640625
0.7862499000000001,9.282320022583008,-5.700594425201416,1.3838485479354858,3.4637451171875,-4.1046142578125,-17.913818359375
0.7887499,9.282320022583008,-5.702988624572754,1.4053963422775269,3.5858154296875,-3.875732421875,-18.768310546875
0.7912499000000001,9.272743225097656,-5.69580602645874,1.4221558570861816,3.4942626953125,-3.96728515625,-19.378662109375
0.7937499,9.258378028869629,-5.679046630859375,1.4317326545715332,3.448486328125,-3.936767578125,-19.8974609375
0.7962499000000001,9.251194953918457,-5.674258232116699,1.4389152526855469,3.4332275390625,-3.692626953125,-20.5230712890625
0.7987499,9.251194953918457,-5.671864032745361,1.4460978507995605,3.9520263671875,-3.5858154296875,-20.8892822265625
0.8012499000000001,9.255983352661133,-5.679046630859375,1.455674648284912,4.2266845703125,-3.4637451171875,-21.5911865234375
0.8037499,9.255983352661133,-5.674258232116699,1.4700398445129395,4.1046142578125,-3.0364990234375,-22.2015380859375
0.8062499000000001,9.241618156433105,-5.65031623840332,1.479616641998291,3.96728515625,-3.2196044921875,-22.8424072265625
0.8087499,9.217676162719727,-5.612008571624756,1.4867992401123047,3.8299560546875,-3.41796875,-23.4375
0.8112499000000001,9.188945770263672,-5.559336185455322,1.4844050407409668,3.5400390625,-3.265380859375,-23.86474609375
0.8137499,9.172186851501465,-5.513846397399902,1.4772224426269531,3.3416748046875,-3.2196044921875,-24.47509765625
0.8162499000000001,9.162610054016113,-5.475539207458496,1.4724340438842773,3.570556640625,-3.1890869140625,-25.1922607421875
0.8187499,9.155426979064941,-5.449203014373779,1.4676456451416016,3.5247802734375,-2.8228759765625,-25.8331298828125
0.8212499000000001,9.150638580322266,-5.427655220031738,1.4652514457702637,3.5247802734375,-2.7923583984375,-26.2298583984375
0.8237499,9.141061782836914,-5.415684223175049,1.460463047027588,3.3721923828125,-2.685546875,-26.580810546875
0.8262499000000001,9.121908187866211,-5.408501625061035,1.4437036514282227,3.0670166015625,-2.593994140625,-27.2216796875
0.8287499,9.102754592895508,-5.39174222946167,1.4269442558288574,3.021240234375,-2.410888671875,-27.9083251953125
0.8312499000000001,9.07641887664795,-5.370194435119629,1.400607943534851,2.716064453125,-2.3956298828125,-28.3355712890625
0.8337499,9.05247688293457,-5.329493045806885,1.3742717504501343,2.38037109375,-2.4566650390625,-28.7322998046875
0.8362499,9.028534889221191,-5.281609058380127,1.3455413579940796,1.983642578125,-2.5177001953125,-29.4342041015625
0.8387499,9.006986618041992,-5.236119270324707,1.3192051649093628,1.46484375,-2.44140625,-29.84619140625
0.8412499,8.978256225585938,-5.185841083526611,1.292868971824646,0.7476806640625,-2.685546875,-30.548095703125
0.8437499,8.975862503051758,-5.17626428604126,1.292868971824646,0.2899169921875,-2.7923583984375,-30.975341796875
0.8462499,8.980650901794434,-5.1595048904418945,1.2832920551300049,-0.091552734375,-2.9449462890625,-31.5093994140625
0.8487499000000001,8.987833023071289,-5.149928092956543,1.2856862545013428,-0.30517578125,-3.021240234375,-31.9366455078125
0.8512499,8.990227699279785,-5.137956619262695,1.2856862545013428,-0.457763671875,-3.1280517578125,-32.3028564453125
0.8537499000000001,8.990227699279785,-5.118803024291992,1.292868971824646,-0.9307861328125,-3.0670166015625,-32.53173828125
0.8562499,8.980650901794434,-5.102043628692627,1.3072341680526733,-1.373291015625,-3.1890869140625,-32.71484375
0.8587499000000001,8.973467826843262,-5.070919036865234,1.3215993642807007,-1.6632080078125,-3.387451171875,-33.172607421875
0.8612499,8.96149730682373,-5.037400245666504,1.3335703611373901,-2.288818359375,-3.4942626953125,-33.5540771484375
0.8637499000000001,8.949525833129883,-4.999093055725098,1.3431471586227417,-2.7618408203125,-3.4332275390625,-33.782958984375
0.8662499,8.937555313110352,-4.955997467041016,1.3431471586227417,-2.74658203125,-3.2958984375,-34.1339111328125
0.8687499000000001,8.913613319396973,-4.912901878356934,1.3407529592514038,-3.0975341796875,-3.2958984375,-34.4390869140625
0.8712499,8.892065048217773,-4.869806289672852,1.3335703611373901,-3.3721923828125,-3.570556640625,-34.820556640625
0.8737499000000001,8.868123054504395,-4.8267107009887695,1.3311761617660522,-3.7384033203125,-3.326416015625,-35.33935546875
0.8762499,8.844181060791016,-4.790797710418701,1.3239935636520386,-3.936767578125,-3.5400390625,-35.5377197265625
0.8787499000000001,8.825027465820312,-4.764461517333984,1.3311761617660522,-4.3182373046875,-3.5858154296875,-35.8123779296875
0.8812499,8.813055992126465,-4.742913722991943,1.3263877630233765,-4.4097900390625,-3.72314453125,-36.3311767578125
0.8837499000000001,8.808267593383789,-4.721365928649902,1.3263877630233765,-4.4708251953125,-3.7994384765625,-36.8499755859375
0.8862499,8.810662269592285,-4.702212333679199,1.3263877630233765,-4.852294921875,-3.662109375,-37.139892578125
0.8887499000000001,8.813055992126465,-4.675876140594482,1.3215993642807007,-4.9896240234375,-3.6163330078125,-37.3687744140625
0.8912499,8.813055992126465,-4.659116744995117,1.3263877630233765,-5.157470703125,-3.7841796875,-37.6739501953125
0.8937499000000001,8.803479194641113,-4.651933670043945,1.3335703611373901,-5.2490234375,-3.7841796875,-37.6739501953125
0.8962499,8.798690795898438,-4.644751071929932,1.3527239561080933,-5.462646484375,-3.662109375,-38.2080078125
0.8987499,8.796297073364258,-4.63517427444458,1.3718775510787964,-5.340576171875,-3.875732421875,-38.4063720703125
0.9012499,8.791508674621582,-4.630385875701904,1.3958195447921753,-5.4931640625,-4.0130615234375,-38.63525390625
0.9037499,8.789113998413086,-4.613626480102539,1.41257905960083,-5.462646484375,-3.662109375,-38.6962890625
0.9062499,8.786720275878906,-4.599261283874512,1.4245500564575195,-5.1116943359375,-3.7841796875,-38.909912109375
0.9087499,8.78193187713623,-4.580107688903809,1.4293384552001953,-5.2490234375,-3.4942626953125,-38.9556884765625
0.9112499000000001,8.774748802185059,-4.565742492675781,1.434126853942871,-5.0811767578125,-3.41796875,-38.7420654296875
0.9137499,8.772355079650879,-4.558559894561768,1.434126853942871,-4.791259765625,-3.47900390625,-38.7115478515625
0.9162499000000001,8.772355079650879,-4.55616569519043,1.4413094520568848,-4.6234130859375,-3.4332275390625,-38.87939453125
0.9187499,8.772355079650879,-4.55616569519043,1.4437036514282227,-4.4097900390625,-3.4332275390625,-38.665771484375
0.9212499000000001,8.767566680908203,-4.558559894561768,1.455674648284912,-4.180908203125,-3.204345703125,-38.4063720703125
0.9237499,8.757989883422852,-4.553771495819092,1.4628572463989258,-3.997802734375,-2.8533935546875,-38.1011962890625
0.9262499000000001,8.738836288452148,-4.548983097076416,1.4724340438842773,-3.7384033203125,-2.7923583984375,-37.8570556640625
0.9287499,8.712499618530273,-4.537012100219727,1.4748282432556152,-3.143310546875,-2.8839111328125,-37.2467041015625
0.9312499000000001,8.683769226074219,-4.520252704620361,1.4772224426269531,-2.9754638671875,-2.6092529296875,-36.7584228515625
0.9337499,8.643068313598633,-4.491522312164307,1.4748282432556152,-2.4871826171875,-2.3040771484375,-36.407470703125
0.9362499000000001,8.595184326171875,-4.460397720336914,1.4724340438842773,-2.01416015625,-2.197265625,-35.6597900390625
0.9387499,8.544905662536621,-4.422090530395508,1.4652514457702637,-1.5411376953125,-2.349853515625,-35.0494384765625
0.9412499000000001,8.49941635131836,-4.3861775398254395,1.460463047027588,-1.3580322265625,-2.2735595703125,-34.4085693359375
0.9437499,8.458714485168457,-4.338293552398682,1.4437036514282227,-0.946044921875,-1.9989013671875,-33.6151123046875
0.9462499000000001,8.427590370178223,-4.2975921630859375,1.4293384552001953,-0.6103515625,-1.708984375,-32.7606201171875
0.9487499,8.401253700256348,-4.247313976287842,1.400607943534851,-0.3814697265625,-1.800537109375,-31.8756103515625
0.9512499000000001,8.377311706542969,-4.20421838760376,1.3766659498214722,-0.3204345703125,-1.495361328125,-30.8990478515625
0.9537499,8.348581314086914,-4.156333923339844,1.3455413579940796,-0.274658203125,-1.2359619140625,-30.2886962890625
0.9562499000000001,8.315062522888184,-4.1156325340271,1.316810965538025,-0.1068115234375,-1.3275146484375,-28.8848876953125
0.9587499,8.26478385925293,-4.072536945343018,1.2880805730819702,0.1068115234375,-1.0528564453125,-27.862548828125
0.9612499,8.212111473083496,-4.027047157287598,1.256955862045288,0.18310546875,-0.946044921875,-26.763916015625
0.9637499,8.154650688171387,-3.976768970489502,1.2330138683319092,0.0762939453125,-0.518798828125,-25.6195068359375
0.9662499,8.10437297821045,-3.9193081855773926,1.1994950771331787,0.0457763671875,-0.5035400390625,-24.47509765625
0.9687499,8.058882713317871,-3.8570590019226074,1.170764684677124,-0.213623046875,-0.7171630859375,-23.4527587890625
0.9712499,8.018181800842285,-3.7900211811065674,1.1348515748977661,-0.2593994140625,-0.396728515625,-22.3846435546875
0.9737499000000001,7.982268333435059,-3.7277719974517822,1.0965443849563599,-0.3204345703125,-0.244140625,-20.965576171875
0.9762499,7.9415669441223145,-3.667917013168335,1.0606313943862915,-0.5645751953125,-0.3509521484375,-20.0653076171875
0.9787499000000001,7.90086555480957,-3.6128504276275635,1.0247182846069336,-0.5035400390625,-0.4119873046875,-18.8751220703125
0.9812499,7.85537576675415,-3.557783842086792,0.9888052940368652,-0.5645751953125,-0.2899169921875,-17.9595947265625
0.9837499000000001,7.8098859786987305,-3.4979286193847656,0.9528923034667969,-0.7476806640625,-0.457763671875,-16.876220703125
0.9862499,7.769184589385986,-3.428496837615967,0.9145850539207458,-0.9307861328125,-0.5645751953125,-15.777587890625
0.9887499000000001,7.728483200073242,-3.3662476539611816,0.8690952062606812,-0.946044921875,-0.8087158203125,-14.7247314453125
0.9912499,7.690176010131836,-3.31118106842041,0.8331822156906128,-1.1749267578125,-0.9918212890625,-13.885498046875
0.9937499000000001,7.649474620819092,-3.2632968425750732,0.7852981686592102,-1.0833740234375,-1.15966796875,-12.9547119140625
0.9962499,7.603984832763672,-3.2321722507476807,0.751779317855835,-0.9613037109375,-1.46484375,-11.9476318359375
0.9987499000000001,7.558494567871094,-3.201047658920288,0.7158663272857666,-0.823974609375,-1.8463134765625,-10.92529296875
1.0012499,7.513004779815674,-3.1699230670928955,0.6823474764823914,-0.91552734375,-2.0904541015625,-10.101318359375
1.0037498999999999,7.469909191131592,-3.1316158771514893,0.6560112833976746,-0.732421875,-2.3040771484375,-9.002685546875
1.0062499,7.422025203704834,-3.090914487838745,0.6320692300796509,-0.457763671875,-2.8533935546875,-7.9345703125
1.0087499,7.376535415649414,-3.050212860107422,0.6105214357376099,-0.091552734375,-3.326416015625,-7.0953369140625
1.0112499,7.326257228851318,-3.026270866394043,0.6033388376235962,0.2288818359375,-3.570556640625,-6.0577392578125
1.0137498999999999,7.283161640167236,-3.0119056701660156,0.5985504388809204,0.5340576171875,-4.33349609375,-5.035400390625
1.0162499,7.2352776527404785,-3.0190882682800293,0.6105214357376099,1.1749267578125,-4.8828125,-3.875732421875
1.0187499,7.196970462799072,-3.0310592651367188,0.6200982332229614,1.4495849609375,-5.2032470703125,-2.838134765625
1.0212499,7.156269073486328,-3.050212860107422,0.646434485912323,2.166748046875,-5.9051513671875,-1.64794921875
1.0237498999999999,7.115567684173584,-3.0597896575927734,0.6631938815116882,2.86865234375,-6.2255859375,-0.30517578125
1.0262498999999998,7.0772600173950195,-3.066972494125366,0.6847416758537292,3.7078857421875,-6.591796875,1.0986328125
1.0287499,7.0341644287109375,-3.064578056335449,0.6967126727104187,4.425048828125,-7.1563720703125,2.532958984375
1.0312499,6.9910688400268555,-3.066972494125366,0.7038952708244324,5.1116943359375,-7.9498291015625,3.753662109375
1.0337498999999999,6.94079065322876,-3.066972494125366,0.706289529800415,6.04248046875,-8.4075927734375,5.3863525390625
1.0362498999999998,6.892906665802002,-3.071760892868042,0.7086837291717529,7.1258544921875,-8.8958740234375,6.9732666015625
1.0387499,6.84981107711792,-3.066972494125366,0.7134721279144287,8.209228515625,-9.46044921875,8.4228515625
1.0412499,6.813898086547852,-3.0621838569641113,0.7230489253997803,9.3841552734375,-9.8419189453125,10.0250244140625
1.0437499,6.773196697235107,-3.045424461364746,0.7445967197418213,10.3759765625,-10.406494140625,11.566162109375
1.0462498999999998,6.737283706665039,-3.028665065765381,0.7637503147125244,11.383056640625,-11.29150390625,13.3209228515625
1.0487499,6.6391215324401855,-3.0119056701660156,0.8140285611152649,13.580322265625,-12.298583984375,16.9677734375
1.0512499,6.588842868804932,-3.00711727142334,0.8236053586006165,14.862060546875,-12.75634765625,18.9971923828125
1.0537499,6.54574728012085,-3.002328872680664,0.8236053586006165,15.899658203125,-13.580322265625,20.9808349609375
1.0562498999999999,6.507440090179443,-2.9879636764526367,0.811634361743927,16.7694091796875,-13.9923095703125,23.040771484375
1.0587499,6.464344501495361,-2.964021682739258,0.7829039692878723,17.6239013671875,-14.46533203125,25.1617431640625
1.0612499,6.40927791595459,-2.9281086921691895,0.7541735172271729,18.341064453125,-14.9993896484375,27.28271484375
1.0637499,6.344634532928467,-2.8778305053710938,0.7134721279144287,19.134521484375,-15.80810546875,29.3731689453125
1.0662498999999999,6.268020153045654,-2.8179752826690674,0.6727706789970398,19.7601318359375,-16.387939453125,31.5093994140625
1.0687499,6.191405773162842,-2.7509377002716064,0.6320692300796509,20.01953125,-16.8914794921875,33.782958984375
1.0712499,6.110002517700195,-2.6862943172454834,0.5889736413955688,20.1568603515625,-17.303466796875,35.858154296875
1.0737499,6.028599739074707,-2.6216509342193604,0.545877993106842,20.3399658203125,-17.852783203125,37.9638671875
1.0762498999999999,5.944802761077881,-2.559401512145996,0.49320554733276367,20.5230712890625,-18.463134765625,40.3289794921875
1.0787499,5.8657941818237305,-2.499546527862549,0.43095630407333374,20.538330078125,-19.1192626953125,42.4957275390625
1.0812499,5.78678560256958,-2.4396915435791016,0.3687070608139038,20.355224609375,-19.561767578125,44.5098876953125
1.0837499,5.70777702331543,-2.3798365592956543,0.3016694188117981,20.263671875,-20.2789306640625,46.8902587890625
1.0862498999999999,5.6191911697387695,-2.322375535964966,0.23942017555236816,19.866943359375,-20.599365234375,48.9959716796875
1.0887499,5.530605792999268,-2.2673089504241943,0.17717093229293823,19.3023681640625,-20.9197998046875,51.055908203125
1.0912499,5.430049419403076,-2.2170307636260986,0.11971008777618408,18.7530517578125,-21.7132568359375,53.5888671875
1.0937499,5.341464042663574,-2.1715409755706787,0.06703764945268631,17.9595947265625,-22.064208984375,55.8013916015625
1.0962498999999999,5.262455463409424,-2.1284453868865967,0.023942016065120697,17.3187255859375,-22.6898193359375,58.074951171875
1.0987498999999998,5.185841083526611,-2.0829553604125977,-0.014365210197865963,16.510009765625,-22.918701171875,60.2874755859375
1.1012499,5.106832027435303,-2.027888774871826,-0.047884032130241394,15.6097412109375,-23.13232421875,62.6678466796875
1.1037499,5.027823448181152,-1.968033790588379,-0.08619125932455063,14.5111083984375,-23.6358642578125,65.277099609375
1.1062499,4.9368438720703125,-1.9033904075622559,-0.13168109953403473,13.336181640625,-23.9715576171875,67.44384765625
1.1087498999999998,4.862623691558838,-1.845929503440857,-0.1843535304069519,12.1612548828125,-24.0325927734375,69.7021484375
1.1112499,4.786009311676025,-1.7860745191574097,-0.2561795711517334,10.9100341796875,-24.1851806640625,71.929931640625
1.1137499,4.726154327392578,-1.7334020137786865,-0.33997663855552673,9.5062255859375,-24.2462158203125,74.3560791015625
1.1162499,4.685452938079834,-1.6759412288665771,-0.4405331015586853,8.1787109375,-24.1546630859375,76.7974853515625
1.1187498999999999,4.6471452713012695,-1.623268723487854,-0.5554547905921936,6.34765625,-24.3988037109375,79.16259765625
1.1212499,4.616020679473877,-1.580173134803772,-0.6655880808830261,4.0130615234375,-24.5513916015625,81.9549560546875
1.1237499,4.577713489532471,-1.5634137392044067,-0.7565677165985107,1.953125,-24.1546630859375,84.77783203125
1.1262499,4.525041103363037,-1.5729905366897583,-0.8307880163192749,-0.1678466796875,-23.9715576171875,87.1734619140625
1.1287498999999999,4.455609321594238,-1.6089035272598267,-0.8810662031173706,-2.2735595703125,-23.895263671875,89.8590087890625
1.1312499,4.376600742340088,-1.656787633895874,-0.9050082564353943,-4.241943359375,-23.5748291015625,92.6055908203125
1.1337499,4.278438568115234,-1.699883222579956,-0.9241618514060974,-6.500244140625,-23.1475830078125,95.2301025390625
1.1362499,4.173093795776367,-1.745373010635376,-0.9289502501487732,-8.575439453125,-22.64404296875,97.71728515625
1.1387498999999999,4.0533833503723145,-1.7812861204147339,-0.9481038451194763,-10.650634765625,-21.942138671875,100.4791259765625
1.1412499,3.9169139862060547,-1.824381709098816,-0.9864110946655273,-12.6953125,-21.3775634765625,103.0120849609375
1.1437499,3.77565598487854,-1.8698714971542358,-1.0534487962722778,-14.6331787109375,-21.1334228515625,105.5755615234375
1.1462499,3.6296098232269287,-1.9105730056762695,-1.1468225717544556,-16.9219970703125,-21.1029052734375,107.9254150390625
1.1487498999999999,3.4955344200134277,-1.965639591217041,-1.2545616626739502,-19.256591796875,-20.8282470703125,110.4888916015625
1.1512499,3.3949780464172363,-2.013523578643799,-1.3670891523361206,-21.5911865234375,-20.6451416015625,112.701416015625
1.1537499,3.313575267791748,-2.0590133666992188,-1.479616641998291,-23.4222412109375,-20.111083984375,115.142822265625
1.1562499,3.251325845718384,-2.097320795059204,-1.5849615335464478,-25.8941650390625,-19.5770263671875,117.462158203125
1.1587498999999999,3.1890766620635986,-2.1308395862579346,-1.678335428237915,-28.38134765625,-19.10400390625,119.9493408203125
1.1612498999999998,3.1076738834381104,-2.1811177730560303,-1.766920804977417,-30.8837890625,-18.24951171875,122.4365234375
1.1637499,3.002328872680664,-2.2673089504241943,-1.824381709098816,-33.1573486328125,-17.7764892578125,124.7711181640625
1.1662499,2.875436305999756,-2.3942017555236816,-1.8770540952682495,-35.0189208984375,-17.2882080078125,126.9683837890625
1.1687499,2.734178304672241,-2.542642116546631,-1.9033904075622559,-36.5142822265625,-16.754150390625,129.08935546875
1.1712498999999998,2.5905263423919678,-2.715024709701538,-1.9321208000183105,-37.841796875,-15.9454345703125,130.9051513671875
1.1737499,2.451662540435791,-2.8778305053710938,-1.9488801956176758,-38.51318359375,-15.411376953125,133.270263671875
1.1762499,2.319981336593628,-3.0406360626220703,-1.968033790588379,-39.764404296875,-14.7247314453125,135.284423828125
1.1787499,2.212242364883423,-3.1866824626922607,-1.9847931861877441,-40.58837890625,-14.129638671875,137.39013671875
1.1812498999999999,2.1308395862579346,-3.3207578659057617,-2.008735179901123,-41.2445068359375,-13.6260986328125,139.8773193359375
1.1837499,2.0829553604125977,-3.445256233215332,-2.0398597717285156,-42.144775390625,-13.24462890625,142.51708984375
1.1862499,2.0661959648132324,-3.5673606395721436,-2.0925323963165283,-42.999267578125,-12.8173828125,145.08056640625
1.1887499,2.0614075660705566,-3.6966474056243896,-2.145204782485962,-43.7164306640625,-12.14599609375,147.705078125
1.1912498999999999,2.0638017654418945,-3.8355112075805664,-2.2194249629974365,-44.219970703125,-11.5203857421875,150.5889892578125
1.1937499,2.056619167327881,-3.9839515686035156,-2.293645143508911,-44.5556640625,-10.6201171875,153.5491943359375
1.1962499,2.0398597717285156,-4.132391929626465,-2.3726539611816406,-44.9066162109375,-9.7198486328125,156.73828125
1.1987499,2.011129379272461,-4.273650169372559,-2.449268341064453,-44.9066162109375,-8.8348388671875,160.0341796875
1.2012498999999999,1.9704279899597168,-4.400542736053467,-2.52109432220459,-45.257568359375,-7.99560546875,163.1317138671875
1.2037499,1.9177556037902832,-4.5154643058776855,-2.6024973392486572,-45.7305908203125,-7.080078125,166.4276123046875
1.2062499,1.8579005002975464,-4.618414878845215,-2.676717519760132,-45.623779296875,-6.3934326171875,169.73876953125
1.2087499,1.7884687185287476,-4.716577529907227,-2.760514497756958,-45.71533203125,-5.7373046875,173.2177734375
1.2112498999999999,1.7166426181793213,-4.8267107009887695,-2.8395233154296875,-45.9136962890625,-4.8370361328125,176.971435546875
1.2137499,1.644816517829895,-4.953603267669678,-2.9233202934265137,-46.20361328125,-4.1351318359375,180.7098388671875
1.2162499,1.5921441316604614,-5.104437828063965,-3.00711727142334,-46.08154296875,-3.3111572265625,184.5703125
1.2187499,1.556231141090393,-5.276820659637451,-3.093308687210083,-45.83740234375,-2.4871826171875,188.3697509765625
1.2212498999999999,1.5418659448623657,-5.463568210601807,-3.177105665206909,-45.83740234375,-1.4801025390625,192.1844482421875
1.2237498999999998,1.5466543436050415,-5.655104637145996,-3.2561142444610596,-45.8526611328125,-0.5340576171875,195.9228515625
1.2262499,1.5682021379470825,-5.825092792510986,-3.3303346633911133,-45.5169677734375,0.457763671875,199.859619140625
1.2287499,1.599326729774475,-5.978321552276611,-3.404554843902588,-45.41015625,1.434326171875,203.8116455078125
1.2312499,1.6352397203445435,-6.114790916442871,-3.4763808250427246,-45.5322265625,2.5177001953125,207.8094482421875
1.2337498999999998,1.6615760326385498,-6.2416839599609375,-3.56017804145813,-45.8221435546875,3.7384033203125,211.5020751953125
1.2362499,1.6663644313812256,-6.385335922241211,-3.648763418197632,-45.9442138671875,5.0048828125,215.5303955078125
1.2387499,1.6496049165725708,-6.53377628326416,-3.754108190536499,-45.7000732421875,6.3934326171875,219.29931640625
1.2412499,1.6208745241165161,-6.701370716094971,-3.8714241981506348,-45.989990234375,7.4310302734375,223.1597900390625
1.2437498999999999,1.5897499322891235,-6.871358871459961,-3.9911341667175293,-46.234130859375,8.5601806640625,227.23388671875
1.2462499,1.5634137392044067,-7.041347026824951,-4.110844135284424,-46.6156005859375,9.796142578125,230.89599609375
1.2487499,1.5538369417190552,-7.216124057769775,-4.225766181945801,-47.1038818359375,10.9710693359375,234.6649169921875
1.2512499,1.5538369417190552,-7.38132381439209,-4.333505153656006,-47.637939453125,12.26806640625,238.311767578125
1.2537498999999999,1.5729905366897583,-7.548917770385742,-4.448426723480225,-48.583984375,13.3514404296875,242.00439453125
1.2562499,1.599326729774475,-7.718906402587891,-4.558559894561768,-49.346923828125,14.5111083984375,245.60546875
1.2587499,1.6639702320098877,-8.051700592041016,-4.802768707275391,-51.33056640625,16.998291015625,252.197265625
1.2612499,1.702277421951294,-8.216899871826172,-4.932055473327637,-52.55126953125,18.2342529296875,255.2337646484375
1.2637498999999999,1.7405846118927002,-8.377311706542969,-5.066130638122559,-54.046630859375,19.71435546875,258.1634521484375
1.2662499,1.7836803197860718,-8.561665534973145,-5.193023681640625,-55.2520751953125,21.1639404296875,260.9405517578125
1.2687499,1.8339585065841675,-8.774748802185059,-5.315127849578857,-56.7626953125,22.705078125,263.1072998046875
1.2712499,1.8914192914962769,-9.02135181427002,-5.420472621917725,-58.2122802734375,24.3377685546875,265.7623291015625
1.2737498999999999,1.9584569931030273,-9.315838813781738,-5.51624059677124,-59.5550537109375,25.970458984375,267.9901123046875
1.2762499,2.013523578643799,-9.627084732055664,-5.602431774139404,-61.2335205078125,27.4810791015625,270.01953125
1.2787499,2.0685901641845703,-9.971850395202637,-5.681440830230713,-62.9730224609375,28.900146484375,271.6827392578125
1.2812499,2.1140801906585693,-10.335768699645996,-5.7556610107421875,-64.178466796875,30.70068359375,273.468017578125
1.2837498999999999,2.1571757793426514,-10.711658477783203,-5.827486991882324,-65.8416748046875,32.196044921875,275.1312255859375
1.2862498999999998,2.2002713680267334,-11.099518775939941,-5.8873419761657715,-67.108154296875,33.9813232421875,276.79443359375
1.2887499,2.250549554824829,-11.492168426513672,-5.942408561706543,-68.328857421875,35.614013671875,278.3966064453125
1.2912499,2.3104045391082764,-11.882423400878906,-5.990292549133301,-69.9310302734375,37.109375,279.60205078125
1.2937499,2.3726539611816406,-12.27267837524414,-6.023811340332031,-71.83837890625,39.00146484375,280.975341796875
1.2962498999999998,2.4420857429504395,-12.653355598449707,-6.0621185302734375,-73.486328125,40.9698486328125,282.196044921875
1.2987499,2.5115175247192383,-13.029245376586914,-6.076483726501465,-75.439453125,42.8466796875,283.2794189453125
1.3012499,2.580949544906616,-13.385981559753418,-6.081272125244141,-77.239990234375,44.7235107421875,284.24072265625
1.3037499,2.650381326675415,-13.716381072998047,-6.0621185302734375,-79.16259765625,46.661376953125,285.4766845703125
1.3062498999999999,2.7269957065582275,-14.020444869995117,-6.021417140960693,-81.512451171875,48.3245849609375,286.102294921875
1.3087499,2.8131868839263916,-14.27662467956543,-5.975927352905273,-83.92333984375,50.2777099609375,286.31591796875
1.3112499,2.913743495941162,-14.516044616699219,-5.918466567993164,-86.700439453125,52.337646484375,286.2548828125
1.3137499,3.0382418632507324,-14.733917236328125,-5.868188381195068,-89.4622802734375,54.1229248046875,286.7431640625
1.3162498999999999,3.1890766620635986,-14.958971977233887,-5.813121795654297,-91.8731689453125,55.8013916015625,286.6058349609375
1.3187499,3.35667085647583,-15.2151517868042,-5.760449409484863,-94.6807861328125,57.4188232421875,286.407470703125
1.3212499,3.531447410583496,-15.500061988830566,-5.705382823944092,-97.6409912109375,59.3414306640625,286.0107421875
1.3237499,3.7181951999664307,-15.811307907104492,-5.647922039031982,-100.76904296875,60.882568359375,285.6597900390625
1.3262498999999999,3.9001545906066895,-16.136919021606445,-5.590460777282715,-104.0802001953125,62.3626708984375,285.125732421875
1.3287499,4.089296340942383,-16.4625301361084,-5.5329999923706055,-107.3760986328125,63.9801025390625,284.5001220703125
1.3312499,4.261679172515869,-16.75941276550293,-5.492298603057861,-110.9771728515625,65.9332275390625,283.7982177734375
1.3337499,4.41969633102417,-17.027563095092773,-5.458779811859131,-114.6087646484375,67.352294921875,282.7911376953125
1.3362498999999999,4.551377296447754,-17.264589309692383,-5.453991413116455,-118.621826171875,68.817138671875,281.402587890625
1.3387499,4.656722068786621,-17.482460021972656,-5.463568210601807,-122.1160888671875,69.9005126953125,280.0140380859375
1.3412499,4.742913722991943,-17.68117904663086,-5.489904403686523,-125.7476806640625,70.80078125,278.594970703125
1.3437499,4.821922302246094,-17.877504348754883,-5.525817394256592,-129.2724609375,71.5789794921875,277.03857421875
1.3462498999999999,4.900930881500244,-18.061857223510742,-5.571307182312012,-133.3160400390625,72.296142578125,275.177001953125
1.3487498999999998,4.999093055725098,-18.255788803100586,-5.626373767852783,-137.664794921875,72.7691650390625,273.0560302734375
1.3512499,5.130774021148682,-18.452112197875977,-5.681440830230713,-141.6168212890625,73.18115234375,271.331787109375
1.3537499,5.288791656494141,-18.65801429748535,-5.729324817657471,-145.99609375,73.54736328125,268.890380859375
1.3562499,5.477933406829834,-18.883068084716797,-5.762843608856201,-150.726318359375,74.03564453125,266.2200927734375
1.3587498999999998,5.6670756340026855,-19.112911224365234,-5.770026206970215,-155.2734375,74.4476318359375,263.5345458984375
1.3612499,5.851428985595703,-19.359514236450195,-5.75326681137085,-159.698486328125,74.52392578125,260.7421875
1.3637499,6.0190229415893555,-19.637243270874023,-5.700594425201416,-164.1998291015625,74.310302734375,257.537841796875
1.3662499,6.172252178192139,-19.92694091796875,-5.628767967224121,-168.5333251953125,74.4476318359375,253.875732421875
1.3687498999999999,6.320692539215088,-20.238187789916992,-5.52821159362793,-172.332763671875,74.3865966796875,250.1678466796875
1.3712499,6.471527099609375,-20.563798904418945,-5.4228668212890625,-175.84228515625,74.310302734375,245.9259033203125
1.3737499,6.617573261260986,-20.8894100189209,-5.310339450836182,-179.0771484375,74.1729736328125,241.4703369140625
1.3762499,6.763619899749756,-21.210233688354492,-5.214571475982666,-181.6864013671875,73.3489990234375,236.99951171875
1.3787498999999999,6.912060260772705,-21.50711441040039,-5.152322292327881,-183.65478515625,71.990966796875,232.147216796875
1.3812499,7.0772600173950195,-21.777658462524414,-5.142745018005371,-186.065673828125,70.6634521484375,227.23388671875
1.3837499,7.275979042053223,-22.002714157104492,-5.190629482269287,-188.079833984375,69.3359375,222.1832275390625
1.3862499,7.515398979187012,-22.201433181762695,-5.279214859008789,-189.9261474609375,68.115234375,216.9342041015625
1.3887498999999999,7.795520782470703,-22.36902618408203,-5.384559631347656,-191.83349609375,66.8182373046875,211.517333984375
1.3912499,8.090007781982422,-22.510284423828125,-5.468356609344482,-193.328857421875,65.2618408203125,206.0546875
1.3937499,8.396465301513672,-22.637176513671875,-5.523423194885254,-194.9005126953125,63.3087158203125,200.6378173828125
1.3962499,8.69334602355957,-22.737733840942383,-5.537788391113281,-196.59423828125,61.6302490234375,195.1446533203125
1.3987498999999999,8.975862503051758,-22.819135665893555,-5.518634796142578,-197.8607177734375,59.906005859375,189.361572265625
1.4012499,9.239224433898926,-22.886173248291016,-5.473145008087158,-198.944091796875,58.074951171875,183.502197265625
1.4037499,9.47146224975586,-22.941240310668945,-5.413290023803711,-200.103759765625,56.0302734375,177.3834228515625
1.4062499,9.68694019317627,-22.986730575561523,-5.341464042663574,-201.1260986328125,54.107666015625,171.0052490234375
1.4087498999999999,9.895236015319824,-23.03461456298828,-5.272032260894775,-202.484130859375,51.849365234375,164.6881103515625
1.4112498999999998,10.11550235748291,-23.070528030395508,-5.207388877868652,-203.6285400390625,49.6978759765625,157.8826904296875
1.4137499,10.3549222946167,-23.08968162536621,-5.16429328918457,-204.8187255859375,47.454833984375,151.0467529296875
1.4162499,10.611102104187012,-23.09446907043457,-5.135562419891357,-205.8868408203125,45.0286865234375,143.9208984375
1.4187499,10.886435508728027,-23.07771110534668,-5.123591423034668,-207.1075439453125,42.29736328125,136.4898681640625
1.4212498999999998,11.164162635803223,-23.048980712890625,-5.137956619262695,-208.1451416015625,39.5355224609375,128.7841796875
1.4237499,11.458649635314941,-23.005884170532227,-5.142745018005371,-208.9691162109375,37.1246337890625,120.6207275390625
1.4262499,11.75792407989502,-22.948423385620117,-5.169081687927246,-209.89990234375,34.1339111328125,112.518310546875
1.4287499,12.069170951843262,-22.886173248291016,-5.188235282897949,-210.6781005859375,31.1126708984375,103.9581298828125
1.4312498999999999,12.38759994506836,-22.816741943359375,-5.214571475982666,-211.212158203125,28.3050537109375,95.3826904296875
1.4337499,12.722787857055664,-22.754493713378906,-5.240907669067383,-211.3189697265625,25.1922607421875,87.0208740234375
1.4362499,13.06755256652832,-22.72336769104004,-5.262455463409424,-211.85302734375,22.1405029296875,78.155517578125
1.4387499,13.4506254196167,-22.713790893554688,-5.281609058380127,-211.6546630859375,19.0582275390625,69.183349609375
1.4412498999999999,13.855245590209961,-22.73055076599121,-5.30076265335083,-210.9832763671875,16.0675048828125,60.3179931640625
1.4437499,14.298172950744629,-22.752098083496094,-5.3127336502075195,-210.296630859375,13.427734375,51.5289306640625
1.4462499,14.769830703735352,-22.749704360961914,-5.319916248321533,-209.991455078125,10.8642578125,42.4346923828125
1.4487499,15.270218849182129,-22.735340118408203,-5.30076265335083,-210.0067138671875,8.5601806640625,33.6761474609375
1.4512498999999999,15.787365913391113,-22.73294448852539,-5.260061264038086,-210.2508544921875,6.072998046875,24.688720703125
1.4537499,16.33085060119629,-22.752098083496094,-5.190629482269287,-210.2508544921875,3.6163330078125,15.44189453125
1.4562499,16.881515502929688,-22.809558868408203,-5.116408824920654,-209.930419921875,1.40380859375,6.6680908203125
1.4587499,17.42978858947754,-22.888568878173828,-5.0469770431518555,-209.65576171875,-0.6256103515625,-2.38037109375
1.4612498999999999,17.98045539855957,-22.931663513183594,-5.003881454467773,-209.41162109375,-2.960205078125,-11.8560791015625
1.4637499,18.52633285522461,-22.91490364074707,-4.991910457611084,-209.0606689453125,-5.950927734375,-21.3775634765625
1.4662499,19.105730056762695,-22.797588348388672,-5.020640850067139,-209.4268798828125,-8.9874267578125,-31.0211181640625
1.4687499,20.40338706970215,-22.278047561645508,-5.032611846923828,-212.982177734375,-14.312744140625,-51.3916015625
1.4712498999999999,21.097705841064453,-21.954830169677734,-4.920084476470947,-215.728759765625,-16.4947509765625,-61.6912841796875
1.4737498999999998,21.789628982543945,-21.67710304260254,-4.663905143737793,-218.56689453125,-19.012451171875,-72.32666015625
1.4762499,22.440853118896484,-21.44486427307129,-4.259284973144531,-221.2371826171875,-21.8963623046875,-83.4808349609375
1.4787499,23.053768157958984,-21.306001663208008,-3.7277719974517822,-223.8922119140625,-25.299072265625,-95.245361328125
1.4812499,23.63077163696289,-21.226991653442383,-3.0813376903533936,-227.2796630859375,-29.2205810546875,-107.177734375
1.4837498999999998,24.155101776123047,-21.171926498413086,-2.382230758666992,-230.65185546875,-33.203125,-119.68994140625
1.4862499,24.657882690429688,-21.167137145996094,-1.6496049165725708,-234.06982421875,-37.2772216796875,-132.7972412109375
1.4887499,25.119964599609375,-21.171926498413086,-0.9289502501487732,-237.6708984375,-41.50390625,-146.3165283203125
1.4912499,25.572467803955078,-21.188684463500977,-0.24181437492370605,-241.3482666015625,-45.71533203125,-160.2783203125
1.4937498999999999,25.977088928222656,-21.2676944732666,0.4692635238170624,-245.4376220703125,-49.4842529296875,-174.3621826171875
1.4962499,26.338613510131836,-21.408950805664062,1.2090718746185303,-249.4049072265625,-53.6346435546875,-189.0869140625
1.4987499,26.654647827148438,-21.62682342529297,1.9943699836730957,-252.13623046875,-57.861328125,-203.9947509765625
1.5012499,26.963499069213867,-21.914127349853516,2.827552318572998,-254.3792724609375,-62.4847412109375,-218.6737060546875
1.5037498999999999,27.291505813598633,-22.24213409423828,3.667917013168335,-256.5460205078125,-66.58935546875,-233.70361328125
1.5062499,27.665000915527344,-22.577322006225586,4.4939165115356445,-258.7127685546875,-70.3125,-249.1455078125
1.5087499,28.033708572387695,-22.941240310668945,5.343858242034912,-260.8489990234375,-74.4781494140625,-264.556884765625
1.5112499,28.37607765197754,-23.365015029907227,6.236895561218262,-263.0615234375,-78.6590576171875,-279.5867919921875
1.5137498999999999,28.658594131469727,-23.867795944213867,7.175422668457031,-264.678955078125,-83.0230712890625,-295.074462890625
1.5162499,28.893226623535156,-24.478317260742188,8.20732307434082,-265.3350830078125,-87.0361328125,-311.1114501953125
1.5187499,29.075185775756836,-25.175031661987305,9.27034854888916,-266.5557861328125,-91.217041015625,-326.72119140625
1.5212499,29.22123146057129,-25.9483585357666,10.393229484558105,-267.852783203125,-95.4132080078125,-342.6971435546875
1.5237498999999999,29.30023956298828,-26.769569396972656,11.520898818969727,-270.111083984375,-98.9990234375,-358.58154296875
1.5262499,29.28826904296875,-27.662607192993164,12.63899040222168,-272.8424072265625,-102.2796630859375,-374.420166015625
1.5287499,29.156587600708008,-28.644229888916016,13.709198951721191,-275.1922607421875,-105.3466796875,-390.380859375
1.5312499,28.86210060119629,-29.728801727294922,14.695610046386719,-277.130126953125,-107.7728271484375,-406.5399169921875
1.5337498999999999,28.397626876831055,-30.91393280029297,15.600618362426758,-279.144287109375,-109.527587890625,-422.7752685546875
1.5362499,27.744009017944336,-32.16370391845703,16.421829223632812,-281.73828125,-110.8551025390625,-439.02587890625
1.5387499,26.898855209350586,-33.4637565612793,17.223886489868164,-284.515380859375,-111.7401123046875,-455.5206298828125
1.5412499,25.89568519592285,-34.840423583984375,18.04988670349121,-287.7349853515625,-112.9302978515625,-471.7254638671875
1.5437499,24.756046295166016,-36.29609680175781,18.930952072143555,-290.4052734375,-113.8153076171875,-488.09814453125
1.5462498999999998,23.546974182128906,-37.8547248840332,19.85750961303711,-291.839599609375,-113.8458251953125,-500
1.5487499,22.29720115661621,-39.47799301147461,20.796035766601562,-292.236328125,-113.494873046875,-500
1.5512499,21.006725311279297,-41.122806549072266,21.674707412719727,-292.0684814453125,-113.4185791015625,-500
1.5537499,19.661184310913086,-42.77001953125,22.450429916381836,-292.0989990234375,-112.97607421875,-500
1.5562498999999999,18.198328018188477,-44.386104583740234,23.065738677978516,-290.71044921875,-112.823486328125,-500
1.5587499,16.606182098388672,-45.96867370605469,23.5086669921875,-287.6129150390625,-113.2354736328125,-500
1.5612499,14.846445083618164,-47.47462463378906,23.75766372680664,-283.50830078125,-114.166259765625,-500
1.5637499,12.90953540802002,-48.882415771484375,23.810335159301758,-279.1290283203125,-116.02783203125,-500
1.5662498999999999,10.795455932617188,-50.14655303955078,23.70020294189453,-273.895263671875,-118.408203125,-500
1.5687499,8.518569946289062,-51.2646484375,23.434446334838867,-267.364501953125,-121.76513671875,-500
1.5712499,6.100425720214844,-52.215145111083984,23.041797637939453,-259.796142578125,-126.1138916015625,-500
1.5737499,3.550601005554199,-53.00044250488281,22.531831741333008,-250.8697509765625,-130.8441162109375,-500
1.5762498999999999,0.8667010068893433,-53.60857009887695,21.92609977722168,-240.72265625,-136.5966796875,-500
1.5787499,-1.9919757843017578,-54.039527893066406,21.21502113342285,-229.7515869140625,-144.378662109375,-500
1.5812499,-5.054159641265869,-54.26218795776367,20.42254066467285,-218.44482421875,-154.1748046875,-500
1.5837499,-8.324639320373535,-54.24782180786133,19.50316619873047,-206.8023681640625,-165.924072265625,-500
1.5862498999999999,-11.774683952331543,-53.917423248291016,18.454505920410156,-194.488525390625,-179.3670654296875,-500
1.5887499,-15.354015350341797,-53.21831512451172,17.221492767333984,-183.3953857421875,-194.0460205078125,-500
1.5912499,-18.978836059570312,-52.07867431640625,15.811307907104492,-173.2635498046875,-209.89990234375,-500
1.5937499,-22.55337905883789,-50.467376708984375,14.245500564575195,-164.215087890625,-226.5472412109375,-500
1.5962498999999999,-26.00821304321289,-48.322174072265625,12.574347496032715,-154.84619140625,-242.889404296875,-500
1.5987499,-29.27390480041504,-45.655033111572266,10.900800704956055,-146.30126953125,-258.97216796875,-500
1.6012499,-32.36481857299805,-42.453983306884766,9.289502143859863,-139.5416259765625,-274.3377685546875,-500
1.6037499,-35.32884216308594,-38.87944030761719,7.908048152923584,-135.467529296875,-288.9862060546875,-500
1.6062499,-38.21864318847656,-35.13251495361328,6.739677906036377,-133.8958740234375,-302.9022216796875,-500
1.6087498999999998,-41.118019104003906,-31.546001434326172,5.8657941818237305,-133.9263916015625,-316.3604736328125,-500
1.6112499,-43.95035934448242,-28.13187026977539,5.008669853210449,-133.941650390625,-328.948974609375,-500
1.6137499,-46.52891540527344,-25.09123420715332,4.07014274597168,-136.65771484375,-338.897705078125,-500
1.6162499,-48.628631591796875,-22.05538558959961,2.868253707885742,-138.36669921875,-344.54345703125,-500
1.6187498999999999,-49.976566314697266,-18.89743423461914,1.4173674583435059,-140.7928466796875,-344.78759765625,-500
1.6212499,-50.54638671875,-15.46414852142334,-0.0454898327589035,-147.5982666015625,-340.7745361328125,-500
1.6237499,-50.462589263916016,-11.793837547302246,-1.290474772453308,-157.8826904296875,-333.526611328125,-500
1.6262499,-49.89276885986328,-8.027758598327637,-2.1499931812286377,-167.0684814453125,-324.432373046875,-500
1.6287498999999999,-49.06437683105469,-4.383783340454102,-2.5306711196899414,-175.2471923828125,-313.232421875,-499.4354248046875
1.6312499,-48.2982292175293,-1.0319008827209473,-2.4851813316345215,-184.356689453125,-299.49951171875,-481.0028076171875
1.6337499,-47.666160583496094,1.9105730056762695,-2.126051187515259,-192.8558349609375,-284.8663330078125,-462.0513916015625
1.6362499,-47.20168685913086,4.436455726623535,-1.7741034030914307,-197.32666015625,-268.9056396484375,-443.0084228515625
1.6387498999999999,-46.73481750488281,6.464344501495361,-1.6112977266311646,-199.5697021484375,-249.0081787109375,-423.1414794921875
1.6412499,-46.05247116088867,8.087613105773926,-1.7405846118927002,-199.9359130859375,-224.8077392578125,-403.2745361328125
1.6437499,-45.06127166748047,9.406818389892578,-2.1140801906585693,-196.685791015625,-199.3560791015625,-383.0108642578125
1.6462499,-43.81867980957031,10.493785858154297,-2.4684219360351562,-191.7877197265625,-175.8575439453125,-362.2589111328125
1.6487498999999999,-42.453983306884766,11.4849853515625,-2.6862943172454834,-185.2569580078125,-153.4271240234375,-340.972900390625
1.6512499,-41.03901290893555,12.445060729980469,-2.75812029838562,-177.0477294921875,-131.1492919921875,-319.091796875
1.6537499,-39.647979736328125,13.402741432189941,-2.786850690841675,-166.900634765625,-109.2376708984375,-296.4019775390625
1.6562499,-38.34074783325195,14.295778274536133,-2.8826189041137695,-156.1126708984375,-87.432861328125,-273.01025390625
1.6587498999999999,-37.17477035522461,15.0355863571167,-3.0813376903533936,-144.439697265625,-66.436767578125,-248.443603515625
1.6612499,-36.188358306884766,15.516820907592773,-3.3877954483032227,-131.53076171875,-45.8221435546875,-223.297119140625
1.6637499,-35.379119873046875,15.674838066101074,-3.751713991165161,-116.4398193359375,-25.5889892578125,-197.8912353515625
1.6662499,-34.70634841918945,15.509638786315918,-4.137180328369141,-99.5025634765625,-6.40869140625,-172.119140625
1.6687499,-34.117374420166016,15.064316749572754,-4.481945514678955,-81.0546875,11.566162109375,-146.1944580078125
1.6712498999999998,-33.566707611083984,14.415488243103027,-4.766855716705322,-61.58447265625,27.9998779296875,-119.842529296875
1.6737499,-33.00407028198242,13.661314964294434,-4.967968463897705,-41.32080078125,42.724609375,-93.2769775390625
1.6762499,-32.38397216796875,12.904747009277344,-5.1116204261779785,-19.805908203125,55.8624267578125,-67.5048828125
1.6787499,-30.7894344329834,11.741165161132812,-5.51624059677124,21.697998046875,79.559326171875,-17.425537109375
1.6812498999999999,-29.745561599731445,11.403582572937012,-5.863399982452393,40.008544921875,90.362548828125,6.1187744140625
1.6837499,-28.56521987915039,11.176133155822754,-6.289567947387695,56.8389892578125,100.2349853515625,28.564453125
1.6862499,-27.308263778686523,10.967838287353516,-6.730101108551025,72.44873046875,110.04638671875,49.713134765625
1.6887499,-26.06328010559082,10.6925048828125,-7.127538681030273,86.822509765625,118.3013916015625,69.4732666015625
1.6912498999999999,-24.906879425048828,10.292673110961914,-7.467514991760254,99.945068359375,125.2593994140625,87.005615234375
1.6937499,-23.894132614135742,9.737217903137207,-7.733271598815918,111.2213134765625,131.683349609375,102.3406982421875
1.6962499,-23.046585083007812,9.050082206726074,-7.975085735321045,120.8038330078125,137.0697021484375,116.3330078125
1.6987499,-22.342689514160156,8.274360656738281,-8.20492935180664,128.6468505859375,141.41845703125,128.326416015625
1.7012498999999999,-21.741744995117188,7.462726593017578,-8.480262756347656,134.552001953125,145.4315185546875,138.6260986328125
1.7037499,-21.19347381591797,6.675034523010254,-8.813055992126465,138.5955810546875,149.0325927734375,146.9268798828125
1.7062499,-20.66196060180664,5.9304375648498535,-9.205705642700195,140.68603515625,152.2979736328125,153.8238525390625
1.7087499,-20.140024185180664,5.216965675354004,-9.627084732055664,141.5863037109375,154.8309326171875,159.3170166015625
1.7112498999999999,-19.598934173583984,4.532223701477051,-10.031704902648926,141.448974609375,156.6619873046875,162.90283203125
1.7137499,-19.02432632446289,3.840299606323242,-10.376470565795898,140.5792236328125,157.40966796875,164.55078125
1.7162499,-18.380287170410156,3.160346269607544,-10.647014617919922,140.07568359375,157.5469970703125,165.22216796875
1.7187499,-17.640478134155273,2.4875755310058594,-10.81460952758789,139.007568359375,157.318115234375,164.8101806640625
1.7212498999999999,-16.807296752929688,1.8124107122421265,-10.910377502441406,136.9476318359375,156.0516357421875,163.299560546875
1.7237499,-15.866374969482422,1.115697979927063,-10.910377502441406,134.7808837890625,153.656005859375,161.1328125
1.7262499,-14.863204002380371,0.3974374830722809,-10.852916717529297,133.6517333984375,151.3824462890625,158.4625244140625
1.7287499,-13.792996406555176,-0.3663128614425659,-10.735600471496582,131.622314453125,148.529052734375,155.8074951171875
1.7312499,-12.684480667114258,-1.1444283723831177,-10.589553833007812,130.2642822265625,145.2789306640625,153.4576416015625
1.7337498999999998,-11.556811332702637,-1.941697597503662,-10.433931350708008,128.9825439453125,141.6778564453125,150.8636474609375
1.7362499,-10.402806282043457,-2.719813108444214,-10.29746150970459,128.204345703125,137.9547119140625,148.86474609375
1.7387499,-9.239224433898926,-3.4739866256713867,-10.20648193359375,127.7008056640625,134.4757080078125,147.1710205078125
1.7412499,-8.054094314575195,-4.180276393890381,-10.168174743652344,127.6092529296875,131.072998046875,145.599365234375
1.7437498999999999,-6.854599475860596,-4.821922302246094,-10.194510459899902,128.082275390625,127.2735595703125,144.500732421875
1.7462499,-5.655104637145996,-5.398924827575684,-10.266336441040039,128.8909912109375,123.7335205078125,143.85986328125
1.7487499,-4.4508209228515625,-5.901707172393799,-10.38604736328125,129.7454833984375,120.6207275390625,143.00537109375
1.7512499,-3.2561142444610596,-6.337451934814453,-10.517727851867676,130.706787109375,117.4468994140625,142.1051025390625
1.7537498999999999,-2.073378562927246,-6.7061591148376465,-10.668562889099121,131.9122314453125,114.3798828125,141.7999267578125
1.7562499,-0.9145850539207458,-7.015010833740234,-10.802638053894043,133.697509765625,111.602783203125,141.4947509765625
1.7587499,0.20350714027881622,-7.259219646453857,-10.915165901184082,135.43701171875,108.7188720703125,140.899658203125
1.7612499,1.2617442607879639,-7.445967197418213,-10.984597206115723,136.7340087890625,106.4300537109375,140.0299072265625
1.7637498999999999,2.2457611560821533,-7.568071365356445,-11.02051067352295,137.908935546875,104.18701171875,139.5263671875
1.7662499,3.141192674636841,-7.63989782333374,-11.0300874710083,139.2669677734375,102.142333984375,138.61083984375
1.7687499,3.936067581176758,-7.675810813903809,-11.015722274780273,139.9993896484375,100.311279296875,137.8631591796875
1.7712499,4.6040496826171875,-7.702147006988525,-10.994174003601074,140.56396484375,98.907470703125,136.6729736328125
1.7737498999999999,5.147533416748047,-7.747636795043945,-10.967838287353516,141.1895751953125,97.5494384765625,135.284423828125
1.7762499,5.559336185455322,-7.807491779327393,-10.946290016174316,141.815185546875,96.6949462890625,133.2855224609375
1.7787499,5.853823184967041,-7.881711959838867,-10.934319496154785,142.2882080078125,96.0235595703125,131.7291259765625
1.7812499,6.0621185302734375,-7.948749542236328,-10.934319496154785,142.88330078125,95.6268310546875,130.2032470703125
1.7837498999999999,6.200982570648193,-8.018181800842285,-10.946290016174316,142.5933837890625,95.4132080078125,128.0059814453125
1.7862499,6.303933143615723,-8.08282470703125,-10.967838287353516,141.7388916015625,95.1690673828125,125.3814697265625
1.7887499,6.390124320983887,-8.169015884399414,-11.001357078552246,140.6707763671875,95.0927734375,122.98583984375
1.7912499,6.476315498352051,-8.267178535461426,-11.039664268493652,139.7705078125,95.3216552734375,120.60546875
1.7937499,6.572083473205566,-8.374917984008789,-11.080365180969238,139.22119140625,95.8099365234375,118.2403564453125
1.7962498999999998,6.672640323638916,-8.463502883911133,-11.135432243347168,138.5498046875,96.8780517578125,115.4632568359375
1.7987499,6.777985095977783,-8.53532886505127,-11.185709953308105,137.6953125,97.625732421875,112.24365234375
1.8012499,6.878541469573975,-8.580819129943848,-11.243170738220215,136.9171142578125,98.6175537109375,108.9935302734375
1.8037499,6.976703643798828,-8.604761123657227,-11.291055679321289,136.077880859375,99.884033203125,105.89599609375
1.8062498999999999,7.06528902053833,-8.621520042419434,-11.329362869262695,134.8114013671875,101.1199951171875,102.4017333984375
1.8087499,7.158663272857666,-8.628703117370605,-11.346121788024902,133.7432861328125,102.569580078125,99.3194580078125
1.8112499,7.230489253997803,-8.62391471862793,-11.331756591796875,131.89697265625,104.00390625,95.733642578125
1.8137499,7.285555839538574,-8.609549522399902,-11.274295806884766,130.2490234375,105.621337890625,91.85791015625
1.8162498999999999,7.309497833251953,-8.564059257507324,-11.18092155456543,128.4332275390625,107.2540283203125,88.0584716796875
1.8187499,7.307103633880615,-8.485051155090332,-11.049241065979004,126.312255859375,108.82568359375,84.3048095703125
1.8212499,7.292738437652588,-8.367734909057617,-10.896012306213379,123.8555908203125,109.8480224609375,80.6121826171875
1.8237499,7.2783732414245605,-8.20732307434082,-10.733205795288086,121.0784912109375,111.4349365234375,76.47705078125
1.8262498999999999,7.275979042053223,-8.020575523376465,-10.558429718017578,117.85888671875,113.1591796875,72.6318359375
1.8287499,7.297526836395264,-7.829039573669434,-10.376470565795898,114.68505859375,114.471435546875,68.695068359375
1.8312499,7.347805023193359,-7.637503623962402,-10.187328338623047,111.4501953125,115.997314453125,64.422607421875
1.8337499,7.424419403076172,-7.469909191131592,-9.986215591430664,108.428955078125,117.4468994140625,60.0433349609375
1.8362498999999999,7.524975776672363,-7.331045627593994,-9.775525093078613,105.316162109375,119.3084716796875,55.816650390625
1.8387499,7.6351094245910645,-7.223306655883789,-9.548076629638672,102.72216796875,120.819091796875,51.513671875
1.8412499,7.73087739944458,-7.15387487411499,-9.301473617553711,100.250244140625,122.283935546875,47.1954345703125
1.8437499,7.807491779327393,-7.12035608291626,-9.033323287963867,97.9766845703125,123.8555908203125,43.0755615234375
1.8462498999999999,7.843404769897461,-7.122750282287598,-8.731653213500977,96.0235595703125,125.3204345703125,38.75732421875
1.8487499,7.838616371154785,-7.146692276000977,-8.403648376464844,94.3756103515625,126.6021728515625,34.8968505859375
1.8512499,7.793126583099365,-7.187393665313721,-8.051700592041016,92.803955078125,127.6702880859375,30.8074951171875
1.8537499,7.711723804473877,-7.230489253997803,-7.702147006988525,91.00341796875,128.7384033203125,27.1759033203125
1.8562499,7.613561630249023,-7.268796443939209,-7.371747016906738,89.5538330078125,129.638671875,23.5137939453125
1.8587498999999998,7.493851184844971,-7.297526836395264,-7.079654216766357,88.6383056640625,130.615234375,20.3704833984375
1.8612499,7.371747016906738,-7.319074630737305,-6.833051681518555,87.5396728515625,131.2713623046875,17.425537109375
1.8637499,7.232883453369141,-7.333439826965332,-6.617573261260986,87.188720703125,131.5460205078125,14.46533203125
1.8662499,7.084442615509033,-7.347805023193359,-6.445190906524658,86.85302734375,131.77490234375,11.6729736328125
1.8687498999999999,6.933608055114746,-7.362170219421387,-6.2847795486450195,86.669921875,131.7596435546875,9.2315673828125
1.8712499,6.785167694091797,-7.376535415649414,-6.157886981964111,87.2344970703125,131.7138671875,6.866455078125
1.8737499,6.6391215324401855,-7.398083209991455,-6.04775333404541,87.6922607421875,130.9661865234375,4.8370361328125
1.8762499,6.50025749206543,-7.419631004333496,-5.959167957305908,88.348388671875,130.2032470703125,2.9144287109375
1.8787498999999999,6.356605529785156,-7.445967197418213,-5.889736175537109,88.9892578125,129.5318603515625,0.8392333984375
1.8812499,6.22731876373291,-7.465120792388916,-5.8442463874816895,90.0421142578125,128.448486328125,-0.823974609375
1.8837499,6.100425720214844,-7.46033239364624,-5.822698593139648,90.8203125,127.655029296875,-2.5634765625
1.8862499,5.992686748504639,-7.417236804962158,-5.829881191253662,91.278076171875,126.495361328125,-4.058837890625
1.8887498999999999,5.829881191253662,-7.108384609222412,-5.980715751647949,91.7816162109375,124.5880126953125,-7.0037841796875
1.8912499,5.7772088050842285,-6.845022678375244,-6.04775333404541,88.958740234375,123.9166259765625,-8.880615234375
1.8937499,5.748478412628174,-6.672640323638916,-6.196194171905518,89.599609375,123.016357421875,-9.3536376953125
1.8962499,5.705382823944092,-6.4834980964660645,-6.258443355560303,92.71240234375,121.734619140625,-9.8419189453125
1.8987498999999999,5.679046630859375,-6.466738700866699,-6.361393928527832,92.4530029296875,120.54443359375,-11.7034912109375
1.9012499,5.633556365966797,-6.402095317840576,-6.414066314697266,91.339111328125,119.049072265625,-13.24462890625
1.9037499,5.595249176025391,-6.27280855178833,-6.4380083084106445,90.3167724609375,117.8741455078125,-14.5416259765625
1.9062499,5.588066577911377,-6.0597243309021,-6.411672115325928,89.0960693359375,116.973876953125,-15.9454345703125
1.9087498999999999,5.604825973510742,-5.815515995025635,-6.323086738586426,87.493896484375,116.3177490234375,-17.4407958984375
1.9112499,5.6455278396606445,-5.564124584197998,-6.186617374420166,86.1663818359375,115.9515380859375,-18.61572265625
1.9137499,5.693411827087402,-5.34625244140625,-6.007051944732666,84.8388671875,115.72265625,-20.050048828125
1.9162499,5.746084213256836,-5.135562419891357,-5.805939197540283,83.648681640625,115.0970458984375,-21.8963623046875
1.9187499,5.793968200683594,-4.93923807144165,-5.5760955810546875,81.72607421875,115.2496337890625,-23.74267578125
1.9212498999999998,5.861005783081055,-4.7620673179626465,-5.34625244140625,79.40673828125,115.3564453125,-25.3448486328125
1.9237499,5.961562156677246,-4.623203277587891,-5.118803024291992,78.2623291015625,115.3717041015625,-26.9012451171875
1.9262499,6.09324312210083,-4.553771495819092,-4.9152960777282715,77.81982421875,115.386962890625,-28.228759765625
1.9287499,6.268020153045654,-4.54419469833374,-4.752490520477295,77.2247314453125,115.3717041015625,-29.9072265625
1.9312498999999999,6.461950302124023,-4.5609540939331055,-4.616020679473877,77.0111083984375,115.692138671875,-31.5093994140625
1.9337499,6.672640323638916,-4.563348293304443,-4.496310710906982,76.446533203125,115.9515380859375,-33.02001953125
1.9362499,6.888118267059326,-4.532223701477051,-4.37420654296875,75.9429931640625,116.6839599609375,-34.5611572265625
1.9387499,7.096413612365723,-4.460397720336914,-4.23773717880249,75.225830078125,117.61474609375,-36.224365234375
1.9412498999999999,7.280767440795898,-4.3622355461120605,-4.077325344085693,74.5849609375,118.5455322265625,-37.59765625
1.9437499,7.419631004333496,-4.252102375030518,-3.9049429893493652,73.9288330078125,119.6441650390625,-38.63525390625
1.9462499,7.508216381072998,-4.156333923339844,-3.7253777980804443,73.211669921875,120.4376220703125,-39.9017333984375
1.9487499,7.546523571014404,-4.089296340942383,-3.550601005554199,72.5250244140625,121.0174560546875,-40.9698486328125
1.9512498999999999,7.5417351722717285,-4.0533833503723145,-3.40216064453125,72.296142578125,121.673583984375,-41.748046875
1.9537499,7.5201873779296875,-4.034229755401611,-3.272873640060425,71.990966796875,122.3907470703125,-42.5567626953125
1.9562499,7.4986395835876465,-4.0294413566589355,-3.1866824626922607,71.83837890625,122.86376953125,-43.1671142578125
1.9587499,7.491456985473633,-4.022258758544922,-3.1531636714935303,71.6400146484375,123.1689453125,-43.76220703125
1.9612498999999999,7.503427982330322,-4.017470359802246,-3.177105665206909,71.7010498046875,123.504638671875,-44.1741943359375
1.9637499,7.5201873779296875,-4.017470359802246,-3.2585084438323975,71.9451904296875,123.779296875,-44.3115234375
1.9662499,7.534552574157715,-4.019864559173584,-3.3638534545898438,72.2808837890625,123.7335205078125,-44.43359375
1.9687499,7.524975776672363,-4.017470359802246,-3.4835634231567383,72.4029541015625,123.59619140625,-44.5709228515625
1.9712498999999999,7.484274387359619,-4.01268196105957,-3.5721490383148193,72.601318359375,123.3978271484375,-44.708251953125
1.9737499,7.41484260559082,-4.000710964202881,-3.641580820083618,72.93701171875,123.0621337890625,-44.4793701171875
1.9762499,7.331045627593994,-3.9839515686035156,-3.6798880100250244,72.845458984375,122.9400634765625,-44.3878173828125
1.9787499,7.242460250854492,-3.9647979736328125,-3.6966474056243896,72.93701171875,122.3297119140625,-44.37255859375
1.9812499,7.15387487411499,-3.9384617805480957,-3.6990416049957275,72.6776123046875,121.6583251953125,-43.9605712890625
1.9837499,7.06528902053833,-3.9169139862060547,-3.6846764087677,72.7386474609375,121.09375,-43.8385009765625
1.9862499,6.979097843170166,-3.8953661918640137,-3.643975019454956,72.8912353515625,120.6512451171875,-43.426513671875
1.9887499,6.9024834632873535,-3.8786067962646484,-3.603273630142212,73.05908203125,120.42236328125,-43.060302734375
1.9912499,6.852205276489258,-3.8738183975219727,-3.5410242080688477,73.1048583984375,119.9188232421875,-42.694091796875
1.9937498999999999,6.830657482147217,-3.8762125968933105,-3.488351821899414,73.3642578125,119.4305419921875,-42.572021484375
1.9962499,6.840234279632568,-3.8810009956359863,-3.4332852363586426,73.760986328125,119.0948486328125,-42.17529296875
1.9987499,6.866570472717285,-3.88818359375,-3.380612850189209,74.1119384765625,118.896484375,-41.6259765625
2.0012499,6.904877662658691,-3.892971992492676,-3.318363666534424,74.737548828125,118.7744140625,-41.4581298828125
2.0037499,6.9455790519714355,-3.8953661918640137,-3.2537200450897217,75.25634765625,118.59130859375,-41.015625
2.0062499,6.981492042541504,-3.8953661918640137,-3.1651346683502197,76.0650634765625,118.5455322265625,-40.740966796875
2.0087498999999998,7.0126166343688965,-3.8953661918640137,-3.064578056335449,76.84326171875,118.59130859375,-40.2374267578125
2.0112499,7.024587631225586,-3.8977603912353516,-2.9472622871398926,77.6519775390625,118.5760498046875,-39.7796630859375
2.0137499,7.026981830596924,-3.9049429893493652,-2.8179752826690674,78.7353515625,118.59130859375,-39.48974609375
2.0162499,7.015010833740234,-3.9193081855773926,-2.6886885166168213,79.3304443359375,118.9422607421875,-38.87939453125
2.0187499,6.988674640655518,-3.9456443786621094,-2.561795711517334,80.169677734375,118.988037109375,-38.26904296875
2.0212499,6.964732646942139,-3.9887399673461914,-2.454056739807129,80.902099609375,119.354248046875,-37.9180908203125
2.0237499,6.947973251342773,-4.039018154144287,-2.38462495803833,81.6192626953125,119.68994140625,-37.1856689453125
2.0262499,6.938396453857422,-4.072536945343018,-2.341529369354248,82.6568603515625,119.93408203125,-36.5447998046875
2.0287498999999998,6.938396453857422,-4.0749311447143555,-2.346317768096924,82.9620361328125,120.208740234375,-35.6292724609375
2.0312499,6.947973251342773,-4.034229755401611,-2.3774423599243164,83.038330078125,120.6512451171875,-34.9273681640625
2.0337499,6.957550048828125,-3.931279182434082,-2.4444799423217773,83.06884765625,120.9564208984375,-34.5458984375
2.0362499,6.983886241912842,-3.8163576126098633,-2.516305923461914,82.5653076171875,121.15478515625,-34.1339111328125
2.0387499,7.015010833740234,-3.6774938106536865,-2.604891538619995,82.2906494140625,121.551513671875,-33.63037109375
2.0412499,7.067683219909668,-3.557783842086792,-2.671929121017456,82.122802734375,121.551513671875,-33.50830078125
2.0437499,7.12035608291626,-3.44765043258667,-2.7102363109588623,81.6497802734375,121.6583251953125,-33.355712890625
2.0462499,7.182605266571045,-3.361459255218506,-2.717418909072876,81.1920166015625,121.795654296875,-33.203125
2.0487499,7.24485445022583,-3.2968156337738037,-2.6886885166168213,80.535888671875,121.307373046875,-33.0810546875
2.0512498999999997,7.292738437652588,-3.2417490482330322,-2.612074136734009,79.89501953125,121.39892578125,-33.1268310546875
2.0537499,7.338228225708008,-3.19865345954895,-2.5258827209472656,79.376220703125,121.612548828125,-33.1573486328125
2.0562499,7.374141216278076,-3.1723172664642334,-2.410961151123047,78.582763671875,121.3836669921875,-32.958984375
2.0587499,7.4100542068481445,-3.160346269607544,-2.300827741622925,77.9876708984375,121.3531494140625,-33.0352783203125
2.0612499,7.445967197418213,-3.179499864578247,-2.2026655673980713,77.6519775390625,121.246337890625,-32.928466796875
2.0637499,7.474697589874268,-3.2321722507476807,-2.1308395862579346,77.2705078125,121.1700439453125,-32.89794921875
2.0662499,7.489062786102295,-3.308786630630493,-2.0829553604125977,77.056884765625,121.03271484375,-32.5775146484375
2.0687499,7.486668586730957,-3.404554843902588,-2.056619167327881,76.7822265625,120.635986328125,-32.5927734375
2.0712498999999998,7.474697589874268,-3.4955344200134277,-2.051830768585205,76.4617919921875,120.30029296875,-32.2265625
2.0737499,7.457938194274902,-3.5697548389434814,-2.0614075660705566,76.47705078125,119.8883056640625,-31.951904296875
2.0762499,7.441178798675537,-3.6296098232269287,-2.0901381969451904,76.47705078125,119.2779541015625,-31.5399169921875
2.0787499,7.42681360244751,-3.6607344150543213,-2.1284453868865967,76.4923095703125,118.743896484375,-30.9600830078125
2.0812499,7.422025203704834,-3.6798880100250244,-2.1763293743133545,76.446533203125,118.2403564453125,-30.609130859375
2.0837499,7.424419403076172,-3.691859006881714,-2.2385785579681396,76.23291015625,117.6300048828125,-30.3192138671875
2.0862499,7.429207801818848,-3.711012601852417,-2.293645143508911,76.263427734375,117.034912109375,-29.72412109375
2.0887499,7.433996200561523,-3.7253777980804443,-2.3535003662109375,76.23291015625,116.5924072265625,-29.327392578125
2.0912498999999998,7.42681360244751,-3.7397429943084717,-2.410961151123047,75.8819580078125,115.966796875,-28.50341796875
2.0937499,7.41484260559082,-3.7445313930511475,-2.4612393379211426,75.286865234375,115.325927734375,-27.7099609375
2.0962499,7.316680431365967,-3.641580820083618,-2.583343744277954,74.3255615234375,114.166259765625,-26.153564453125
2.0987499,7.2352776527404785,-3.5673606395721436,-2.612074136734009,71.8231201171875,113.006591796875,-26.0467529296875
2.1012499,7.151480674743652,-3.4165258407592773,-2.693476915359497,69.4427490234375,111.328125,-25.3448486328125
2.1037499,7.062894821166992,-3.2561142444610596,-2.7317841053009033,69.4122314453125,110.41259765625,-24.5208740234375
2.1062499,7.038952827453613,-3.1244332790374756,-2.7724854946136475,66.7266845703125,109.9700927734375,-24.5819091796875
2.1087499,7.0557122230529785,-2.9544448852539062,-2.829946517944336,64.02587890625,108.917236328125,-24.47509765625
2.1112499,7.122750282287598,-2.8107926845550537,-2.8658595085144043,62.164306640625,108.09326171875,-24.0478515625
2.1137498999999997,7.220912456512451,-2.6001031398773193,-2.9233202934265137,59.5245361328125,108.123779296875,-23.7579345703125
2.1162499,7.402871608734131,-2.477998733520508,-2.959233283996582,55.5267333984375,108.3526611328125,-24.200439453125
2.1187499,7.632715225219727,-2.3511061668395996,-3.021482467651367,53.1158447265625,108.1085205078125,-24.23095703125
2.1212499,7.891288757324219,-2.3319525718688965,-3.0526070594787598,51.8798828125,109.161376953125,-24.1241455078125
2.1237499,8.157045364379883,-2.367865562438965,-3.0885202884674072,49.9267578125,110.1531982421875,-24.261474609375
2.1262499,8.355764389038086,-2.4396915435791016,-3.114856481552124,48.27880859375,110.53466796875,-24.4293212890625
2.1287499,8.461109161376953,-2.5234885215759277,-3.112462282180786,46.630859375,110.7177734375,-24.4903564453125
2.1312499,8.485051155090332,-2.631227731704712,-3.1004912853240967,45.2423095703125,111.0382080078125,-24.47509765625
2.1337498999999998,8.374917984008789,-2.6791117191314697,-2.9544448852539062,44.281005859375,110.8551025390625,-24.0020751953125
2.1362499,8.276755332946777,-2.8586769104003906,-2.9927520751953125,42.0684814453125,109.4207763671875,-23.6053466796875
2.1387499,8.20492935180664,-3.0142998695373535,-2.896984100341797,42.05322265625,108.9019775390625,-22.5677490234375
2.1412499,8.185775756835938,-3.3303346633911133,-2.9472622871398926,42.2821044921875,109.222412109375,-21.3470458984375
2.1437499,8.276755332946777,-3.7038300037384033,-2.9879636764526367,44.036865234375,109.43603515625,-19.9432373046875
2.1462499,8.334216117858887,-4.091690540313721,-2.9472622871398926,45.5322265625,108.5357666015625,-18.402099609375
2.1487499,8.35097599029541,-4.41969633102417,-2.935291290283203,46.875,107.330322265625,-16.41845703125
2.1512499,8.322244644165039,-4.671087741851807,-2.889801502227783,48.004150390625,105.7281494140625,-14.556884765625
2.1537498999999998,8.269572257995605,-4.821922302246094,-2.8874073028564453,49.1790771484375,104.034423828125,-12.7105712890625
2.1562499,8.224082946777344,-4.900930881500244,-2.9041666984558105,50.6439208984375,102.386474609375,-10.6201171875
2.1587499,8.219294548034668,-4.922478675842285,-2.956839084625244,51.9256591796875,100.616455078125,-8.7432861328125
2.1612499,8.250418663024902,-4.891354084014893,-3.0310592651367188,53.253173828125,98.9990234375,-6.927490234375
2.1637499,8.317456245422363,-4.838681697845459,-3.1316158771514893,54.4586181640625,97.2747802734375,-4.8980712890625
2.1662499,8.422801971435547,-4.778826713562012,-3.220201253890991,55.7403564453125,95.8251953125,-3.3111572265625
2.1687499,8.540117263793945,-4.73573112487793,-3.315969467163086,57.5714111328125,94.1619873046875,-1.678466796875
2.1712499,8.650250434875488,-4.709394931793213,-3.3854012489318848,59.8602294921875,92.6971435546875,-0.2288818359375
2.1737499,8.7484130859375,-4.692635536193848,-3.4404678344726562,62.07275390625,90.9881591796875,1.1749267578125
2.1762499,8.808267593383789,-4.656722068786621,-3.4739866256713867,63.568115234375,89.202880859375,2.227783203125
2.1787499,8.825027465820312,-4.587290287017822,-3.4979286193847656,64.727783203125,87.2955322265625,3.021240234375
2.1812499,8.820239067077637,-4.484339714050293,-3.4979286193847656,65.5517578125,85.1898193359375,3.9215087890625
2.1837499,8.793902397155762,-4.364629745483398,-3.5003228187561035,65.7806396484375,83.282470703125,5.096435546875
2.1862499,8.779537200927734,-4.256890773773193,-3.49314022064209,65.9942626953125,81.4208984375,5.2947998046875
2.1887499,8.786720275878906,-4.19224739074707,-3.488351821899414,66.070556640625,79.681396484375,6.0577392578125
2.1912499,8.827422142028809,-4.19224739074707,-3.488351821899414,66.46728515625,77.81982421875,6.9122314453125
2.1937499,8.904036521911621,-4.242525577545166,-3.490746021270752,66.95556640625,76.080322265625,7.4462890625
2.1962498999999998,9.011775016784668,-4.3406877517700195,-3.490746021270752,67.718505859375,74.5391845703125,7.843017578125
2.1987499,9.136273384094238,-4.446032524108887,-3.49314022064209,68.359375,72.7386474609375,8.4075927734375
2.2012499,9.263166427612305,-4.541800498962402,-3.4955344200134277,68.7408447265625,71.0906982421875,9.0484619140625
2.2037499,9.370905876159668,-4.620809078216553,-3.490746021270752,69.1680908203125,69.549560546875,9.552001953125
2.2062499,9.457097053527832,-4.687847137451172,-3.485957622528076,69.5953369140625,67.6727294921875,9.979248046875
2.2087499,9.512163162231445,-4.754884719848633,-3.4811692237854004,69.76318359375,65.7806396484375,10.4522705078125
2.2112499,9.548076629638672,-4.8267107009887695,-3.469198226928711,70.0836181640625,63.690185546875,10.9100341796875
2.2137499,9.564835548400879,-4.898536682128906,-3.4572272300720215,70.281982421875,61.95068359375,11.7340087890625
2.2162498999999998,9.57441234588623,-4.960785865783691,-3.4404678344726562,70.1446533203125,60.0128173828125,12.2222900390625
2.2187499,9.579200744628906,-5.013458251953125,-3.4189200401306152,70.2972412109375,58.04443359375,12.9852294921875
2.2212499,9.591172218322754,-5.049371242523193,-3.3925838470458984,70.159912109375,56.3201904296875,13.458251953125
2.2237499,9.600749015808105,-5.07570743560791,-3.3710360527038574,69.6563720703125,54.290771484375,14.16015625
2.2262499,9.617507934570312,-5.092466831207275,-3.354276657104492,68.9544677734375,52.6275634765625,14.8162841796875
2.2287499,9.627084732055664,-5.106832027435303,-3.3470940589904785,68.5272216796875,50.994873046875,15.380859375
2.2312499,9.641449928283691,-5.118803024291992,-3.3470940589904785,67.7490234375,48.9959716796875,15.869140625
2.2337499,9.658209800720215,-5.125985622406006,-3.361459255218506,66.6046142578125,47.42431640625,16.4337158203125
2.2362499,9.674968719482422,-5.123591423034668,-3.378218650817871,65.36865234375,45.7763671875,16.937255859375
2.2387499,9.710882186889648,-5.092466831207275,-3.4117374420166016,63.9495849609375,44.219970703125,17.39501953125
2.2412499,9.749189376831055,-5.04218864440918,-3.4380736351013184,61.9964599609375,42.66357421875,17.578125
2.2437499,9.78989028930664,-4.965574264526367,-3.4739866256713867,59.7991943359375,41.1224365234375,17.791748046875
2.2462499,9.84495735168457,-4.881777286529541,-3.4955344200134277,57.4188232421875,39.642333984375,17.913818359375
2.2487499,9.890447616577148,-4.790797710418701,-3.5051112174987793,54.9163818359375,38.330078125,17.9290771484375
2.2512499,9.93354320526123,-4.714183330535889,-3.5003228187561035,52.215576171875,36.9873046875,17.76123046875
2.2537499,9.971850395202637,-4.654327869415283,-3.471592426300049,49.1943359375,35.64453125,17.4102783203125
2.2562499,10.005369186401367,-4.608838081359863,-3.426102638244629,46.4324951171875,34.3475341796875,17.1356201171875
2.2587498999999998,10.036493301391602,-4.580107688903809,-3.3662476539611816,43.243408203125,33.0963134765625,16.9525146484375
2.2612499,10.072406768798828,-4.563348293304443,-3.28963303565979,39.764404296875,32.1807861328125,16.4794921875
2.2637499,10.108319282531738,-4.55616569519043,-3.205836057662964,36.4837646484375,30.914306640625,16.204833984375
2.2662499,10.146626472473145,-4.55616569519043,-3.1052796840667725,32.9742431640625,30.1513671875,15.716552734375
2.2687499,10.182539939880371,-4.565742492675781,-2.9951462745666504,29.388427734375,29.5257568359375,15.31982421875
2.2712499,10.216058731079102,-4.587290287017822,-2.868253707885742,25.360107421875,28.8543701171875,14.7857666015625
2.2737499,10.249577522277832,-4.623203277587891,-2.7269957065582275,21.8963623046875,28.1829833984375,14.495849609375
2.2762499,10.280701637268066,-4.675876140594482,-2.583343744277954,18.524169921875,27.801513671875,14.1143798828125
2.2787498999999998,10.311826705932617,-4.752490520477295,-2.4229321479797363,15.167236328125,27.0233154296875,13.702392578125
2.2812499,10.342951774597168,-4.843470096588135,-2.2601263523101807,11.9476318359375,26.885986328125,13.427734375
2.2837499,10.376470565795898,-4.955997467041016,-2.0901381969451904,8.819580078125,26.5960693359375,13.0462646484375
2.2862499,10.400412559509277,-5.073313236236572,-1.9249382019042969,6.103515625,26.3671875,12.664794921875
2.2887499,10.409989356994629,-5.1810526847839355,-1.7717092037200928,3.4027099609375,26.0772705078125,12.542724609375
2.2912499,10.393229484558105,-5.288791656494141,-1.6376339197158813,0.8544921875,25.848388671875,12.2222900390625
2.2937499,10.342951774597168,-5.377377033233643,-1.5155296325683594,-1.3427734375,25.7720947265625,11.9476318359375
2.2962499,10.273519515991211,-5.468356609344482,-1.4101848602294922,-3.7384033203125,25.634765625,11.7340087890625
2.2987499,10.1753568649292,-5.540182590484619,-1.3000515699386597,-6.16455078125,25.5584716796875,11.3983154296875
2.3012499,10.065223693847656,-5.614402770996094,-1.2018892765045166,-8.0718994140625,25.482177734375,10.894775390625
2.3037499,9.943120002746582,-5.671864032745361,-1.1085153818130493,-10.1318359375,25.1922607421875,10.528564453125
2.3062499,9.696516990661621,-5.770026206970215,-0.9720458984375,-13.8397216796875,24.47509765625,10.19287109375
2.3087499,9.583989143371582,-5.825092792510986,-0.9361328482627869,-15.2130126953125,24.1851806640625,9.7198486328125
2.3112499,9.485827445983887,-5.899312973022461,-0.9169792532920837,-16.387939453125,24.0478515625,9.33837890625
2.3137499,9.390059471130371,-5.980715751647949,-0.9074024558067322,-17.547607421875,23.895263671875,8.819580078125
2.3162499,9.294290542602539,-6.069301128387451,-0.8930372595787048,-18.5546875,23.284912109375,8.36181640625
2.3187499,9.191340446472168,-6.150704383850098,-0.8619126081466675,-19.317626953125,22.6593017578125,7.9193115234375
2.3212498999999998,9.08838939666748,-6.210559368133545,-0.811634361743927,-20.3094482421875,22.3236083984375,7.476806640625
2.3237499,8.98543930053711,-6.253654956817627,-0.7493851184844971,-21.0723876953125,21.5911865234375,6.9580078125
2.3262499,8.892065048217773,-6.268020153045654,-0.6775590777397156,-21.484375,21.1334228515625,6.439208984375
2.3287499,8.808267593383789,-6.27280855178833,-0.6153098344802856,-22.1710205078125,20.6451416015625,5.4473876953125
2.3312499,8.734047889709473,-6.27280855178833,-0.5650315880775452,-22.64404296875,20.2789306640625,4.7760009765625
2.3337499,8.674192428588867,-6.282385349273682,-0.5195417404174805,-23.040771484375,19.5465087890625,3.997802734375
2.3362499,8.619126319885254,-6.3063273429870605,-0.4812345504760742,-22.7813720703125,19.22607421875,2.8533935546875
2.3387499,8.571242332458496,-6.342240333557129,-0.44771572947502136,-22.308349609375,18.7835693359375,2.2735595703125
2.3412498999999998,8.523358345031738,-6.382941722869873,-0.4118026793003082,-21.759033203125,17.974853515625,1.434326171875
2.3437499,8.463502883911133,-6.428431510925293,-0.38307225704193115,-21.05712890625,17.2119140625,0.579833984375
2.3462499,8.403648376464844,-6.466738700866699,-0.36152446269989014,-20.3094482421875,16.4947509765625,-0.091552734375
2.3487499,8.334216117858887,-6.493074893951416,-0.33518823981285095,-19.439697265625,15.7470703125,-0.885009765625
2.3512499,8.274360656738281,-6.514622688293457,-0.31842881441116333,-18.5394287109375,15.0909423828125,-1.64794921875
2.3537499,8.216899871826172,-6.517016887664795,-0.304063618183136,-17.2576904296875,14.1754150390625,-1.9683837890625
2.3562499,8.161833763122559,-6.5050458908081055,-0.2968810200691223,-16.082763671875,13.61083984375,-2.105712890625
2.3587499,8.101978302001953,-6.469132900238037,-0.2944868206977844,-15.2130126953125,12.6800537109375,-2.5634765625
2.3612499,8.042123794555664,-6.411672115325928,-0.2801215946674347,-13.9617919921875,11.77978515625,-2.8228759765625
2.3637499,7.977479934692383,-6.337451934814453,-0.27054479718208313,-13.00048828125,11.16943359375,-3.11279296875
2.3662499,7.927201747894287,-6.251260757446289,-0.24660277366638184,-11.90185546875,10.3607177734375,-3.1585693359375
2.3687499,7.884106159210205,-6.162675380706787,-0.22266076505184174,-10.8642578125,9.6282958984375,-3.3721923828125
2.3712499,7.857769966125488,-6.071695327758789,-0.2059013396501541,-9.58251953125,8.697509765625,-3.509521484375
2.3737499,7.850587368011475,-5.987898349761963,-0.18914192914962769,-8.514404296875,8.2244873046875,-3.72314453125
2.3762499,7.860164165496826,-5.901707172393799,-0.17238251864910126,-7.5836181640625,7.5836181640625,-3.7384033203125
2.3787499,7.888894557952881,-5.817910194396973,-0.1628057211637497,-6.65283203125,7.0648193359375,-3.72314453125
2.3812499,7.927201747894287,-5.736507415771484,-0.1412578970193863,-5.8135986328125,6.866455078125,-3.84521484375
2.3837498999999998,7.977479934692383,-5.65031623840332,-0.1173158809542656,-5.0506591796875,6.3323974609375,-3.662109375
2.3862499,8.032546997070312,-5.564124584197998,-0.090979665517807,-4.638671875,5.859375,-3.4942626953125
2.3887499,8.092401504516602,-5.477933406829834,-0.05506663769483566,-3.936767578125,5.645751953125,-3.509521484375
2.3912499,8.149862289428711,-5.389348030090332,-0.023942016065120697,-3.35693359375,5.43212890625,-3.11279296875
2.3937499,8.209717750549316,-5.303156852722168,0.011971008032560349,-2.8533935546875,5.096435546875,-2.8533935546875
2.3962499,8.257601737976074,-5.219359874725342,0.05506663769483566,-2.4566650390625,4.547119140625,-2.5787353515625
2.3987499,8.312667846679688,-5.140350818634033,0.09816227108240128,-1.9683837890625,4.302978515625,-2.4261474609375
2.4012499,8.358158111572266,-5.0685248374938965,0.1412578970193863,-1.6937255859375,4.2572021484375,-2.2735595703125
2.4037498999999998,8.4108304977417,-5.008669853210449,0.17238251864910126,-1.8157958984375,4.180908203125,-1.9073486328125
2.4062499,8.44434928894043,-4.963180065155029,0.19153612852096558,-1.495361328125,4.1351318359375,-1.4495849609375
2.4087499,8.473079681396484,-4.917690277099609,0.17717093229293823,-1.2664794921875,3.9215087890625,-1.2359619140625
2.4112499,8.47547435760498,-4.876988887786865,0.17956513166427612,-1.3427734375,3.7078857421875,-0.8392333984375
2.4137499,8.468291282653809,-4.829104900360107,0.12928688526153564,-1.556396484375,3.47900390625,-0.54931640625
2.4162499,8.463502883911133,-4.778826713562012,0.1149216815829277,-2.2735595703125,3.387451171875,-0.18310546875
2.4187499,8.465897560119629,-4.733336925506592,0.07900865375995636,-2.8533935546875,3.60107421875,0.3662109375
2.4212499,8.480262756347656,-4.697423934936523,0.05027823522686958,-3.204345703125,3.662109375,0.67138671875
2.4237499,8.497021675109863,-4.663905143737793,0.026336219161748886,-3.5858154296875,3.7994384765625,1.007080078125
2.4262499,8.504204750061035,-4.63517427444458,0.009576806798577309,-3.936767578125,3.9215087890625,1.40380859375
2.4287499,8.497021675109863,-4.594472885131836,-0.028730420395731926,-4.4708251953125,4.08935546875,1.861572265625
2.4312499,8.489839553833008,-4.55616569519043,-0.0454898327589035,-5.31005859375,4.1656494140625,2.288818359375
2.4337499,8.480262756347656,-4.513070106506348,-0.05985504388809204,-6.195068359375,4.1656494140625,2.532958984375
2.4362499,8.480262756347656,-4.484339714050293,-0.07422025501728058,-7.0648193359375,4.119873046875,2.593994140625
2.4387499,8.487444877624512,-4.46518611907959,-0.08619125932455063,-7.9193115234375,4.2877197265625,2.7313232421875
2.4412499,8.501810073852539,-4.46518611907959,-0.09816227108240128,-8.514404296875,4.4097900390625,2.777099609375
2.4437499,8.523358345031738,-4.4723687171936035,-0.1149216815829277,-9.2926025390625,4.4403076171875,2.9449462890625
2.4462498999999998,8.53532886505127,-4.486733913421631,-0.12449848651885986,-10.345458984375,4.69970703125,2.777099609375
2.4487499,8.547300338745117,-4.503493309020996,-0.12928688526153564,-11.0931396484375,4.7607421875,2.777099609375
2.4512499,8.542511940002441,-4.51067590713501,-0.13168109953403473,-11.6424560546875,4.791259765625,2.655029296875
2.4537499,8.540117263793945,-4.522646903991699,-0.13407529890537262,-12.6190185546875,4.913330078125,2.2430419921875
2.4562499,8.53293514251709,-4.532223701477051,-0.1364694982767105,-13.2598876953125,4.9591064453125,2.197265625
2.4587499,8.528146743774414,-4.551377296447754,-0.1388636976480484,-13.916015625,4.791259765625,1.800537109375
2.4612499,8.523358345031738,-4.58968448638916,-0.13168109953403473,-14.495849609375,4.9591064453125,1.5869140625
2.4637499,8.523358345031738,-4.627991676330566,-0.12928688526153564,-15.07568359375,5.1727294921875,1.52587890625
2.4662498999999998,8.516175270080566,-4.683058738708496,-0.1173158809542656,-15.380859375,5.2490234375,1.1444091796875
2.4687499,8.516175270080566,-4.733336925506592,-0.10295066982507706,-15.44189453125,5.43212890625,0.946044921875
2.4712499,8.51138687133789,-4.800374507904053,-0.08379705995321274,-15.5181884765625,5.4168701171875,0.7476806640625
2.4737499,8.51138687133789,-4.865017890930176,-0.06224924325942993,-15.5181884765625,5.462646484375,0.7171630859375
2.4762499,8.506598472595215,-4.9368438720703125,-0.043095629662275314,-15.31982421875,5.7830810546875,0.42724609375
2.4787499,8.513781547546387,-5.013458251953125,-0.016759412363171577,-14.9993896484375,5.615234375,0.2288818359375
2.4812499,8.51138687133789,-5.085284233093262,-0.002394201699644327,-14.6636962890625,5.67626953125,0.06103515625
2.4837499,8.516175270080566,-5.16429328918457,0.021547814831137657,-14.16015625,5.523681640625,0.030517578125
2.4862499,8.51138687133789,-5.236119270324707,0.033518824726343155,-13.5498046875,5.7220458984375,0.0762939453125
2.4887499,8.504204750061035,-5.305551052093506,0.043095629662275314,-12.7716064453125,5.9051513671875,0
2.4912499,8.487444877624512,-5.367800235748291,0.0454898327589035,-11.7340087890625,5.79833984375,-0.091552734375
2.4937499,8.465897560119629,-5.427655220031738,0.038307227194309235,-11.077880859375,5.584716796875,0.0457763671875
2.4962499,8.439560890197754,-5.475539207458496,0.023942016065120697,-10.1318359375,5.767822265625,-0.1220703125
2.4987499,8.406042098999023,-5.525817394256592,0.009576806798577309,-9.1094970703125,5.67626953125,0
2.5012499,8.374917984008789,-5.564124584197998,-0.016759412363171577,-8.11767578125,5.401611328125,0.0762939453125
2.5037499,8.343792915344238,-5.592854976654053,-0.035913024097681046,-7.0648193359375,5.2490234375,0
2.5062499,8.322244644165039,-5.612008571624756,-0.07182604819536209,-6.103515625,5.1116943359375,-0.1220703125
2.5087498999999998,8.29830265045166,-5.621585369110107,-0.10055647045373917,-5.462646484375,5.0201416015625,0.0457763671875
2.5112499,8.276755332946777,-5.621585369110107,-0.13407529890537262,-4.6234130859375,4.547119140625,0.06103515625
2.5137499,8.233659744262695,-5.588066577911377,-0.19153612852096558,-2.9296875,3.8909912109375,0.1068115234375
2.5162499,8.214506149291992,-5.552153587341309,-0.21547815203666687,-2.13623046875,3.4637451171875,0.213623046875
2.5187499,8.216899871826172,-5.5114521980285645,-0.2298433631658554,-1.861572265625,3.2806396484375,0.0762939453125
2.5212499,8.224082946777344,-5.468356609344482,-0.24420857429504395,-1.3580322265625,2.9449462890625,-0.0152587890625
2.5237499,8.245630264282227,-5.434837818145752,-0.2346317619085312,-0.7781982421875,2.4871826171875,-0.030517578125
2.5262499,8.271966934204102,-5.4013190269470215,-0.2322375625371933,-0.4119873046875,2.4871826171875,-0.1220703125
2.5287498999999998,8.293514251708984,-5.377377033233643,-0.21787235140800476,-0.274658203125,2.105712890625,-0.30517578125
2.5312499,8.307879447937012,-5.343858242034912,-0.2082955539226532,0.030517578125,1.8463134765625,-0.1373291015625
2.5337499,8.317456245422363,-5.310339450836182,-0.2082955539226532,0.4425048828125,1.617431640625,-0.2288818359375
2.5362499,8.317456245422363,-5.279214859008789,-0.2082955539226532,0.274658203125,1.4495849609375,-0.1983642578125
2.5387499,8.315062522888184,-5.243301868438721,-0.21308395266532898,0.152587890625,1.0986328125,-0.152587890625
2.5412499,8.305485725402832,-5.219359874725342,-0.22505496442317963,0.1068115234375,0.9307861328125,-0.2593994140625
2.5437499,8.29590892791748,-5.193023681640625,-0.2346317619085312,-0.3204345703125,0.7171630859375,-0.0152587890625
