# Time (seconds),Accel_X,Accel_Y,Accel_Z,Gyro_X,Gyro_Y,Gyro_Z
0.0012499,-0.16519992053508759,-8.032546997070312,5.52821159362793,4.9591064453125,-3.1280517578125,-9.979248046875
0.0037499,-0.15801730751991272,-8.032546997070312,5.537788391113281,5.126953125,-2.86865234375,-10.0555419921875
0.0062499,-0.1364694982767105,-8.008605003356934,5.540182590484619,5.3863525390625,-2.86865234375,-9.94873046875
0.0087499,-0.1364694982767105,-8.008605003356934,5.540182590484619,5.3863525390625,-2.86865234375,-9.94873046875
0.0112499,-0.12449848651885986,-7.970297336578369,5.549759387969971,5.7830810546875,-2.8839111328125,-9.765625
0.0137499,-0.12449848651885986,-7.970297336578369,5.549759387969971,5.7830810546875,-2.8839111328125,-9.765625
0.016249899999999998,-0.12210428714752197,-7.94635534286499,5.5760955810546875,5.706787109375,-2.9144287109375,-9.7503662109375
0.0187499,-0.12210428714752197,-7.94635534286499,5.5760955810546875,5.706787109375,-2.9144287109375,-9.7503662109375
0.021249900000000002,-0.1149216815829277,-7.936778545379639,5.590460777282715,5.8746337890625,-2.838134765625,-9.8114013671875
0.023749899999999997,-0.1149216815829277,-7.936778545379639,5.590460777282715,5.8746337890625,-2.838134765625,-9.8114013671875
0.0262499,-0.11013327538967133,-7.931990146636963,5.578489780426025,6.1492919921875,-2.838134765625,-10.009765625
0.028749900000000002,-0.11013327538967133,-7.931990146636963,5.578489780426025,6.1492919921875,-2.838134765625,-10.009765625
0.031249899999999997,-0.10773907601833344,-7.920019149780273,5.56173038482666,6.0577392578125,-2.685546875,-9.613037109375
0.0337499,-0.10773907601833344,-7.920019149780273,5.56173038482666,6.0577392578125,-2.685546875,-9.613037109375
0.0362499,-0.09816227108240128,-7.908048152923584,5.56173038482666,6.195068359375,-3.0364990234375,-9.7808837890625
0.0387499,-0.09816227108240128,-7.908048152923584,5.56173038482666,6.195068359375,-3.0364990234375,-9.7808837890625
0.0412499,-0.07422025501728058,-7.905653953552246,5.568912982940674,6.1798095703125,-3.021240234375,-9.765625
0.0437499,-0.07422025501728058,-7.905653953552246,5.568912982940674,6.1798095703125,-3.021240234375,-9.765625
0.0462499,-0.040701430290937424,-7.90086555480957,5.57370138168335,6.256103515625,-3.326416015625,-9.5672607421875
0.0487499,-0.040701430290937424,-7.90086555480957,5.57370138168335,6.256103515625,-3.326416015625,-9.5672607421875
0.0512499,-0.026336219161748886,-7.908048152923584,5.578489780426025,6.28662109375,-3.448486328125,-9.58251953125
0.053749899999999996,-0.026336219161748886,-7.908048152923584,5.578489780426025,6.28662109375,-3.448486328125,-9.58251953125
0.0562499,-0.043095629662275314,-7.91283655166626,5.5976433753967285,6.3629150390625,-3.5552978515625,-9.5977783203125
0.0587499,-0.043095629662275314,-7.91283655166626,5.5976433753967285,6.3629150390625,-3.5552978515625,-9.5977783203125
0.061249899999999996,-0.040701430290937424,-7.898471355438232,5.626373767852783,6.500244140625,-3.814697265625,-9.490966796875
0.0637499,-0.040701430290937424,-7.898471355438232,5.626373767852783,6.500244140625,-3.814697265625,-9.490966796875
0.0662499,-0.014365210197865963,-7.90086555480957,5.655104637145996,6.28662109375,-3.997802734375,-9.521484375
0.0687499,-0.014365210197865963,-7.90086555480957,5.655104637145996,6.28662109375,-3.997802734375,-9.521484375
0.0712499,0.009576806798577309,-7.922413349151611,5.69580602645874,6.5765380859375,-4.180908203125,-9.27734375
0.0737499,0.009576806798577309,-7.922413349151611,5.69580602645874,6.5765380859375,-4.180908203125,-9.27734375
0.0762499,0.021547814831137657,-7.936778545379639,5.729324817657471,6.34765625,-4.21142578125,-9.1400146484375
0.0787499,0.021547814831137657,-7.936778545379639,5.729324817657471,6.34765625,-4.21142578125,-9.1400146484375
0.0812499,0.023942016065120697,-7.936778545379639,5.738901615142822,6.4544677734375,-4.302978515625,-9.246826171875
0.0837499,0.023942016065120697,-7.936778545379639,5.738901615142822,6.4544677734375,-4.302978515625,-9.246826171875
0.0862499,0.016759412363171577,-7.929595947265625,5.724536418914795,6.500244140625,-4.33349609375,-9.0789794921875
0.0887499,0.016759412363171577,-7.929595947265625,5.724536418914795,6.500244140625,-4.33349609375,-9.0789794921875
0.0912499,0.023942016065120697,-7.922413349151611,5.710171222686768,6.5155029296875,-4.5166015625,-9.0484619140625
0.0937499,0.023942016065120697,-7.922413349151611,5.710171222686768,6.5155029296875,-4.5166015625,-9.0484619140625
0.0962499,0.047884032130241394,-7.931990146636963,5.731719017028809,6.622314453125,-4.638671875,-8.8348388671875
0.0987499,0.047884032130241394,-7.931990146636963,5.731719017028809,6.622314453125,-4.638671875,-8.8348388671875
0.1012499,0.06224924325942993,-7.9631147384643555,5.772420406341553,6.77490234375,-4.791259765625,-8.697509765625
0.1037499,0.06224924325942993,-7.9631147384643555,5.772420406341553,6.77490234375,-4.791259765625,-8.697509765625
0.1062499,0.05985504388809204,-7.9846625328063965,5.805939197540283,6.8206787109375,-4.9591064453125,-8.5296630859375
0.1087499,0.05985504388809204,-7.9846625328063965,5.805939197540283,6.8206787109375,-4.9591064453125,-8.5296630859375
0.1112499,0.040701430290937424,-7.9846625328063965,5.808333396911621,7.14111328125,-4.913330078125,-8.4228515625
0.1137499,0.040701430290937424,-7.9846625328063965,5.808333396911621,7.14111328125,-4.913330078125,-8.4228515625
0.1162499,0.033518824726343155,-7.987056732177734,5.78678560256958,7.32421875,-5.126953125,-8.453369140625
0.1187499,0.033518824726343155,-7.987056732177734,5.78678560256958,7.32421875,-5.126953125,-8.453369140625
0.1212499,0.05027823522686958,-7.987056732177734,5.772420406341553,7.6751708984375,-5.218505859375,-8.30078125
0.1237499,0.05985504388809204,-7.989450931549072,5.774814605712891,7.781982421875,-5.5694580078125,-8.1329345703125
0.1262499,0.06703764945268631,-7.989450931549072,5.784391403198242,8.087158203125,-5.6915283203125,-8.23974609375
0.1287499,0.07422025501728058,-7.994239330291748,5.791574001312256,8.1329345703125,-5.645751953125,-8.2550048828125
0.1312499,0.07182604819536209,-7.996633529663086,5.7987565994262695,8.453369140625,-5.6915283203125,-7.9803466796875
0.1337499,0.06464344263076782,-7.996633529663086,5.803544998168945,8.36181640625,-5.7525634765625,-7.781982421875
0.1362499,0.05746084079146385,-7.996633529663086,5.805939197540283,8.6822509765625,-5.9814453125,-7.7972412109375
0.1387499,0.043095629662275314,-7.99184513092041,5.808333396911621,8.880615234375,-6.1492919921875,-7.598876953125
0.1412499,0.043095629662275314,-7.989450931549072,5.815515995025635,8.758544921875,-6.1492919921875,-7.568359375
0.1437499,0.05027823522686958,-7.989450931549072,5.822698593139648,8.8043212890625,-6.2255859375,-7.537841796875
0.1462499,0.05985504388809204,-7.99184513092041,5.832275390625,8.7890625,-6.103515625,-7.476806640625
0.1487499,0.06703764945268631,-8.001421928405762,5.846640586853027,9.1400146484375,-6.40869140625,-7.3699951171875
0.1512499,0.07182604819536209,-8.010998725891113,5.856217384338379,9.2315673828125,-6.3934326171875,-7.26318359375
0.1537499,0.07661445438861847,-8.015787124633789,5.861005783081055,9.2620849609375,-6.4849853515625,-7.110595703125
0.1562499,0.08140286058187485,-8.01339340209961,5.856217384338379,9.5062255859375,-6.561279296875,-7.2479248046875
0.1587499,0.08858546614646912,-8.008605003356934,5.846640586853027,9.4146728515625,-6.77490234375,-7.171630859375
0.1612499,0.090979665517807,-8.001421928405762,5.829881191253662,9.429931640625,-6.866455078125,-6.8511962890625
0.1637499,0.0933738648891449,-7.996633529663086,5.8203043937683105,9.490966796875,-7.080078125,-6.7596435546875
0.1662499,0.0933738648891449,-7.999027729034424,5.813121795654297,9.552001953125,-7.171630859375,-6.6986083984375
0.1687499,0.09576806426048279,-8.001421928405762,5.813121795654297,9.3841552734375,-7.0037841796875,-6.744384765625
0.1712499,0.10055647045373917,-8.003816604614258,5.825092792510986,9.3994140625,-7.3699951171875,-6.6375732421875
0.1737499,0.10055647045373917,-8.008605003356934,5.8442463874816895,9.46044921875,-7.7056884765625,-6.2713623046875
0.17624990000000001,0.10534487664699554,-8.010998725891113,5.8657941818237305,9.368896484375,-7.7362060546875,-6.591796875
0.1787499,0.10055647045373917,-8.01339340209961,5.889736175537109,9.4451904296875,-7.8277587890625,-6.5155029296875
0.1812499,0.09576806426048279,-8.022970199584961,5.906495571136475,9.2926025390625,-8.056640625,-6.16455078125
0.1837499,0.07900865375995636,-8.022970199584961,5.916072368621826,9.27734375,-8.23974609375,-6.1492919921875
0.1862499,0.0694318488240242,-8.027758598327637,5.920860767364502,9.521484375,-8.4686279296875,-6.2408447265625
0.1887499,0.06464344263076782,-8.030152320861816,5.916072368621826,9.490966796875,-8.697509765625,-6.28662109375
0.1912499,0.06224924325942993,-8.030152320861816,5.901707172393799,9.33837890625,-8.6822509765625,-6.34765625
0.1937499,0.0694318488240242,-8.027758598327637,5.8873419761657715,9.368896484375,-8.941650390625,-6.3018798828125
0.1962499,0.07661445438861847,-8.030152320861816,5.870582580566406,9.5367431640625,-9.246826171875,-6.2103271484375
0.1987499,0.08619125932455063,-8.027758598327637,5.858611583709717,9.674072265625,-9.3536376953125,-6.1492919921875
0.2012499,0.09816227108240128,-8.030152320861816,5.851428985595703,9.429931640625,-9.5367431640625,-6.3018798828125
0.2037499,0.10534487664699554,-8.034940719604492,5.853823184967041,9.3994140625,-9.9639892578125,-6.256103515625
0.2062499,0.1149216815829277,-8.044517517089844,5.863399982452393,9.27734375,-10.0250244140625,-6.1492919921875
0.20874990000000002,0.11252748221158981,-8.054094314575195,5.875370979309082,9.4146728515625,-10.25390625,-5.9661865234375
0.2112499,0.11252748221158981,-8.061277389526367,5.889736175537109,9.3536376953125,-10.5743408203125,-6.1798095703125
0.2137499,0.10773907601833344,-8.063671112060547,5.899312973022461,9.46044921875,-10.8184814453125,-6.0577392578125
0.2162499,0.10055647045373917,-8.058882713317871,5.9088897705078125,9.33837890625,-10.894775390625,-6.134033203125
0.2187499,0.10055647045373917,-8.056488990783691,5.91128396987915,9.429931640625,-11.138916015625,-6.195068359375
0.2212499,0.09816227108240128,-8.04691219329834,5.913678169250488,9.5062255859375,-11.29150390625,-5.9967041015625
0.2237499,0.10055647045373917,-8.039729118347168,5.906495571136475,9.4146728515625,-11.688232421875,-5.9051513671875
0.2262499,0.11013327538967133,-8.02536392211914,5.899312973022461,9.5367431640625,-11.871337890625,-5.9051513671875
0.2287499,0.12210428714752197,-8.015787124633789,5.894524574279785,9.4146728515625,-12.1307373046875,-5.8441162109375
0.2312499,0.14365209639072418,-8.008605003356934,5.889736175537109,9.2620849609375,-12.2528076171875,-5.9356689453125
0.2337499,0.1604115068912506,-8.003816604614258,5.896918773651123,9.4451904296875,-12.4664306640625,-5.950927734375
0.2362499,0.17717093229293823,-8.01339340209961,5.906495571136475,9.429931640625,-12.664794921875,-6.011962890625
0.23874990000000001,0.1843535304069519,-8.018181800842285,5.920860767364502,8.9569091796875,-12.8326416015625,-6.195068359375
0.2412499,0.1843535304069519,-8.032546997070312,5.932831764221191,9.2010498046875,-13.3056640625,-5.92041015625
0.2437499,0.1843535304069519,-8.042123794555664,5.947196960449219,9.4146728515625,-13.427734375,-5.9814453125
0.2462499,0.17717093229293823,-8.04930591583252,5.954379558563232,9.3231201171875,-13.7176513671875,-6.134033203125
0.2487499,0.17477671802043915,-8.054094314575195,5.959167957305908,9.0179443359375,-13.6871337890625,-5.92041015625
0.2512499,0.16759411990642548,-8.054094314575195,5.95677375793457,8.9111328125,-13.61083984375,-5.9356689453125
0.25374990000000003,0.1604115068912506,-8.051700592041016,5.947196960449219,8.941650390625,-13.9617919921875,-5.889892578125
0.25624990000000003,0.15801730751991272,-8.044517517089844,5.9304375648498535,9.033203125,-14.1143798828125,-6.0882568359375
0.25874990000000003,0.1628057211637497,-8.037335395812988,5.913678169250488,8.8348388671875,-14.09912109375,-5.950927734375
0.26124990000000003,0.17477671802043915,-8.027758598327637,5.894524574279785,8.880615234375,-14.2364501953125,-5.8135986328125
0.26374990000000004,0.19153612852096558,-8.015787124633789,5.882553577423096,8.758544921875,-14.373779296875,-6.3018798828125
0.26624990000000004,0.2082955539226532,-8.006210327148438,5.875370979309082,8.7432861328125,-14.617919921875,-6.1798095703125
0.26874990000000004,0.22505496442317963,-7.994239330291748,5.8657941818237305,8.7432861328125,-14.6331787109375,-6.0272216796875
0.27124990000000004,0.23942017555236816,-7.994239330291748,5.868188381195068,8.819580078125,-14.8468017578125,-6.0882568359375
0.27374990000000005,0.24899697303771973,-7.9846625328063965,5.872976779937744,8.7738037109375,-14.9383544921875,-6.34765625
0.27624990000000005,0.2585737705230713,-7.982268333435059,5.882553577423096,8.6212158203125,-15.1214599609375,-6.3018798828125
0.27874990000000005,0.26096799969673157,-7.982268333435059,5.899312973022461,8.636474609375,-15.19775390625,-6.195068359375
0.28124990000000005,0.26575639843940735,-7.982268333435059,5.916072368621826,8.5296630859375,-15.2435302734375,-5.9967041015625
0.28374990000000005,0.26575639843940735,-7.989450931549072,5.935225963592529,8.6822509765625,-15.289306640625,-6.0882568359375
0.28624990000000006,0.27054479718208313,-7.99184513092041,5.949591159820557,9.0179443359375,-15.1824951171875,-6.16455078125
0.28874990000000006,0.27054479718208313,-7.999027729034424,5.95677375793457,8.9263916015625,-15.3045654296875,-5.9814453125
0.2912499,0.2753331959247589,-7.999027729034424,5.954379558563232,9.002685546875,-15.13671875,-6.072998046875
0.2937499,0.2777273952960968,-7.999027729034424,5.947196960449219,9.2010498046875,-15.1519775390625,-5.9814453125
0.2962499,0.28730419278144836,-7.999027729034424,5.928043365478516,9.185791015625,-15.350341796875,-6.011962890625
0.2987499,0.3016694188117981,-7.989450931549072,5.916072368621826,9.2010498046875,-15.350341796875,-5.859375
0.3012499,0.3208230137825012,-7.982268333435059,5.894524574279785,9.27734375,-15.1519775390625,-5.828857421875
0.3037499,0.3423708379268646,-7.979874134063721,5.884947776794434,9.46044921875,-15.13671875,-5.67626953125
0.3062499,0.35913026332855225,-7.979874134063721,5.87776517868042,9.46044921875,-15.19775390625,-5.4779052734375
0.3087499,0.3734954595565796,-7.994239330291748,5.880159378051758,9.613037109375,-15.0299072265625,-5.3863525390625
0.3112499,0.38067805767059326,-8.006210327148438,5.894524574279785,9.796142578125,-15.1824951171875,-5.1422119140625
0.3137499,0.38546648621559143,-8.018181800842285,5.91128396987915,9.9945068359375,-15.0909423828125,-5.035400390625
0.31624990000000003,0.37828385829925537,-8.022970199584961,5.9304375648498535,10.4217529296875,-15.0604248046875,-4.8828125
0.31874990000000003,0.37828385829925537,-8.018181800842285,5.942408561706543,10.4217529296875,-15.0909423828125,-4.8065185546875
0.32124990000000003,0.3711012601852417,-8.006210327148438,5.949591159820557,10.4522705078125,-15.167236328125,-4.6844482421875
0.32374990000000003,0.3711012601852417,-7.99184513092041,5.940014362335205,10.5438232421875,-15.0299072265625,-4.425048828125
0.32624990000000004,0.3734954595565796,-7.977479934692383,5.92325496673584,10.68115234375,-15.045166015625,-4.302978515625
0.32874990000000004,0.38067805767059326,-7.970297336578369,5.9088897705078125,10.80322265625,-15.045166015625,-4.0435791015625
0.33124990000000004,0.3902548849582672,-7.960720539093018,5.892130374908447,10.80322265625,-15.0299072265625,-3.814697265625
0.33374990000000004,0.40222588181495667,-7.960720539093018,5.8873419761657715,10.8642578125,-14.9078369140625,-3.6163330078125
0.33624990000000005,0.4141969084739685,-7.95832633972168,5.8873419761657715,11.0015869140625,-14.9688720703125,-3.3416748046875
0.33874990000000005,0.4213795065879822,-7.95832633972168,5.894524574279785,11.0931396484375,-14.9688720703125,-3.3721923828125
0.34124990000000005,0.4213795065879822,-7.955932140350342,5.904101371765137,11.1846923828125,-15.228271484375,-3.11279296875
0.34374990000000005,0.4165911078453064,-7.955932140350342,5.913678169250488,11.322021484375,-15.1824951171875,-2.8076171875
0.34624990000000005,0.4118026793003082,-7.948749542236328,5.928043365478516,11.0321044921875,-15.07568359375,-2.6702880859375
0.34874990000000006,0.40462008118629456,-7.943961143493652,5.935225963592529,10.9100341796875,-15.07568359375,-2.532958984375
0.35124990000000006,0.3998316824436188,-7.943961143493652,5.944802761077881,11.138916015625,-15.2130126953125,-2.44140625
0.3537499,0.395043283700943,-7.939172744750977,5.947196960449219,11.077880859375,-15.106201171875,-2.288818359375
0.3562499,0.3926490843296051,-7.936778545379639,5.942408561706543,10.8184814453125,-15.106201171875,-2.25830078125
0.3587499,0.3878606855869293,-7.927201747894287,5.935225963592529,10.8642578125,-15.167236328125,-1.9989013671875
0.3612499,0.38546648621559143,-7.915230751037598,5.925649166107178,10.7269287109375,-15.19775390625,-1.77001953125
0.3637499,0.38546648621559143,-7.903259754180908,5.913678169250488,10.6201171875,-15.533447265625,-1.5869140625
0.3662499,0.38546648621559143,-7.891288757324219,5.906495571136475,10.284423828125,-15.4571533203125,-1.617431640625
0.3687499,0.38546648621559143,-7.886500358581543,5.896918773651123,10.2691650390625,-15.5029296875,-1.678466796875
0.3712499,0.3926490843296051,-7.884106159210205,5.892130374908447,10.2081298828125,-15.6097412109375,-1.4495849609375
0.3737499,0.3926490843296051,-7.884106159210205,5.894524574279785,10.040283203125,-15.533447265625,-1.1138916015625
0.3762499,0.3998316824436188,-7.891288757324219,5.904101371765137,9.7503662109375,-15.68603515625,-1.1749267578125
0.37874990000000003,0.40462008118629456,-7.8960771560668945,5.918466567993164,9.6893310546875,-15.80810546875,-1.251220703125
0.38124990000000003,0.40462008118629456,-7.908048152923584,5.935225963592529,9.613037109375,-16.05224609375,-0.9918212890625
0.38374990000000003,0.40222588181495667,-7.91283655166626,5.949591159820557,9.2010498046875,-16.2506103515625,-0.8392333984375
0.38624990000000003,0.395043283700943,-7.9176249504089355,5.959167957305908,9.1705322265625,-16.2811279296875,-0.7781982421875
0.38874990000000004,0.395043283700943,-7.915230751037598,5.966350555419922,8.941650390625,-16.357421875,-0.6866455078125
0.39124990000000004,0.395043283700943,-7.91283655166626,5.975927352905273,8.7738037109375,-16.4642333984375,-0.6103515625
0.39374990000000004,0.3974374830722809,-7.908048152923584,5.985504150390625,8.453369140625,-16.326904296875,-0.6561279296875
0.39624990000000004,0.40940847992897034,-7.90086555480957,5.999869346618652,8.392333984375,-16.4642333984375,-0.274658203125
0.39874990000000005,0.4189853072166443,-7.898471355438232,6.011840343475342,8.331298828125,-16.5557861328125,0.030517578125
0.40124990000000005,0.43335050344467163,-7.898471355438232,6.0190229415893555,8.209228515625,-16.632080078125,-0.152587890625
0.40374990000000005,0.44532153010368347,-7.8960771560668945,6.026205539703369,7.965087890625,-16.510009765625,-0.1068115234375
0.40624990000000005,0.44771572947502136,-7.90086555480957,6.033388137817383,7.8887939453125,-16.693115234375,0.030517578125
0.40874990000000005,0.45250412821769714,-7.908048152923584,6.045359134674072,7.6141357421875,-16.6168212890625,-0.1068115234375
0.41124990000000006,0.45010992884635925,-7.9176249504089355,6.054935932159424,7.5531005859375,-16.876220703125,0.244140625
0.41374990000000006,0.45010992884635925,-7.931990146636963,6.066906929016113,7.5531005859375,-16.8609619140625,0.3204345703125
0.41624990000000006,0.45250412821769714,-7.94635534286499,6.074089527130127,7.50732421875,-16.845703125,0.213623046875
0.4187499,0.4572925269603729,-7.95832633972168,6.078877925872803,7.2479248046875,-16.876220703125,0.5340576171875
0.4212499,0.4644751250743866,-7.967903137207031,6.081272125244141,7.3089599609375,-16.9219970703125,0.579833984375
0.4237499,0.4692635238170624,-7.979874134063721,6.081272125244141,7.4005126953125,-16.937255859375,0.579833984375
0.4262499,0.47165772318840027,-7.989450931549072,6.086060523986816,7.26318359375,-16.8304443359375,0.732421875
0.4287499,0.47405192255973816,-7.999027729034424,6.090848922729492,7.476806640625,-16.845703125,0.9918212890625
0.4312499,0.47405192255973816,-8.003816604614258,6.100425720214844,7.5225830078125,-16.8304443359375,1.1138916015625
0.4337499,0.47405192255973816,-8.010998725891113,6.112396717071533,7.476806640625,-16.937255859375,1.03759765625
0.4362499,0.47644615173339844,-8.018181800842285,6.121973514556885,7.5836181640625,-16.9525146484375,1.190185546875
0.4387499,0.47405192255973816,-8.022970199584961,6.121973514556885,7.6141357421875,-16.937255859375,1.46484375
0.44124990000000003,0.47405192255973816,-8.02536392211914,6.114790916442871,7.6141357421875,-16.8609619140625,1.434326171875
0.44374990000000003,0.4692635238170624,-8.020575523376465,6.102819919586182,7.6904296875,-16.815185546875,1.52587890625
0.44624990000000003,0.47165772318840027,-8.015787124633789,6.090848922729492,7.781982421875,-16.90673828125,1.52587890625
0.44874990000000003,0.47165772318840027,-8.010998725891113,6.088454723358154,8.026123046875,-17.181396484375,1.556396484375
0.45124990000000004,0.47165772318840027,-8.008605003356934,6.086060523986816,8.1787109375,-17.1966552734375,1.8463134765625
0.45374990000000004,0.47405192255973816,-8.006210327148438,6.090848922729492,8.1634521484375,-17.0745849609375,1.8768310546875
0.45624990000000004,0.47644615173339844,-8.003816604614258,6.095637321472168,8.23974609375,-17.2882080078125,1.9683837890625
0.45874990000000004,0.4812345504760742,-7.999027729034424,6.100425720214844,8.23974609375,-17.4102783203125,2.105712890625
0.46124990000000005,0.4836287498474121,-7.99184513092041,6.100425720214844,8.4075927734375,-17.303466796875,2.25830078125
0.46374990000000005,0.4836287498474121,-7.9846625328063965,6.098031520843506,8.636474609375,-17.2576904296875,2.3040771484375
0.46624990000000005,0.4812345504760742,-7.982268333435059,6.095637321472168,8.514404296875,-17.3797607421875,2.2125244140625
0.46874990000000005,0.47405192255973816,-7.979874134063721,6.095637321472168,8.2855224609375,-17.4713134765625,2.1209716796875
0.47124990000000005,0.47405192255973816,-7.972691535949707,6.098031520843506,8.3160400390625,-17.486572265625,2.1514892578125
0.47374990000000006,0.47165772318840027,-7.9631147384643555,6.095637321472168,8.575439453125,-17.547607421875,2.349853515625
0.47624990000000006,0.47884035110473633,-7.948749542236328,6.098031520843506,8.4075927734375,-17.76123046875,2.4261474609375
0.47874990000000006,0.4836287498474121,-7.9415669441223145,6.095637321472168,7.9803466796875,-17.63916015625,2.3040771484375
0.4812499,0.49559974670410156,-7.931990146636963,6.095637321472168,7.9193115234375,-17.5933837890625,2.227783203125
0.4837499,0.5051765441894531,-7.931990146636963,6.100425720214844,7.9193115234375,-17.5628662109375,2.410888671875
0.4862499,0.5123591423034668,-7.927201747894287,6.100425720214844,7.7056884765625,-17.669677734375,2.50244140625
0.4887499,0.5123591423034668,-7.924807548522949,6.102819919586182,7.4462890625,-17.7459716796875,2.38037109375
0.4912499,0.5147533416748047,-7.915230751037598,6.1052141189575195,7.3394775390625,-17.608642578125,2.3040771484375
0.4937499,0.5123591423034668,-7.915230751037598,6.107608318328857,7.2784423828125,-17.63916015625,2.4871826171875
0.4962499,0.5099649429321289,-7.91283655166626,6.112396717071533,6.8359375,-17.7764892578125,2.4566650390625
0.4987499,0.5099649429321289,-7.91283655166626,6.117185115814209,6.4544677734375,-17.791748046875,1.9989013671875
0.5012499,0.5099649429321289,-7.9176249504089355,6.119579315185547,6.4697265625,-17.8985595703125,2.38037109375
0.5037499000000001,0.5123591423034668,-7.915230751037598,6.119579315185547,6.2713623046875,-17.9290771484375,2.3193359375
0.5062499,0.5195417404174805,-7.910442352294922,6.114790916442871,6.1492919921875,-17.88330078125,2.0751953125
0.5087499000000001,0.5219359993934631,-7.898471355438232,6.1052141189575195,5.828857421875,-17.8680419921875,2.13623046875
0.5112499,0.524330198764801,-7.886500358581543,6.098031520843506,5.8746337890625,-18.0206298828125,2.0599365234375
0.5137499,0.5219359993934631,-7.8745293617248535,6.088454723358154,5.615234375,-18.310546875,2.0751953125
0.5162499,0.5219359993934631,-7.864952564239502,6.081272125244141,5.43212890625,-18.1884765625,2.0751953125
0.5187499,0.5219359993934631,-7.860164165496826,6.081272125244141,5.1116943359375,-18.2037353515625,2.01416015625
0.5212499,0.5267243981361389,-7.857769966125488,6.0836663246154785,4.94384765625,-18.341064453125,1.953125
0.5237499,0.5267243981361389,-7.864952564239502,6.090848922729492,4.8675537109375,-18.157958984375,2.0294189453125
0.5262499,0.5315127968788147,-7.8745293617248535,6.100425720214844,4.852294921875,-18.37158203125,2.166748046875
0.5287499,0.5363011956214905,-7.886500358581543,6.110002517700195,4.8675537109375,-18.4326171875,1.9989013671875
0.5312499,0.5410895943641663,-7.90086555480957,6.119579315185547,4.57763671875,-18.2952880859375,1.953125
0.5337499,0.545877993106842,-7.910442352294922,6.124367713928223,4.5928955078125,-18.4478759765625,1.9073486328125
0.5362499000000001,0.5482721924781799,-7.91283655166626,6.129156112670898,4.45556640625,-18.7225341796875,1.89208984375
0.5387499,0.5482721924781799,-7.91283655166626,6.129156112670898,4.39453125,-18.707275390625,1.9073486328125
0.5412499000000001,0.5506663918495178,-7.908048152923584,6.119579315185547,4.2877197265625,-18.6614990234375,1.9683837890625
0.5437499,0.5530605912208557,-7.905653953552246,6.110002517700195,4.2266845703125,-18.6920166015625,1.9378662109375
0.5462499000000001,0.5626373887062073,-7.90086555480957,6.095637321472168,4.2266845703125,-18.5089111328125,1.9989013671875
0.5487499,0.5746083855628967,-7.898471355438232,6.088454723358154,4.1351318359375,-18.5394287109375,1.89208984375
0.5512499000000001,0.5889736413955688,-7.898471355438232,6.086060523986816,3.997802734375,-18.6309814453125,1.6937255859375
0.5537499,0.5961562395095825,-7.898471355438232,6.095637321472168,3.9215087890625,-18.6004638671875,1.8157958984375
0.5562499000000001,0.6033388376235962,-7.903259754180908,6.110002517700195,3.9825439453125,-18.585205078125,1.8310546875
0.5587499,0.5961562395095825,-7.910442352294922,6.1267619132995605,4.0283203125,-18.6004638671875,1.617431640625
0.5612499000000001,0.5889736413955688,-7.91283655166626,6.141127586364746,3.8299560546875,-18.5699462890625,1.5716552734375
0.5637499,0.5793967843055725,-7.915230751037598,6.14831018447876,3.753662109375,-18.7530517578125,1.6937255859375
0.5662499000000001,0.5746083855628967,-7.908048152923584,6.150704383850098,3.631591796875,-18.6004638671875,1.5716552734375
0.5687499,0.5674257874488831,-7.903259754180908,6.150704383850098,3.9825439453125,-18.61572265625,1.6021728515625
0.5712499000000001,0.569819986820221,-7.898471355438232,6.1530985832214355,3.96728515625,-18.6309814453125,1.7547607421875
0.5737499,0.5674257874488831,-7.898471355438232,6.157886981964111,3.7841796875,-18.5089111328125,1.5716552734375
0.5762499000000001,0.569819986820221,-7.903259754180908,6.167463779449463,3.7689208984375,-18.5699462890625,1.46484375
0.5787499,0.5674257874488831,-7.908048152923584,6.1770405769348145,3.6773681640625,-18.49365234375,1.4495849609375
0.5812499,0.5626373887062073,-7.910442352294922,6.189011573791504,3.4637451171875,-18.310546875,1.312255859375
0.5837499,0.5578489899635315,-7.905653953552246,6.191405773162842,3.6773681640625,-18.37158203125,1.3885498046875
0.5862499,0.5554547905921936,-7.898471355438232,6.191405773162842,3.5247802734375,-18.3258056640625,1.4495849609375
0.5887499,0.5602431893348694,-7.891288757324219,6.189011573791504,3.631591796875,-18.06640625,1.3275146484375
0.5912499,0.569819986820221,-7.881711959838867,6.18182897567749,3.4332275390625,-17.8985595703125,1.2054443359375
0.5937499,0.5793967843055725,-7.872135162353516,6.1770405769348145,3.1585693359375,-17.9595947265625,0.9918212890625
0.5962499,0.5841852426528931,-7.862558364868164,6.165069580078125,3.3416748046875,-17.913818359375,1.03759765625
0.5987499000000001,0.586579442024231,-7.857769966125488,6.157886981964111,3.6468505859375,-17.8375244140625,0.9613037109375
0.6012499,0.586579442024231,-7.8529815673828125,6.145915985107422,3.4332275390625,-17.76123046875,0.885009765625
0.6037499000000001,0.5937620401382446,-7.857769966125488,6.141127586364746,3.631591796875,-18.0206298828125,0.79345703125
0.6062499,0.6033388376235962,-7.85537576675415,6.13633918762207,3.7994384765625,-18.00537109375,0.701904296875
0.6087499000000001,0.608127236366272,-7.860164165496826,6.133944988250732,3.47900390625,-17.822265625,0.67138671875
0.6112499,0.6177040338516235,-7.8529815673828125,6.129156112670898,3.7689208984375,-17.608642578125,0.6256103515625
0.6137499000000001,0.6200982332229614,-7.848193168640137,6.124367713928223,3.7841796875,-17.486572265625,0.42724609375
0.6162499,0.6224924325942993,-7.838616371154785,6.124367713928223,3.9215087890625,-17.51708984375,0.4425048828125
0.6187499000000001,0.6224924325942993,-7.833827972412109,6.124367713928223,4.058837890625,-17.4560546875,0.48828125
0.6212499,0.6177040338516235,-7.8314337730407715,6.1315507888793945,3.753662109375,-17.08984375,0.4730224609375
0.6237499000000001,0.6177040338516235,-7.833827972412109,6.133944988250732,3.936767578125,-17.2576904296875,0.6256103515625
0.6262499,0.6224924325942993,-7.833827972412109,6.141127586364746,4.08935546875,-17.0440673828125,0.48828125
0.6287499000000001,0.6272808313369751,-7.833827972412109,6.145915985107422,4.0283203125,-16.693115234375,0.3509521484375
0.6312499,0.6416460275650024,-7.836222171783447,6.14831018447876,4.1656494140625,-16.7694091796875,0.4425048828125
0.6337499000000001,0.6488286852836609,-7.8314337730407715,6.155492782592773,4.364013671875,-16.510009765625,0.42724609375
0.6362499,0.6607996821403503,-7.826645374298096,6.155492782592773,4.150390625,-16.2200927734375,0.42724609375
0.6387499000000001,0.6799532771110535,-7.814674377441406,6.160281181335449,4.058837890625,-16.05224609375,0.3204345703125
0.6412499,0.6991068720817566,-7.800309181213379,6.155492782592773,4.1046142578125,-15.869140625,0.3509521484375
0.6437499,0.7182605266571045,-7.7883381843566895,6.14831018447876,4.3182373046875,-15.625,0.457763671875
0.6462499,0.7326257228851318,-7.781155586242676,6.13633918762207,4.302978515625,-15.31982421875,0.42724609375
0.6487499,0.7398083209991455,-7.778761386871338,6.1267619132995605,4.2877197265625,-15.0299072265625,0.48828125
0.6512499,0.7374141216278076,-7.783549785614014,6.121973514556885,4.4097900390625,-14.984130859375,0.701904296875
0.6537499,0.7350199222564697,-7.790732383728027,6.1267619132995605,4.3487548828125,-14.6331787109375,0.7171630859375
0.6562499,0.7350199222564697,-7.795520782470703,6.13633918762207,4.4097900390625,-14.373779296875,0.6561279296875
0.6587499,0.7398083209991455,-7.800309181213379,6.145915985107422,4.5166015625,-14.373779296875,0.8544921875
0.6612499000000001,0.7469909191131592,-7.797914981842041,6.145915985107422,4.547119140625,-13.97705078125,0.885009765625
0.6637499,0.7493851184844971,-7.795520782470703,6.145915985107422,4.364013671875,-13.427734375,0.9002685546875
0.6662499000000001,0.7469909191131592,-7.795520782470703,6.138733386993408,4.547119140625,-13.3056640625,1.007080078125
0.6687499,0.7374141216278076,-7.793126583099365,6.13633918762207,4.4708251953125,-13.3056640625,1.28173828125
0.6712499000000001,0.727837324142456,-7.790732383728027,6.1267619132995605,4.69970703125,-12.939453125,1.2664794921875
0.6737499,0.7230489253997803,-7.7883381843566895,6.124367713928223,4.94384765625,-12.664794921875,1.28173828125
0.6762499000000001,0.7230489253997803,-7.785943984985352,6.110002517700195,4.9285888671875,-12.3443603515625,1.5106201171875
0.6787499,0.727837324142456,-7.778761386871338,6.102819919586182,4.913330078125,-12.14599609375,1.5106201171875
0.6812499000000001,0.7374141216278076,-7.7763671875,6.086060523986816,4.9591064453125,-11.90185546875,1.434326171875
0.6837499,0.7422025203704834,-7.7643961906433105,6.076483726501465,5.0048828125,-11.749267578125,1.708984375
0.6862499000000001,0.7469909191131592,-7.757213592529297,6.069301128387451,4.9591064453125,-11.5509033203125,1.5411376953125
0.6887499,0.7445967197418213,-7.752425193786621,6.064512729644775,5.0048828125,-11.3525390625,1.9073486328125
0.6912499000000001,0.7398083209991455,-7.7428483963012695,6.066906929016113,5.1727294921875,-11.2152099609375,2.166748046875
0.6937499,0.7326257228851318,-7.750030994415283,6.074089527130127,5.1727294921875,-11.0626220703125,2.0751953125
0.6962499000000001,0.7254431247711182,-7.750030994415283,6.078877925872803,5.0506591796875,-11.0015869140625,2.13623046875
0.6987499,0.7110779285430908,-7.750030994415283,6.086060523986816,4.974365234375,-10.6353759765625,2.1820068359375
0.7012499000000001,0.6943184733390808,-7.750030994415283,6.086060523986816,5.06591796875,-10.5133056640625,2.38037109375
0.7037499,0.6871358752250671,-7.740454196929932,6.081272125244141,5.1727294921875,-10.3302001953125,2.50244140625
0.7062499,0.6823474764823914,-7.735665798187256,6.074089527130127,5.06591796875,-10.2386474609375,2.4871826171875
0.7087499,0.6847416758537292,-7.73087739944458,6.069301128387451,5.0048828125,-9.9334716796875,2.5482177734375
0.7112499,0.689530074596405,-7.73087739944458,6.069301128387451,4.974365234375,-9.674072265625,2.4871826171875
0.7137499,0.6943184733390808,-7.733271598815918,6.078877925872803,4.7607421875,-9.3994140625,2.685546875
0.7162499,0.7015010714530945,-7.733271598815918,6.086060523986816,4.7760009765625,-9.4757080078125,2.8228759765625
0.7187499,0.7015010714530945,-7.738059997558594,6.095637321472168,4.608154296875,-9.3841552734375,2.8076171875
0.7212499,0.706289529800415,-7.740454196929932,6.100425720214844,4.57763671875,-9.1094970703125,2.8076171875
0.7237499000000001,0.7015010714530945,-7.750030994415283,6.100425720214844,4.4403076171875,-9.002685546875,2.9754638671875
0.7262499,0.6967126727104187,-7.759607791900635,6.098031520843506,4.08935546875,-9.1705322265625,3.204345703125
0.7287499000000001,0.6871358752250671,-7.771578788757324,6.095637321472168,3.8604736328125,-8.7432861328125,3.204345703125
0.7312499,0.6775590777397156,-7.783549785614014,6.100425720214844,3.8299560546875,-8.4381103515625,3.35693359375
0.7337499000000001,0.6655880808830261,-7.793126583099365,6.112396717071533,3.7689208984375,-8.3770751953125,3.4027099609375
0.7362499,0.6560112833976746,-7.802703380584717,6.119579315185547,3.4942626953125,-8.5601806640625,3.5247802734375
0.7387499000000001,0.646434485912323,-7.8098859786987305,6.133944988250732,3.35693359375,-8.2855224609375,3.41796875
0.7412499,0.6488286852836609,-7.812280178070068,6.141127586364746,3.4637451171875,-8.1024169921875,3.509521484375
0.7437499000000001,0.646434485912323,-7.814674377441406,6.133944988250732,3.2806396484375,-8.1024169921875,3.7384033203125
0.7462499,0.6344634294509888,-7.82185697555542,6.110002517700195,3.2806396484375,-7.5836181640625,3.4332275390625
0.7487499000000001,0.6105214357376099,-7.833827972412109,6.098031520843506,2.9449462890625,-7.5531005859375,3.570556640625
0.7512499,0.586579442024231,-7.8529815673828125,6.088454723358154,2.838134765625,-7.965087890625,3.72314453125
0.7537499000000001,0.5793967843055725,-7.864952564239502,6.107608318328857,2.777099609375,-8.3160400390625,3.814697265625
0.7562499,0.5985504388809204,-7.8745293617248535,6.13633918762207,2.685546875,-8.3160400390625,3.7994384765625
0.7587499000000001,0.6344634294509888,-7.879317760467529,6.160281181335449,2.2735595703125,-7.75146484375,4.0435791015625
0.7612499,0.6512228846549988,-7.8960771560668945,6.165069580078125,2.1514892578125,-7.1563720703125,3.90625
0.7637499000000001,0.6512228846549988,-7.908048152923584,6.162675380706787,2.3345947265625,-7.2021484375,3.936767578125
0.7662499,0.6224924325942993,-7.927201747894287,6.160281181335449,2.3345947265625,-7.75146484375,3.997802734375
0.7687499000000001,0.6009446382522583,-7.927201747894287,6.157886981964111,2.3040771484375,-7.8277587890625,3.9215087890625
0.7712499,0.5961562395095825,-7.927201747894287,6.162675380706787,1.9989013671875,-7.6446533203125,3.8909912109375
0.7737499,0.608127236366272,-7.9176249504089355,6.169857978820801,1.9683837890625,-7.62939453125,3.8909912109375
0.7762499,0.6320692300796509,-7.91283655166626,6.1770405769348145,1.8463134765625,-7.476806640625,3.8299560546875
0.7787499,0.646434485912323,-7.9176249504089355,6.186617374420166,1.6021728515625,-7.171630859375,3.662109375
0.7812499,0.6560112833976746,-7.931990146636963,6.1985883712768555,1.4495849609375,-6.9732666015625,3.662109375
0.7837499,0.6560112833976746,-7.951143741607666,6.208165168762207,1.3580322265625,-7.32421875,3.875732421875
0.7862499000000001,0.6560112833976746,-7.967903137207031,6.222530364990234,1.2969970703125,-7.4920654296875,3.6773681640625
0.7887499,0.6607996821403503,-7.975085735321045,6.229712963104248,1.2359619140625,-7.26318359375,3.5858154296875
0.7912499000000001,0.6751648783683777,-7.979874134063721,6.2416839599609375,1.2054443359375,-7.0953369140625,3.5858154296875
0.7937499,0.689530074596405,-7.982268333435059,6.251260757446289,1.0986328125,-7.049560546875,3.448486328125
0.7962499000000001,0.7110779285430908,-7.99184513092041,6.258443355560303,0.8392333984375,-6.8817138671875,3.2806396484375
0.7987499,0.727837324142456,-8.008605003356934,6.260837554931641,1.068115234375,-6.8817138671875,3.2501220703125
0.8012499000000001,0.7422025203704834,-8.02536392211914,6.251260757446289,0.946044921875,-7.01904296875,2.960205078125
0.8037499,0.7637503147125244,-8.042123794555664,6.246472358703613,0.9307861328125,-6.8359375,2.86865234375
0.8062499000000001,0.7829039692878723,-8.056488990783691,6.2416839599609375,0.9002685546875,-6.744384765625,2.7618408203125
0.8087499,0.8068459630012512,-8.070854187011719,6.253654956817627,0.9918212890625,-6.8511962890625,2.7923583984375
0.8112499000000001,0.8355764150619507,-8.08043098449707,6.268020153045654,0.8544921875,-7.0648193359375,2.62451171875
0.8137499,0.8690952062606812,-8.087613105773926,6.287173748016357,0.7171630859375,-7.0037841796875,2.1820068359375
0.8162499000000001,0.8978256583213806,-8.092401504516602,6.3063273429870605,0.6866455078125,-6.9580078125,2.01416015625
0.8187499,0.9193734526634216,-8.101978302001953,6.327875137329102,0.7171630859375,-7.110595703125,2.0294189453125
0.8212499000000001,0.9385270476341248,-8.11634349822998,6.349422931671143,0.762939453125,-7.110595703125,1.6937255859375
0.8237499,0.9600749015808105,-8.135497093200684,6.366182327270508,0.732421875,-7.2174072265625,1.4190673828125
0.8262499000000001,0.9840168952941895,-8.154650688171387,6.375759124755859,0.7781982421875,-7.110595703125,1.1749267578125
0.8287499,1.01753568649292,-8.169015884399414,6.368576526641846,0.8087158203125,-7.293701171875,1.068115234375
0.8312499000000001,1.0414776802062988,-8.178592681884766,6.358999729156494,0.7476806640625,-7.232666015625,0.9002685546875
0.8337499,1.0582371950149536,-8.185775756835938,6.3518171310424805,0.640869140625,-7.26318359375,0.5340576171875
0.8362499,1.0654197931289673,-8.195352554321289,6.344634532928467,0.67138671875,-7.5836181640625,0.30517578125
0.8387499,1.0654197931289673,-8.20492935180664,6.356605529785156,0.4425048828125,-7.6141357421875,0.1220703125
0.8412499,1.0749965906143188,-8.219294548034668,6.370970726013184,0.3509521484375,-7.8277587890625,-0.30517578125
0.8437499,1.0893617868423462,-8.22887134552002,6.399701118469238,0.30517578125,-8.056640625,-0.42724609375
0.8462499,1.161187767982483,-8.243236541748047,6.464344501495361,-0.0152587890625,-8.0108642578125,-0.885009765625
0.8487499000000001,1.161187767982483,-8.243236541748047,6.464344501495361,-0.0152587890625,-8.0108642578125,-0.885009765625
0.8512499,1.2306196689605713,-8.252813339233398,6.507440090179443,-0.091552734375,-8.209228515625,-1.922607421875
0.8537499000000001,1.2306196689605713,-8.252813339233398,6.507440090179443,-0.091552734375,-8.209228515625,-1.922607421875
0.8562499,1.278503656387329,-8.26239013671875,6.536170482635498,-0.3509521484375,-8.636474609375,-2.593994140625
0.8587499000000001,1.278503656387329,-8.26239013671875,6.536170482635498,-0.3509521484375,-8.636474609375,-2.593994140625
0.8612499,1.3311761617660522,-8.279149055480957,6.552929878234863,-0.946044921875,-9.3536376953125,-3.60107421875
0.8637499000000001,1.3311761617660522,-8.279149055480957,6.552929878234863,-0.946044921875,-9.3536376953125,-3.60107421875
0.8662499,1.3862427473068237,-8.293514251708984,6.562506675720215,-1.312255859375,-9.796142578125,-4.7607421875
0.8687499000000001,1.3862427473068237,-8.293514251708984,6.562506675720215,-1.312255859375,-9.796142578125,-4.7607421875
0.8712499,1.4269442558288574,-8.310274124145508,6.564900875091553,-1.373291015625,-10.2386474609375,-5.4168701171875
0.8737499000000001,1.4269442558288574,-8.310274124145508,6.564900875091553,-1.373291015625,-10.2386474609375,-5.4168701171875
0.8762499,1.4508862495422363,-8.33182144165039,6.550535678863525,-1.434326171875,-10.8795166015625,-6.3934326171875
0.8787499000000001,1.4508862495422363,-8.33182144165039,6.550535678863525,-1.434326171875,-10.8795166015625,-6.3934326171875
0.8812499,1.4676456451416016,-8.348581314086914,6.53377628326416,-1.8463134765625,-11.8255615234375,-7.6446533203125
0.8837499000000001,1.4676456451416016,-8.348581314086914,6.53377628326416,-1.8463134765625,-11.8255615234375,-7.6446533203125
0.8862499,1.4724340438842773,-8.370129585266113,6.521805286407471,-2.2125244140625,-12.5885009765625,-8.5601806640625
0.8887499000000001,1.4724340438842773,-8.370129585266113,6.521805286407471,-2.2125244140625,-12.5885009765625,-8.5601806640625
0.8912499,1.4772224426269531,-8.377311706542969,6.50025749206543,-2.7313232421875,-13.73291015625,-9.735107421875
0.8937499000000001,1.4772224426269531,-8.377311706542969,6.50025749206543,-2.7313232421875,-13.73291015625,-9.735107421875
0.8962499,1.479616641998291,-8.367734909057617,6.473921298980713,-3.2958984375,-14.6942138671875,-10.772705078125
0.8987499,1.479616641998291,-8.367734909057617,6.473921298980713,-3.2958984375,-14.6942138671875,-10.772705078125
0.9012499,1.4867992401123047,-8.360552787780762,6.435614109039307,-3.387451171875,-15.8233642578125,-12.2222900390625
0.9037499,1.4867992401123047,-8.360552787780762,6.435614109039307,-3.387451171875,-15.8233642578125,-12.2222900390625
0.9062499,1.5107412338256836,-8.343792915344238,6.392518520355225,-4.0283203125,-17.1051025390625,-13.6871337890625
0.9087499,1.5107412338256836,-8.343792915344238,6.392518520355225,-4.0283203125,-17.1051025390625,-13.6871337890625
0.9112499000000001,1.5514427423477173,-8.334216117858887,6.358999729156494,-4.3792724609375,-18.12744140625,-15.4571533203125
0.9137499,1.5514427423477173,-8.334216117858887,6.358999729156494,-4.3792724609375,-18.12744140625,-15.4571533203125
0.9162499000000001,1.6065093278884888,-8.346187591552734,6.323086738586426,-5.0048828125,-19.6380615234375,-16.7236328125
0.9187499,1.6065093278884888,-8.346187591552734,6.323086738586426,-5.0048828125,-19.6380615234375,-16.7236328125
0.9212499000000001,1.647210717201233,-8.370129585266113,6.289567947387695,-5.279541015625,-20.9503173828125,-18.1732177734375
0.9237499,1.647210717201233,-8.370129585266113,6.289567947387695,-5.279541015625,-20.9503173828125,-18.1732177734375
0.9262499000000001,1.6663644313812256,-8.391676902770996,6.2847795486450195,-6.1798095703125,-22.064208984375,-19.4244384765625
0.9287499,1.6663644313812256,-8.391676902770996,6.2847795486450195,-6.1798095703125,-22.064208984375,-19.4244384765625
0.9312499000000001,1.6879122257232666,-8.401253700256348,6.301538944244385,-6.7291259765625,-23.3154296875,-20.6756591796875
0.9337499,1.6879122257232666,-8.401253700256348,6.301538944244385,-6.7291259765625,-23.3154296875,-20.6756591796875
0.9362499000000001,1.7190368175506592,-8.398859977722168,6.303933143615723,-7.4310302734375,-24.322509765625,-21.820068359375
0.9387499,1.7190368175506592,-8.398859977722168,6.303933143615723,-7.4310302734375,-24.322509765625,-21.820068359375
0.9412499000000001,1.7693150043487549,-8.382100105285645,6.287173748016357,-8.4686279296875,-25.45166015625,-23.01025390625
0.9437499,1.7693150043487549,-8.382100105285645,6.287173748016357,-8.4686279296875,-25.45166015625,-23.01025390625
0.9462499000000001,1.8267759084701538,-8.343792915344238,6.256049156188965,-9.490966796875,-26.5960693359375,-24.4598388671875
0.9487499,1.8267759084701538,-8.343792915344238,6.256049156188965,-9.490966796875,-26.5960693359375,-24.4598388671875
0.9512499000000001,1.8842366933822632,-8.286332130432129,6.1985883712768555,-10.6201171875,-27.9998779296875,-25.57373046875
0.9537499,1.8842366933822632,-8.286332130432129,6.1985883712768555,-10.6201171875,-27.9998779296875,-25.57373046875
0.9562499000000001,1.9249382019042969,-8.252813339233398,6.1530985832214355,-11.77978515625,-28.6407470703125,-27.0843505859375
0.9587499,1.9249382019042969,-8.252813339233398,6.1530985832214355,-11.77978515625,-28.6407470703125,-27.0843505859375
0.9612499,1.922544002532959,-8.238448143005371,6.1315507888793945,-13.36669921875,-29.6173095703125,-28.2135009765625
0.9637499,1.922544002532959,-8.238448143005371,6.1315507888793945,-13.36669921875,-29.6173095703125,-28.2135009765625
0.9662499,1.9057846069335938,-8.200140953063965,6.09324312210083,-15.1824951171875,-30.3497314453125,-29.4342041015625
0.9687499,1.9057846069335938,-8.200140953063965,6.09324312210083,-15.1824951171875,-30.3497314453125,-29.4342041015625
0.9712499,1.8986018896102905,-8.145073890686035,6.045359134674072,-16.754150390625,-31.5704345703125,-30.8990478515625
0.9737499000000001,1.8986018896102905,-8.145073890686035,6.045359134674072,-16.754150390625,-31.5704345703125,-30.8990478515625
0.9762499,1.9153614044189453,-8.092401504516602,6.035782337188721,-18.6004638671875,-32.28759765625,-32.0892333984375
0.9787499000000001,1.9153614044189453,-8.092401504516602,6.035782337188721,-18.6004638671875,-32.28759765625,-32.0892333984375
0.9812499,1.944091796875,-8.08043098449707,6.050147533416748,-20.1263427734375,-33.02001953125,-33.38623046875
0.9837499000000001,1.944091796875,-8.08043098449707,6.050147533416748,-20.1263427734375,-33.02001953125,-33.38623046875
0.9862499,1.9488801956176758,-8.092401504516602,6.038176536560059,-21.7437744140625,-33.6761474609375,-34.698486328125
0.9887499000000001,1.9488801956176758,-8.092401504516602,6.038176536560059,-21.7437744140625,-33.6761474609375,-34.698486328125
0.9912499,1.9297266006469727,-8.087613105773926,5.9974751472473145,-23.101806640625,-34.3170166015625,-36.0107421875
0.9937499000000001,1.9297266006469727,-8.087613105773926,5.9974751472473145,-23.101806640625,-34.3170166015625,-36.0107421875
0.9962499,1.922544002532959,-8.078036308288574,5.954379558563232,-24.261474609375,-35.09521484375,-37.0941162109375
0.9987499000000001,1.922544002532959,-8.078036308288574,5.954379558563232,-24.261474609375,-35.09521484375,-37.0941162109375
1.0012499,1.9393033981323242,-8.08282470703125,5.925649166107178,-25.054931640625,-35.70556640625,-38.116455078125
1.0037498999999999,1.9393033981323242,-8.08282470703125,5.925649166107178,-25.054931640625,-35.70556640625,-38.116455078125
1.0062499,1.9536685943603516,-8.1139497756958,5.904101371765137,-25.93994140625,-35.9649658203125,-39.3524169921875
1.0087499,1.9536685943603516,-8.1139497756958,5.904101371765137,-25.93994140625,-35.9649658203125,-39.3524169921875
1.0112499,1.9584569931030273,-8.145073890686035,5.875370979309082,-26.2298583984375,-36.6058349609375,-40.069580078125
1.0137498999999999,1.9584569931030273,-8.145073890686035,5.875370979309082,-26.2298583984375,-36.6058349609375,-40.069580078125
1.0162499,1.9512743949890137,-8.169015884399414,5.861005783081055,-26.6265869140625,-37.322998046875,-40.740966796875
1.0187499,1.9512743949890137,-8.169015884399414,5.861005783081055,-26.6265869140625,-37.322998046875,-40.740966796875
1.0212499,1.9608511924743652,-8.197746276855469,5.87776517868042,-26.702880859375,-37.78076171875,-41.473388671875
1.0237498999999999,1.9847931861877441,-8.214506149291992,5.889736175537109,-26.7333984375,-38.116455078125,-41.8548583984375
1.0262498999999998,2.0159177780151367,-8.226476669311523,5.904101371765137,-26.8402099609375,-38.2843017578125,-42.144775390625
1.0287499,2.051830768585205,-8.238448143005371,5.913678169250488,-26.580810546875,-38.421630859375,-42.54150390625
1.0312499,2.0901381969451904,-8.248024940490723,5.913678169250488,-26.2908935546875,-38.5894775390625,-42.633056640625
1.0337498999999999,2.121262788772583,-8.248024940490723,5.906495571136475,-26.1383056640625,-39.1998291015625,-42.938232421875
1.0362498999999998,2.145204782485962,-8.24084186553955,5.899312973022461,-25.8941650390625,-39.3524169921875,-43.1976318359375
1.0387499,2.1571757793426514,-8.233659744262695,5.894524574279785,-25.5889892578125,-39.703369140625,-43.701171875
1.0412499,2.1571757793426514,-8.219294548034668,5.901707172393799,-25.2685546875,-40.0390625,-43.8995361328125
1.0437499,2.145204782485962,-8.209717750549316,5.9088897705078125,-25.2227783203125,-40.1458740234375,-44.2352294921875
1.0462498999999998,2.1356279850006104,-8.200140953063965,5.92325496673584,-24.871826171875,-40.5120849609375,-44.4793701171875
1.0487499,2.1332337856292725,-8.195352554321289,5.925649166107178,-24.4140625,-40.863037109375,-44.647216796875
1.0512499,2.1380221843719482,-8.197746276855469,5.920860767364502,-24.0020751953125,-41.07666015625,-45.013427734375
1.0537499,2.1571757793426514,-8.20492935180664,5.91128396987915,-23.6053466796875,-41.229248046875,-45.2880859375
1.0562498999999999,2.185906171798706,-8.214506149291992,5.899312973022461,-23.0712890625,-41.473388671875,-45.59326171875
1.0587499,2.2194249629974365,-8.226476669311523,5.8873419761657715,-22.6898193359375,-41.7327880859375,-45.8221435546875
1.0612499,2.252943754196167,-8.236053466796875,5.87776517868042,-22.2930908203125,-42.022705078125,-45.9442138671875
1.0637499,2.2816741466522217,-8.243236541748047,5.872976779937744,-21.7437744140625,-42.1905517578125,-46.356201171875
1.0662498999999999,2.298433542251587,-8.250418663024902,5.875370979309082,-21.3165283203125,-42.3126220703125,-46.7071533203125
1.0687499,2.315192937850952,-8.26239013671875,5.884947776794434,-20.843505859375,-42.5872802734375,-46.844482421875
1.0712499,2.319981336593628,-8.274360656738281,5.901707172393799,-20.538330078125,-42.7703857421875,-47.1038818359375
1.0737499,2.322375535964966,-8.288725852966309,5.920860767364502,-20.1873779296875,-43.0450439453125,-47.2869873046875
1.0762498999999999,2.3247697353363037,-8.300697326660156,5.937620162963867,-19.622802734375,-43.304443359375,-47.393798828125
1.0787499,2.3319525718688965,-8.303091049194336,5.947196960449219,-19.0582275390625,-43.2281494140625,-47.79052734375
1.0812499,2.341529369354248,-8.303091049194336,5.947196960449219,-18.829345703125,-43.3502197265625,-47.821044921875
1.0837499,2.363077163696289,-8.291120529174805,5.932831764221191,-18.4478759765625,-43.792724609375,-48.03466796875
1.0862498999999999,2.38462495803833,-8.274360656738281,5.913678169250488,-18.1121826171875,-43.76220703125,-48.2330322265625
1.0887499,2.408566951751709,-8.257601737976074,5.882553577423096,-17.8070068359375,-43.853759765625,-48.370361328125
1.0912499,2.434903144836426,-8.248024940490723,5.856217384338379,-17.2576904296875,-44.00634765625,-48.736572265625
1.0937499,2.4588451385498047,-8.250418663024902,5.832275390625,-16.54052734375,-44.281005859375,-48.797607421875
1.0962498999999999,2.4827871322631836,-8.257601737976074,5.817910194396973,-15.9149169921875,-44.6319580078125,-48.88916015625
1.0987498999999998,2.5043349266052246,-8.267178535461426,5.813121795654297,-15.625,-44.9981689453125,-49.1943359375
1.1012499,2.5234885215759277,-8.267178535461426,5.8203043937683105,-15.68603515625,-44.98291015625,-49.3621826171875
1.1037499,2.537853717803955,-8.26239013671875,5.837063789367676,-15.625,-45.196533203125,-49.560546875
1.1062499,2.5522189140319824,-8.257601737976074,5.861005783081055,-15.4876708984375,-45.440673828125,-49.8046875
1.1087498999999998,2.5713725090026855,-8.252813339233398,5.892130374908447,-14.984130859375,-45.623779296875,-49.957275390625
1.1112499,2.5977089405059814,-8.248024940490723,5.91128396987915,-14.7857666015625,-45.623779296875,-50.048828125
1.1137499,2.63362193107605,-8.248024940490723,5.920860767364502,-14.3280029296875,-45.806884765625,-50.1708984375
1.1162499,2.669534921646118,-8.248024940490723,5.91128396987915,-13.97705078125,-45.95947265625,-50.3082275390625
1.1187498999999999,2.7030537128448486,-8.255207061767578,5.8873419761657715,-13.397216796875,-46.2493896484375,-50.4608154296875
1.1212499,2.734178304672241,-8.26239013671875,5.856217384338379,-13.2904052734375,-46.5087890625,-50.628662109375
1.1237499,2.75812029838562,-8.274360656738281,5.829881191253662,-12.9852294921875,-46.6156005859375,-50.7354736328125
1.1262499,2.782062292098999,-8.288725852966309,5.810727596282959,-12.603759765625,-47.119140625,-50.9185791015625
1.1287498999999999,2.8107926845550537,-8.305485725402832,5.815515995025635,-12.4359130859375,-47.36328125,-50.994873046875
1.1312499,2.8347349166870117,-8.31985092163086,5.827486991882324,-12.1307373046875,-47.4090576171875,-50.811767578125
1.1337499,2.8562827110290527,-8.336610794067383,5.849034786224365,-11.77978515625,-47.8515625,-51.1474609375
1.1362499,2.87064790725708,-8.343792915344238,5.8657941818237305,-11.260986328125,-48.1414794921875,-50.96435546875
1.1387498999999999,2.8778305053710938,-8.355764389038086,5.870582580566406,-11.0015869140625,-48.492431640625,-50.994873046875
1.1412499,2.8850131034851074,-8.355764389038086,5.853823184967041,-10.80322265625,-48.9044189453125,-51.3458251953125
1.1437499,2.892195701599121,-8.358158111572266,5.822698593139648,-10.2691650390625,-49.224853515625,-51.055908203125
1.1462499,2.9041666984558105,-8.346187591552734,5.781997203826904,-9.9639892578125,-49.530029296875,-51.4068603515625
1.1487498999999999,2.9233202934265137,-8.327033042907715,5.736507415771484,-9.552001953125,-49.9420166015625,-51.5594482421875
1.1512499,2.942473888397217,-8.312667846679688,5.70777702331543,-9.27734375,-50.2166748046875,-51.7730712890625
1.1537499,2.9664158821105957,-8.29590892791748,5.686229228973389,-9.246826171875,-50.6134033203125,-52.032470703125
1.1562499,2.9927520751953125,-8.286332130432129,5.679046630859375,-8.8958740234375,-51.239013671875,-52.0172119140625
1.1587498999999999,3.0119056701660156,-8.279149055480957,5.671864032745361,-8.697509765625,-51.5594482421875,-52.24609375
1.1612498999999998,3.0334534645080566,-8.26478385925293,5.669469833374023,-8.1329345703125,-52.06298828125,-52.3223876953125
1.1637499,3.0406360626220703,-8.255207061767578,5.659893035888672,-8.056640625,-52.30712890625,-52.703857421875
1.1662499,3.043030261993408,-8.2312650680542,5.647922039031982,-8.056640625,-52.825927734375,-52.9327392578125
1.1687499,3.0382418632507324,-8.212111473083496,5.633556365966797,-7.9498291015625,-53.2379150390625,-53.1463623046875
1.1712498999999998,3.0382418632507324,-8.183381080627441,5.604825973510742,-7.7362060546875,-53.5888671875,-53.2379150390625
1.1737499,3.050212860107422,-8.149862289428711,5.5760955810546875,-7.537841796875,-53.9093017578125,-53.4820556640625
1.1762499,3.071760892868042,-8.121131896972656,5.540182590484619,-7.2784423828125,-54.26025390625,-53.7261962890625
1.1787499,3.1028854846954346,-8.087613105773926,5.509057998657227,-7.415771484375,-54.62646484375,-53.9093017578125
1.1812498999999999,3.134010076522827,-8.061277389526367,5.477933406829834,-7.4005126953125,-54.840087890625,-54.168701171875
1.1837499,3.1675288677215576,-8.032546997070312,5.449203014373779,-7.7667236328125,-55.084228515625,-54.351806640625
1.1862499,3.1938650608062744,-7.994239330291748,5.413290023803711,-8.0413818359375,-55.572509765625,-54.50439453125
1.1887499,3.224989652633667,-7.94635534286499,5.374982833862305,-8.148193359375,-55.6488037109375,-54.6417236328125
1.1912498999999999,3.2561142444610596,-7.8960771560668945,5.336675643920898,-8.30078125,-55.633544921875,-54.840087890625
1.1937499,3.2824504375457764,-7.845798969268799,5.303156852722168,-8.6669921875,-55.9844970703125,-54.931640625
1.1962499,3.3063924312591553,-7.805097579956055,5.284003257751465,-8.9874267578125,-56.121826171875,-55.3436279296875
1.1987499,3.3207578659057617,-7.769184589385986,5.276820659637451,-9.613037109375,-56.2286376953125,-55.0994873046875
1.2012498999999999,3.335123062133789,-7.733271598815918,5.2696380615234375,-10.040283203125,-56.2896728515625,-55.206298828125
1.2037499,3.3518824577331543,-7.69735860824585,5.25527286529541,-10.6658935546875,-56.3507080078125,-55.35888671875
1.2062499,3.3710360527038574,-7.644686222076416,5.231330871582031,-10.9100341796875,-56.4422607421875,-55.4656982421875
1.2087499,3.40216064453125,-7.594407558441162,5.200206279754639,-11.4288330078125,-56.365966796875,-55.6182861328125
1.2112498999999999,3.4356794357299805,-7.534552574157715,5.166687488555908,-11.8865966796875,-56.488037109375,-55.7098388671875
1.2137499,3.4811692237854004,-7.479485988616943,5.137956619262695,-12.51220703125,-56.3201904296875,-55.8319091796875
1.2162499,3.5218706130981445,-7.4316020011901855,5.1116204261779785,-13.12255859375,-56.0760498046875,-55.8929443359375
1.2187499,3.56017804145813,-7.383718013763428,5.080495834350586,-13.48876953125,-55.96923828125,-55.9234619140625
1.2212498999999999,3.5960910320281982,-7.343016624450684,5.0469770431518555,-14.0533447265625,-56.121826171875,-55.9234619140625
1.2237498999999998,3.6343982219696045,-7.3023152351379395,4.999093055725098,-14.58740234375,-55.938720703125,-56.182861328125
1.2262499,3.667917013168335,-7.264008045196533,4.95120906829834,-14.923095703125,-55.7708740234375,-56.0302734375
1.2287499,3.708618402481079,-7.230489253997803,4.891354084014893,-15.411376953125,-55.5572509765625,-55.7708740234375
1.2312499,3.7445313930511475,-7.189787864685059,4.841075897216797,-16.0064697265625,-55.1605224609375,-55.6793212890625
1.2337498999999998,3.77565598487854,-7.156269073486328,4.8051629066467285,-16.387939453125,-55.0689697265625,-55.6793212890625
1.2362499,3.804386615753174,-7.115567684173584,4.774038314819336,-16.8304443359375,-55.0994873046875,-55.389404296875
1.2387499,3.8307228088378906,-7.082048416137695,4.764461517333984,-17.3797607421875,-54.6875,-55.419921875
1.2412499,3.847482204437256,-7.048529624938965,4.759673118591309,-17.669677734375,-54.473876953125,-55.1300048828125
1.2437498999999999,3.8714241981506348,-7.0126166343688965,4.7620673179626465,-18.00537109375,-54.168701171875,-54.6417236328125
1.2462499,3.892971992492676,-6.983886241912842,4.757278919219971,-18.3563232421875,-54.01611328125,-54.2755126953125
1.2487499,3.909731388092041,-6.947973251342773,4.745307922363281,-18.585205078125,-53.497314453125,-54.0618896484375
1.2512499,3.9240965843200684,-6.909666061401367,4.733336925506592,-18.798828125,-53.03955078125,-53.6956787109375
1.2537498999999999,3.9408559799194336,-6.873753070831299,4.716577529907227,-19.012451171875,-52.8564453125,-53.4210205078125
1.2562499,3.955221176147461,-6.8378400802612305,4.699818134307861,-19.1650390625,-52.490234375,-52.947998046875
1.2587499,3.9695863723754883,-6.806715488433838,4.687847137451172,-19.195556640625,-52.2003173828125,-52.42919921875
1.2612499,3.976768970489502,-6.780379295349121,4.6734819412231445,-19.5159912109375,-51.8646240234375,-52.215576171875
1.2637498999999999,3.976768970489502,-6.75883150100708,4.659116744995117,-19.744873046875,-51.4373779296875,-51.8341064453125
1.2662499,3.9839515686035156,-6.734889507293701,4.639962673187256,-19.8516845703125,-51.0101318359375,-51.0406494140625
1.2687499,3.9863457679748535,-6.71334171295166,4.620809078216553,-19.9432373046875,-50.5218505859375,-50.4150390625
1.2712499,3.998316764831543,-6.687005519866943,4.592078685760498,-19.8822021484375,-50.10986328125,-50.0946044921875
1.2737498999999999,4.005499362945557,-6.660669326782227,4.553771495819092,-20.08056640625,-49.560546875,-49.6673583984375
1.2762499,4.017470359802246,-6.63433313369751,4.517858505249023,-20.2789306640625,-49.37744140625,-49.163818359375
1.2787499,4.02465295791626,-6.607996463775635,4.484339714050293,-20.233154296875,-48.7823486328125,-48.7060546875
1.2812499,4.031835556030273,-6.576871871948242,4.462791919708252,-20.5078125,-48.065185546875,-48.2025146484375
1.2837498999999999,4.046200752258301,-6.543353080749512,4.458003520965576,-20.9808349609375,-47.6531982421875,-47.607421875
1.2862498999999998,4.046200752258301,-6.512228488922119,4.462791919708252,-21.270751953125,-47.0733642578125,-47.2564697265625
1.2887499,4.055777549743652,-6.481103897094727,4.484339714050293,-20.6756591796875,-46.722412109375,-46.905517578125
1.2912499,4.067748546600342,-6.478709697723389,4.501099109649658,-19.7296142578125,-46.6461181640625,-46.630859375
1.2937499,4.084507942199707,-6.50025749206543,4.527435302734375,-18.85986328125,-46.0662841796875,-46.4630126953125
1.2962498999999998,4.10366153717041,-6.543353080749512,4.546588897705078,-18.61572265625,-45.135498046875,-46.32568359375
1.2987499,4.120420932769775,-6.593631267547607,4.55616569519043,-18.37158203125,-44.6319580078125,-45.684814453125
1.3012499,4.129997730255127,-6.629544734954834,4.546588897705078,-17.8985595703125,-44.158935546875,-44.830322265625
1.3037499,4.137180328369141,-6.643909931182861,4.517858505249023,-17.822265625,-43.8232421875,-44.403076171875
1.3062498999999999,4.153939723968506,-6.648698329925537,4.4723687171936035,-17.3797607421875,-43.2586669921875,-43.609619140625
1.3087499,4.182670593261719,-6.641515731811523,4.4292731285095215,-16.937255859375,-42.8619384765625,-43.0450439453125
1.3112499,4.216189384460449,-6.641515731811523,4.410119533538818,-16.5863037109375,-42.1905517578125,-42.7398681640625
1.3137499,4.2544965744018555,-6.648698329925537,4.41969633102417,-15.960693359375,-41.6717529296875,-42.266845703125
1.3162498999999999,4.278438568115234,-6.660669326782227,4.467580318450928,-15.2130126953125,-41.4581298828125,-41.9158935546875
1.3187499,4.2951979637146,-6.67982292175293,4.537012100219727,-14.434814453125,-41.19873046875,-41.2139892578125
1.3212499,4.2975921630859375,-6.698976516723633,4.608838081359863,-13.916015625,-40.9088134765625,-40.6036376953125
1.3237499,4.2951979637146,-6.718130111694336,4.6734819412231445,-12.8631591796875,-40.4815673828125,-40.1611328125
1.3262498999999999,4.285621166229248,-6.734889507293701,4.709394931793213,-11.871337890625,-40.10009765625,-39.7491455078125
1.3287499,4.288015365600586,-6.742072105407715,4.726154327392578,-11.016845703125,-39.55078125,-39.12353515625
1.3312499,4.2975921630859375,-6.7492547035217285,4.714183330535889,-10.1165771484375,-39.0777587890625,-38.6505126953125
1.3337499,4.326322555541992,-6.754043102264404,4.687847137451172,-8.9874267578125,-38.63525390625,-38.421630859375
1.3362498999999999,4.359841346740723,-6.756437301635742,4.654327869415283,-7.9193115234375,-38.543701171875,-37.8570556640625
1.3387499,4.400542736053467,-6.768408298492432,4.616020679473877,-7.171630859375,-38.2232666015625,-37.1856689453125
1.3412499,4.446032524108887,-6.780379295349121,4.58968448638916,-6.072998046875,-38.0096435546875,-36.651611328125
1.3437499,4.486733913421631,-6.794744491577148,4.568136692047119,-4.9896240234375,-37.4908447265625,-36.224365234375
1.3462498999999999,4.517858505249023,-6.806715488433838,4.563348293304443,-4.1656494140625,-37.353515625,-35.4766845703125
1.3487498999999998,4.529829502105713,-6.8162922859191895,4.568136692047119,-3.326416015625,-36.8499755859375,-35.1104736328125
1.3512499,4.520252704620361,-6.818686485290527,4.584896087646484,-2.4261474609375,-36.651611328125,-34.66796875
1.3537499,4.508281707763672,-6.809109687805176,4.613626480102539,-1.373291015625,-36.834716796875,-33.9813232421875
1.3562499,4.517858505249023,-6.794744491577148,4.637568473815918,-0.3814697265625,-36.8804931640625,-33.4625244140625
1.3587498999999998,4.551377296447754,-6.766014099121094,4.661510944366455,0.5340576171875,-36.43798828125,-32.989501953125
1.3612499,4.608838081359863,-6.739677906036377,4.6734819412231445,1.220703125,-35.9039306640625,-32.5927734375
1.3637499,4.668693542480469,-6.718130111694336,4.67827033996582,2.1820068359375,-35.5377197265625,-31.9976806640625
1.3662499,4.704606533050537,-6.710947513580322,4.697423934936523,3.0670166015625,-35.33935546875,-31.8145751953125
1.3687498999999999,4.716577529907227,-6.718130111694336,4.716577529907227,3.814697265625,-35.125732421875,-31.341552734375
1.3712499,4.714183330535889,-6.732495307922363,4.752490520477295,4.730224609375,-35.15625,-30.7769775390625
1.3737499,4.699818134307861,-6.7492547035217285,4.78122091293335,5.2490234375,-34.8663330078125,-30.4107666015625
1.3762499,4.702212333679199,-6.756437301635742,4.8051629066467285,5.67626953125,-34.423828125,-30.059814453125
1.3787498999999999,4.716577529907227,-6.756437301635742,4.81473970413208,6.256103515625,-34.027099609375,-29.5867919921875
1.3812499,4.7405195236206055,-6.756437301635742,4.807557106018066,7.049560546875,-33.8592529296875,-28.99169921875
1.3837499,4.76924991607666,-6.75883150100708,4.788403511047363,7.7056884765625,-33.6761474609375,-28.6407470703125
1.3862499,4.793191909790039,-6.766014099121094,4.754884719848633,8.2855224609375,-33.3099365234375,-28.289794921875
1.3887498999999999,4.809951305389404,-6.766014099121094,4.714183330535889,9.033203125,-33.3404541015625,-27.8778076171875
1.3912499,4.8267107009887695,-6.75883150100708,4.6734819412231445,9.521484375,-32.989501953125,-27.5726318359375
1.3937499,4.8482584953308105,-6.739677906036377,4.63517427444458,10.009765625,-32.8521728515625,-27.069091796875
1.3962499,4.884171485900879,-6.720524311065674,4.60165548324585,10.2386474609375,-33.0047607421875,-26.611328125
1.3987498999999999,4.929661273956299,-6.701370716094971,4.580107688903809,10.2386474609375,-32.6995849609375,-26.2908935546875
1.4012499,4.977545261383057,-6.689399719238281,4.5609540939331055,10.589599609375,-32.318115234375,-25.8636474609375
1.4037499,5.020640850067139,-6.682217121124268,4.546588897705078,10.833740234375,-32.4249267578125,-25.5126953125
1.4062499,5.054159641265869,-6.665457725524902,4.532223701477051,11.0626220703125,-32.40966796875,-25.4364013671875
1.4087498999999999,5.078101634979248,-6.648698329925537,4.51067590713501,11.444091796875,-32.135009765625,-25.0091552734375
1.4112498999999998,5.099649429321289,-6.615179061889648,4.489128112792969,11.41357421875,-32.196044921875,-24.627685546875
1.4137499,5.12119722366333,-6.57926607131958,4.458003520965576,11.383056640625,-32.196044921875,-24.200439453125
1.4162499,5.149928092956543,-6.543353080749512,4.426878929138184,11.4288330078125,-31.890869140625,-24.0020751953125
1.4187499,5.183446884155273,-6.509834289550781,4.402936935424805,11.6119384765625,-31.5704345703125,-23.6358642578125
1.4212498999999998,5.22175407409668,-6.490680694580078,4.381389141082764,11.4288330078125,-31.8145751953125,-23.2696533203125
1.4237499,5.25527286529541,-6.485892295837402,4.376600742340088,11.29150390625,-31.646728515625,-23.0865478515625
1.4262499,5.281609058380127,-6.48828649520874,4.3861775398254395,11.1541748046875,-31.646728515625,-22.613525390625
1.4287499,5.295974254608154,-6.50025749206543,4.405331134796143,10.92529296875,-31.6925048828125,-22.27783203125
1.4312498999999999,5.3127336502075195,-6.512228488922119,4.436455726623535,10.7421875,-31.4483642578125,-21.820068359375
1.4337499,5.329493045806885,-6.528987884521484,4.458003520965576,10.406494140625,-31.3720703125,-21.1639404296875
1.4362499,5.353435039520264,-6.5481414794921875,4.481945514678955,10.406494140625,-31.18896484375,-20.751953125
1.4387499,5.374982833862305,-6.576871871948242,4.491522312164307,10.25390625,-31.1431884765625,-20.3094482421875
1.4412498999999999,5.4013190269470215,-6.600813865661621,4.49870491027832,9.5672607421875,-31.0211181640625,-19.8516845703125
1.4437499,5.4228668212890625,-6.624756336212158,4.484339714050293,9.368896484375,-30.94482421875,-19.256591796875
1.4462499,5.4444146156311035,-6.631938934326172,4.458003520965576,9.1705322265625,-30.9295654296875,-18.61572265625
1.4487499,5.475539207458496,-6.63433313369751,4.417302131652832,8.148193359375,-30.70068359375,-17.913818359375
1.4512498999999999,5.509057998657227,-6.62236213684082,4.388571739196777,7.415771484375,-30.5328369140625,-17.5018310546875
1.4537499,5.559336185455322,-6.615179061889648,4.3622355461120605,6.8359375,-30.5328369140625,-17.120361328125
1.4562499,5.60722017288208,-6.603208065032959,4.357447147369385,5.9051513671875,-30.0750732421875,-16.41845703125
1.4587499,5.6455278396606445,-6.5912370681762695,4.355052947998047,5.5694580078125,-29.937744140625,-16.0675048828125
1.4612498999999999,5.6670756340026855,-6.572083473205566,4.359841346740723,5.3558349609375,-30.1361083984375,-15.411376953125
1.4637499,5.674258232116699,-6.536170482635498,4.369418144226074,5.1116943359375,-30.5328369140625,-14.8468017578125
1.4662499,5.688623428344727,-6.476315498352051,4.381389141082764,4.302978515625,-31.1737060546875,-14.007568359375
1.4687499,5.717353820800781,-6.414066314697266,4.383783340454102,2.8839111328125,-31.1737060546875,-13.7176513671875
1.4712498999999999,5.75326681137085,-6.358999729156494,4.3861775398254395,1.190185546875,-30.426025390625,-13.3514404296875
1.4737498999999998,5.781997203826904,-6.342240333557129,4.37420654296875,-0.3509521484375,-30.059814453125,-12.908935546875
1.4762499,5.784391403198242,-6.349422931671143,4.350264549255371,-1.4495849609375,-29.9224853515625,-12.5885009765625
1.4787499,5.765237808227539,-6.370970726013184,4.326322555541992,-2.685546875,-30.09033203125,-12.14599609375
1.4812499,5.7341132164001465,-6.382941722869873,4.290409564971924,-3.3416748046875,-30.303955078125,-11.5814208984375
1.4837498999999998,5.719748020172119,-6.378153324127197,4.242525577545166,-3.5247802734375,-30.487060546875,-11.0626220703125
1.4862499,5.7341132164001465,-6.36378812789917,4.1874589920043945,-3.7384033203125,-30.82275390625,-10.650634765625
1.4887499,5.781997203826904,-6.354211330413818,4.132391929626465,-4.486083984375,-31.18896484375,-10.2081298828125
1.4912499,5.858611583709717,-6.36378812789917,4.084507942199707,-5.6610107421875,-31.7535400390625,-9.9639892578125
1.4937498999999999,5.942408561706543,-6.3973069190979,4.060565948486328,-7.5225830078125,-31.2957763671875,-9.2315673828125
1.4962499,6.01423454284668,-6.45476770401001,4.05817174911499,-9.5977783203125,-30.6243896484375,-8.48388671875
1.4987499,6.050147533416748,-6.528987884521484,4.0749311447143555,-11.322021484375,-30.2581787109375,-8.148193359375
1.5012499,6.0621185302734375,-6.596025466918945,4.0964789390563965,-12.51220703125,-30.120849609375,-7.3394775390625
1.5037498999999999,6.0405707359313965,-6.660669326782227,4.108449935913086,-13.5040283203125,-30.303955078125,-7.0953369140625
1.5062499,6.0190229415893555,-6.689399719238281,4.10366153717041,-14.09912109375,-30.303955078125,-6.591796875
1.5087499,6.01423454284668,-6.677428722381592,4.082113742828369,-14.7247314453125,-30.4718017578125,-6.4849853515625
1.5112499,6.009446144104004,-6.624756336212158,4.041412353515625,-15.0909423828125,-30.426025390625,-6.4849853515625
1.5137498999999999,5.995080947875977,-6.550535678863525,4.01268196105957,-15.3656005859375,-29.8309326171875,-5.889892578125
1.5162499,5.966350555419922,-6.48828649520874,4.0078935623168945,-15.31982421875,-30.1666259765625,-5.55419921875
1.5187499,5.918466567993164,-6.471527099609375,4.031835556030273,-14.190673828125,-31.341552734375,-5.096435546875
1.5212499,5.901707172393799,-6.50025749206543,4.065354347229004,-13.214111328125,-32.1502685546875,-4.974365234375
1.5237498999999999,5.932831764221191,-6.552929878234863,4.079719543457031,-12.4359130859375,-32.16552734375,-4.6844482421875
1.5262499,6.01423454284668,-6.598419666290283,4.072536945343018,-11.8255615234375,-32.8521728515625,-4.1961669921875
1.5287499,6.129156112670898,-6.62236213684082,4.0294413566589355,-11.627197265625,-32.745361328125,-3.997802734375
1.5312499,6.229712963104248,-6.62236213684082,3.995922565460205,-11.993408203125,-32.77587890625,-3.90625
1.5337498999999999,6.299144744873047,-6.629544734954834,3.952826976776123,-12.054443359375,-32.77587890625,-3.2958984375
1.5362499,6.3302693367004395,-6.66785192489624,3.9408559799194336,-11.8865966796875,-32.8216552734375,-2.2735595703125
1.5387499,6.344634532928467,-6.766014099121094,3.952826976776123,-11.23046875,-33.38623046875,-1.4495849609375
1.5412499,6.3518171310424805,-6.89530086517334,3.9695863723754883,-10.68115234375,-33.9813232421875,-1.0986328125
1.5437499,6.378153324127197,-7.024587631225586,3.9863457679748535,-10.2996826171875,-34.271240234375,-0.9765625
1.5462498999999998,6.406883716583252,-7.0988078117370605,3.974374771118164,-10.3607177734375,-33.9508056640625,-0.8697509765625
1.5487499,6.428431510925293,-7.101202011108398,3.9384617805480957,-10.711669921875,-33.050537109375,-0.8544921875
1.5512499,6.423643112182617,-7.041347026824951,3.8953661918640137,-10.498046875,-32.6385498046875,-0.274658203125
1.5537499,6.385335922241211,-6.952761650085449,3.8762125968933105,-10.2386474609375,-32.71484375,-0.030517578125
1.5562498999999999,6.323086738586426,-6.873753070831299,3.8738183975219727,-9.4451904296875,-33.1268310546875,0.06103515625
1.5587499,6.248866558074951,-6.821080684661865,3.8786067962646484,-8.8043212890625,-32.8369140625,-0.0152587890625
1.5612499,6.203376770019531,-6.797138690948486,3.88818359375,-8.6669921875,-32.501220703125,-0.213623046875
1.5637499,6.172252178192139,-6.797138690948486,3.869029998779297,-7.9498291015625,-32.5775146484375,-0.3662109375
1.5662498999999999,6.1530985832214355,-6.821080684661865,3.8091750144958496,-6.89697265625,-32.3028564453125,-1.0528564453125
1.5687499,6.143521785736084,-6.866570472717285,3.773261785507202,-6.4239501953125,-31.4788818359375,-1.8768310546875
1.5712499,6.145915985107422,-6.8809356689453125,3.754108190536499,-5.5694580078125,-32.2265625,-2.227783203125
1.5737499,6.155492782592773,-6.88332986831665,3.7229835987091064,-3.7994384765625,-33.9202880859375,-2.5482177734375
1.5762498999999999,6.210559368133545,-6.866570472717285,3.7158010005950928,-2.5482177734375,-33.416748046875,-3.0670166015625
1.5787499,6.299144744873047,-6.856993675231934,3.6774938106536865,-1.6632080078125,-32.7606201171875,-2.9754638671875
1.5812499,6.414066314697266,-6.900089263916016,3.5936968326568604,-0.2593994140625,-33.0352783203125,-3.0670166015625
1.5837499,6.536170482635498,-6.976703643798828,3.49314022064209,0.732421875,-32.8369140625,-3.7994384765625
1.5862498999999999,6.6391215324401855,-7.0772600173950195,3.383007049560547,0.762939453125,-31.5399169921875,-4.5623779296875
1.5887499,6.687005519866943,-7.187393665313721,3.2800562381744385,1.0833740234375,-31.2347412109375,-4.364013671875
1.5912499,6.682217121124268,-7.292738437652588,3.2369606494903564,3.4942626953125,-31.3873291015625,-3.4332275390625
1.5937499,6.655880928039551,-7.400477409362793,3.2561142444610596,6.4239501953125,-32.2265625,-2.838134765625
1.5962498999999999,6.6391215324401855,-7.496245384216309,3.315969467163086,9.1400146484375,-32.6385498046875,-2.655029296875
1.5987499,6.651092529296875,-7.556100368499756,3.361459255218506,11.1541748046875,-31.8145751953125,-2.6702880859375
1.6012499,6.672640323638916,-7.575253963470459,3.354276657104492,12.2833251953125,-30.94482421875,-2.6702880859375
1.6037499,6.665457725524902,-7.539340972900391,3.3039982318878174,12.420654296875,-30.09033203125,-2.44140625
1.6062499,6.624756336212158,-7.47230339050293,3.246537446975708,12.6800537109375,-29.47998046875,-1.8463134765625
1.6087498999999998,6.562506675720215,-7.4100542068481445,3.2130186557769775,13.4124755859375,-29.9072265625,-1.220703125
1.6112499,6.519411087036133,-7.359776020050049,3.222595453262329,14.6942138671875,-29.9072265625,-0.5340576171875
1.6137499,6.507440090179443,-7.328651428222656,3.24414324760437,15.9759521484375,-29.35791015625,-0.5035400390625
1.6162499,6.528987884521484,-7.295132637023926,3.2609026432037354,16.8304443359375,-28.6712646484375,-0.5645751953125
1.6187498999999999,6.560112476348877,-7.242460250854492,3.2561142444610596,17.2271728515625,-27.9388427734375,-0.7171630859375
1.6212499,6.586448669433594,-7.168240070343018,3.224989652633667,17.2119140625,-27.5421142578125,-0.8544921875
1.6237499,6.600813865661621,-7.0772600173950195,3.19865345954895,17.181396484375,-27.2979736328125,-0.9002685546875
1.6262499,6.615179061889648,-6.97430944442749,3.1723172664642334,17.1966552734375,-26.9927978515625,-1.0833740234375
1.6287498999999999,6.627150535583496,-6.873753070831299,3.162740468978882,17.2271728515625,-26.6265869140625,-1.40380859375
1.6312499,6.646304130554199,-6.782773494720459,3.1531636714935303,16.815185546875,-25.81787109375,-1.8310546875
1.6337499,6.655880928039551,-6.703764915466309,3.141192674636841,16.510009765625,-25.3753662109375,-2.5177001953125
1.6362499,6.660669326782227,-6.643909931182861,3.117250680923462,15.93017578125,-25.1312255859375,-3.0059814453125
1.6387498999999999,6.651092529296875,-6.603208065032959,3.0837318897247314,15.3961181640625,-24.871826171875,-3.4637451171875
1.6412499,6.641515731811523,-6.572083473205566,3.047818660736084,14.8468017578125,-24.35302734375,-4.1046142578125
1.6437499,6.624756336212158,-6.5481414794921875,3.004723072052002,14.2669677734375,-23.86474609375,-4.913330078125
1.6462499,6.610390663146973,-6.514622688293457,2.983175277709961,13.1988525390625,-23.6053466796875,-5.6610107421875
1.6487498999999999,6.596025466918945,-6.476315498352051,2.9735984802246094,11.7034912109375,-23.284912109375,-6.2103271484375
1.6512499,6.593631267547607,-6.433219909667969,2.985569477081299,10.4217529296875,-22.6898193359375,-6.40869140625
1.6537499,6.593631267547607,-6.3949127197265625,3.00711727142334,9.0789794921875,-22.2930908203125,-7.1868896484375
1.6562499,6.603208065032959,-6.375759124755859,3.0334534645080566,7.965087890625,-21.6827392578125,-7.8582763671875
1.6587498999999999,6.610390663146973,-6.370970726013184,3.0406360626220703,6.7291259765625,-20.904541015625,-8.270263671875
1.6612499,6.605602264404297,-6.382941722869873,3.0310592651367188,5.6915283203125,-20.3399658203125,-8.7432861328125
1.6637499,6.5912370681762695,-6.40927791595459,3.002328872680664,4.791259765625,-20.0042724609375,-9.185791015625
1.6662499,6.562506675720215,-6.440402507781982,2.96162748336792,3.8299560546875,-19.4244384765625,-9.58251953125
1.6687499,6.53377628326416,-6.469132900238037,2.9161376953125,2.3345947265625,-18.9666748046875,-9.8724365234375
1.6712498999999998,6.509834289550781,-6.481103897094727,2.8778305053710938,1.312255859375,-18.6309814453125,-10.009765625
1.6737499,6.50025749206543,-6.478709697723389,2.8443117141723633,-0.0457763671875,-18.157958984375,-10.162353515625
1.6762499,6.50025749206543,-6.464344501495361,2.82515811920166,-1.2664794921875,-17.5628662109375,-10.68115234375
1.6787499,6.507440090179443,-6.45476770401001,2.8155810832977295,-2.5634765625,-17.059326171875,-11.016845703125
1.6812498999999999,6.507440090179443,-6.447585105895996,2.8395233154296875,-3.35693359375,-16.8304443359375,-11.2152099609375
1.6837499,6.497863292694092,-6.452373504638672,2.8850131034851074,-4.2572021484375,-16.448974609375,-11.444091796875
1.6862499,6.4834980964660645,-6.469132900238037,2.9448680877685547,-5.096435546875,-16.082763671875,-11.7645263671875
1.6887499,6.461950302124023,-6.485892295837402,2.9975404739379883,-5.279541015625,-15.7928466796875,-12.054443359375
1.6912498999999999,6.445190906524658,-6.507440090179443,3.0382418632507324,-5.6915283203125,-15.045166015625,-12.2222900390625
1.6937499,6.426037311553955,-6.53377628326416,3.0573954582214355,-6.28662109375,-14.3890380859375,-12.39013671875
1.6962499,6.4164605140686035,-6.557718276977539,3.0621838569641113,-6.6070556640625,-14.0533447265625,-12.481689453125
1.6987499,6.406883716583252,-6.600813865661621,3.0550012588500977,-6.500244140625,-13.73291015625,-12.6800537109375
1.7012498999999999,6.3949127197265625,-6.658275127410889,3.043030261993408,-6.439208984375,-13.214111328125,-12.9241943359375
1.7037499,6.380547523498535,-6.730101108551025,3.0310592651367188,-6.5460205078125,-12.6800537109375,-12.7410888671875
1.7062499,6.356605529785156,-6.806715488433838,3.021482467651367,-6.4544677734375,-12.4969482421875,-12.481689453125
1.7087499,6.332663536071777,-6.878541469573975,3.0190882682800293,-6.34765625,-12.054443359375,-12.63427734375
1.7112498999999999,6.311115741729736,-6.933608055114746,3.023876667022705,-6.2103271484375,-11.7950439453125,-12.359619140625
1.7137499,6.303933143615723,-6.97430944442749,3.0334534645080566,-5.8746337890625,-11.3525390625,-12.176513671875
1.7162499,6.303933143615723,-7.003039836883545,3.045424461364746,-5.5999755859375,-10.833740234375,-11.9781494140625
1.7187499,6.315904140472412,-7.01979923248291,3.0621838569641113,-5.340576171875,-10.2691650390625,-11.7950439453125
1.7212498999999999,6.335057735443115,-7.036558628082275,3.0837318897247314,-4.8675537109375,-10.009765625,-11.3983154296875
1.7237499,6.356605529785156,-7.046135425567627,3.1052796840667725,-4.57763671875,-9.7503662109375,-11.260986328125
1.7262499,6.375759124755859,-7.060500621795654,3.1316158771514893,-4.08935546875,-9.3994140625,-10.8642578125
1.7287499,6.385335922241211,-7.074865818023682,3.1531636714935303,-3.9520263671875,-8.819580078125,-10.31494140625
1.7312499,6.390124320983887,-7.094019412994385,3.1747114658355713,-3.7078857421875,-8.4075927734375,-10.0250244140625
1.7337498999999998,6.382941722869873,-7.110779285430908,3.1914708614349365,-3.47900390625,-7.99560546875,-9.613037109375
1.7362499,6.347028732299805,-7.168240070343018,3.19865345954895,-2.471923828125,-7.26318359375,-8.6212158203125
1.7387499,6.347028732299805,-7.168240070343018,3.19865345954895,-2.471923828125,-7.26318359375,-8.6212158203125
1.7412499,6.260837554931641,-7.2352776527404785,3.1890766620635986,-1.5716552734375,-6.591796875,-7.8277587890625
1.7437498999999999,6.260837554931641,-7.2352776527404785,3.1890766620635986,-1.5716552734375,-6.591796875,-7.8277587890625
1.7462499,6.167463779449463,-7.24485445022583,3.184288263320923,-0.8392333984375,-6.0577392578125,-7.2784423828125
1.7487499,6.167463779449463,-7.24485445022583,3.184288263320923,-0.8392333984375,-6.0577392578125,-7.2784423828125
1.7512499,6.138733386993408,-7.182605266571045,3.141192674636841,-0.30517578125,-5.157470703125,-6.8359375
1.7537498999999999,6.138733386993408,-7.182605266571045,3.141192674636841,-0.30517578125,-5.157470703125,-6.8359375
1.7562499,6.133944988250732,-7.113173484802246,3.0550012588500977,0.518798828125,-4.486083984375,-6.1492919921875
1.7587499,6.133944988250732,-7.113173484802246,3.0550012588500977,0.518798828125,-4.486083984375,-6.1492919921875
1.7612499,6.088454723358154,-7.086836814880371,2.985569477081299,0.1678466796875,-4.2266845703125,-5.7220458984375
1.7637498999999999,6.088454723358154,-7.086836814880371,2.985569477081299,0.1678466796875,-4.2266845703125,-5.7220458984375
1.7662499,6.016628742218018,-7.089231014251709,2.9664158821105957,-0.0152587890625,-3.84521484375,-5.3863525390625
1.7687499,6.016628742218018,-7.089231014251709,2.9664158821105957,-0.0152587890625,-3.84521484375,-5.3863525390625
1.7712499,5.9519853591918945,-7.105990409851074,3.002328872680664,-0.0762939453125,-3.936767578125,-5.0811767578125
1.7737498999999999,5.9519853591918945,-7.105990409851074,3.002328872680664,-0.0762939453125,-3.936767578125,-5.0811767578125
1.7762499,5.889736175537109,-7.132327079772949,3.0406360626220703,-0.457763671875,-3.5400390625,-5.2490234375
1.7787499,5.889736175537109,-7.132327079772949,3.0406360626220703,-0.457763671875,-3.5400390625,-5.2490234375
1.7812499,5.817910194396973,-7.134721279144287,3.0334534645080566,-0.885009765625,-3.2196044921875,-5.157470703125
1.7837498999999999,5.817910194396973,-7.134721279144287,3.0334534645080566,-0.885009765625,-3.2196044921875,-5.157470703125
1.7862499,5.750872611999512,-7.113173484802246,3.004723072052002,-1.77001953125,-3.387451171875,-5.43212890625
1.7887499,5.750872611999512,-7.113173484802246,3.004723072052002,-1.77001953125,-3.387451171875,-5.43212890625
1.7912499,5.702988624572754,-7.091625213623047,2.9759926795959473,-2.2430419921875,-3.0975341796875,-5.462646484375
1.7937499,5.702988624572754,-7.091625213623047,2.9759926795959473,-2.2430419921875,-3.0975341796875,-5.462646484375
1.7962498999999998,5.679046630859375,-7.082048416137695,2.942473888397217,-3.1890869140625,-3.41796875,-5.767822265625
1.7987499,5.679046630859375,-7.082048416137695,2.942473888397217,-3.1890869140625,-3.41796875,-5.767822265625
1.8012499,5.69580602645874,-7.067683219909668,2.8874073028564453,-4.547119140625,-3.60107421875,-6.53076171875
1.8037499,5.69580602645874,-7.067683219909668,2.8874073028564453,-4.547119140625,-3.60107421875,-6.53076171875
1.8062498999999999,5.724536418914795,-7.041347026824951,2.8107926845550537,-5.67626953125,-3.4942626953125,-6.927490234375
1.8087499,5.724536418914795,-7.041347026824951,2.8107926845550537,-5.67626953125,-3.4942626953125,-6.927490234375
1.8112499,5.717353820800781,-7.038952827453613,2.782062292098999,-7.110595703125,-3.7384033203125,-7.62939453125
1.8137499,5.717353820800781,-7.038952827453613,2.782062292098999,-7.110595703125,-3.7384033203125,-7.62939453125
1.8162498999999999,5.6910176277160645,-7.070077419281006,2.8634653091430664,-8.60595703125,-4.119873046875,-8.056640625
1.8187499,5.6910176277160645,-7.070077419281006,2.8634653091430664,-8.60595703125,-4.119873046875,-8.056640625
1.8212499,5.657498836517334,-7.12035608291626,2.9879636764526367,-10.1318359375,-4.241943359375,-9.033203125
1.8237499,5.657498836517334,-7.12035608291626,2.9879636764526367,-10.1318359375,-4.241943359375,-9.033203125
1.8262498999999999,5.628767967224121,-7.163451671600342,3.0406360626220703,-11.199951171875,-4.486083984375,-9.8419189453125
1.8287499,5.628767967224121,-7.163451671600342,3.0406360626220703,-11.199951171875,-4.486083984375,-9.8419189453125
1.8312499,5.628767967224121,-7.19936466217041,3.0142998695373535,-12.847900390625,-4.5318603515625,-10.711669921875
1.8337499,5.628767967224121,-7.19936466217041,3.0142998695373535,-12.847900390625,-4.5318603515625,-10.711669921875
1.8362498999999999,5.652710437774658,-7.228095054626465,2.9735984802246094,-14.312744140625,-4.6234130859375,-11.688232421875
1.8387499,5.652710437774658,-7.228095054626465,2.9735984802246094,-14.312744140625,-4.6234130859375,-11.688232421875
1.8412499,5.676652431488037,-7.249642848968506,2.937685489654541,-15.68603515625,-4.8065185546875,-12.63427734375
1.8437499,5.676652431488037,-7.249642848968506,2.937685489654541,-15.68603515625,-4.8065185546875,-12.63427734375
1.8462498999999999,5.679046630859375,-7.264008045196533,2.8850131034851074,-17.0745849609375,-4.94384765625,-13.427734375
1.8487499,5.679046630859375,-7.264008045196533,2.8850131034851074,-17.0745849609375,-4.94384765625,-13.427734375
1.8512499,5.676652431488037,-7.266402244567871,2.784456491470337,-18.24951171875,-5.2032470703125,-14.556884765625
1.8537499,5.676652431488037,-7.266402244567871,2.784456491470337,-18.24951171875,-5.2032470703125,-14.556884765625
1.8562499,5.664681434631348,-7.275979042053223,2.6815059185028076,-19.5770263671875,-5.3863525390625,-15.2587890625
1.8587498999999998,5.664681434631348,-7.275979042053223,2.6815059185028076,-19.5770263671875,-5.3863525390625,-15.2587890625
1.8612499,5.638344764709473,-7.283161640167236,2.6408045291900635,-20.660400390625,-5.7525634765625,-16.1590576171875
1.8637499,5.638344764709473,-7.283161640167236,2.6408045291900635,-20.660400390625,-5.7525634765625,-16.1590576171875
1.8662499,5.621585369110107,-7.29034423828125,2.652775526046753,-21.8048095703125,-6.2713623046875,-16.815185546875
1.8687498999999999,5.621585369110107,-7.29034423828125,2.652775526046753,-21.8048095703125,-6.2713623046875,-16.815185546875
1.8712499,5.621585369110107,-7.309497833251953,2.674323320388794,-22.4761962890625,-6.561279296875,-17.6239013671875
1.8737499,5.621585369110107,-7.309497833251953,2.674323320388794,-22.4761962890625,-6.561279296875,-17.6239013671875
1.8762499,5.635950565338135,-7.33583402633667,2.6671407222747803,-23.4222412109375,-6.744384765625,-18.341064453125
1.8787498999999999,5.635950565338135,-7.33583402633667,2.6671407222747803,-23.4222412109375,-6.744384765625,-18.341064453125
1.8812499,5.647922039031982,-7.378929615020752,2.6360161304473877,-23.956298828125,-6.8511962890625,-19.1192626953125
1.8837499,5.647922039031982,-7.378929615020752,2.6360161304473877,-23.956298828125,-6.8511962890625,-19.1192626953125
1.8862499,5.643133640289307,-7.42681360244751,2.6192567348480225,-24.7802734375,-6.9122314453125,-19.7601318359375
1.8887498999999999,5.643133640289307,-7.42681360244751,2.6192567348480225,-24.7802734375,-6.9122314453125,-19.7601318359375
1.8912499,5.628767967224121,-7.4770917892456055,2.63362193107605,-24.9786376953125,-7.1258544921875,-20.1873779296875
1.8937499,5.628767967224121,-7.4770917892456055,2.63362193107605,-24.9786376953125,-7.1258544921875,-20.1873779296875
1.8962499,5.60722017288208,-7.527369976043701,2.650381326675415,-25.1007080078125,-7.32421875,-20.538330078125
1.8987498999999999,5.60722017288208,-7.527369976043701,2.650381326675415,-25.1007080078125,-7.32421875,-20.538330078125
1.9012499,5.595249176025391,-7.553706169128418,2.6455929279327393,-25.054931640625,-7.4005126953125,-20.9808349609375
1.9037499,5.595249176025391,-7.553706169128418,2.6455929279327393,-25.054931640625,-7.4005126953125,-20.9808349609375
1.9062499,5.600037574768066,-7.558494567871094,2.628833532333374,-24.71923828125,-7.75146484375,-21.6217041015625
1.9087498999999999,5.600037574768066,-7.558494567871094,2.628833532333374,-24.71923828125,-7.75146484375,-21.6217041015625
1.9112499,5.614402770996094,-7.560888767242432,2.631227731704712,-24.2919921875,-7.75146484375,-21.942138671875
1.9137499,5.616796970367432,-7.570465564727783,2.6360161304473877,-24.0020751953125,-8.209228515625,-21.9268798828125
1.9162499,5.623979568481445,-7.5848307609558105,2.6408045291900635,-23.8037109375,-7.9498291015625,-22.1710205078125
1.9187499,5.631162166595459,-7.608773231506348,2.6455929279327393,-23.5595703125,-8.1024169921875,-22.3541259765625
1.9212498999999998,5.6455278396606445,-7.632715225219727,2.6408045291900635,-23.25439453125,-8.331298828125,-22.552490234375
1.9237499,5.664681434631348,-7.65186882019043,2.628833532333374,-22.9949951171875,-8.6822509765625,-22.6593017578125
1.9262499,5.688623428344727,-7.6566572189331055,2.6001031398773193,-22.7508544921875,-8.8348388671875,-22.76611328125
1.9287499,5.70777702331543,-7.6566572189331055,2.557007312774658,-22.430419921875,-8.7738037109375,-23.162841796875
1.9312498999999999,5.724536418914795,-7.644686222076416,2.5043349266052246,-22.125244140625,-8.7890625,-23.2086181640625
1.9337499,5.736507415771484,-7.627926826477051,2.454056739807129,-21.6217041015625,-9.0179443359375,-23.345947265625
1.9362499,5.7556610107421875,-7.603984832763672,2.4133553504943848,-21.2554931640625,-9.063720703125,-23.5748291015625
1.9387499,5.772420406341553,-7.582436561584473,2.3918075561523438,-20.9808349609375,-9.2315673828125,-23.6968994140625
1.9412498999999999,5.7987565994262695,-7.5632829666137695,2.3750481605529785,-20.5230712890625,-9.246826171875,-23.4375
1.9437499,5.825092792510986,-7.553706169128418,2.38462495803833,-19.9737548828125,-9.5672607421875,-23.62060546875
1.9462499,5.849034786224365,-7.556100368499756,2.389413356781006,-19.59228515625,-10.1470947265625,-23.7274169921875
1.9487499,5.868188381195068,-7.560888767242432,2.408566951751709,-19.10400390625,-10.19287109375,-23.6663818359375
1.9512498999999999,5.889736175537109,-7.570465564727783,2.4229321479797363,-18.7530517578125,-10.3912353515625,-23.4222412109375
1.9537499,5.904101371765137,-7.577648162841797,2.434903144836426,-18.402099609375,-10.2691650390625,-23.4375
1.9562499,5.91128396987915,-7.5848307609558105,2.4468741416931152,-18.1732177734375,-10.1318359375,-23.4222412109375
1.9587499,5.913678169250488,-7.589619159698486,2.454056739807129,-18.096923828125,-10.25390625,-23.406982421875
1.9612498999999999,5.920860767364502,-7.589619159698486,2.454056739807129,-17.7001953125,-10.55908203125,-23.0865478515625
1.9637499,5.925649166107178,-7.5848307609558105,2.449268341064453,-17.5628662109375,-10.68115234375,-22.979736328125
1.9662499,5.947196960449219,-7.580042362213135,2.434903144836426,-17.2271728515625,-10.5133056640625,-22.9034423828125
1.9687499,5.9735331535339355,-7.577648162841797,2.4181437492370605,-17.059326171875,-10.68115234375,-22.7508544921875
1.9712498999999999,6.011840343475342,-7.575253963470459,2.3942017555236816,-16.54052734375,-10.955810546875,-22.8271484375
1.9737499,6.052541732788086,-7.575253963470459,2.365471363067627,-16.1590576171875,-10.9100341796875,-22.4761962890625
1.9762499,6.088454723358154,-7.575253963470459,2.3319525718688965,-15.960693359375,-11.016845703125,-22.5830078125
1.9787499,6.124367713928223,-7.570465564727783,2.2912509441375732,-15.5487060546875,-11.3677978515625,-22.735595703125
1.9812499,6.138733386993408,-7.570465564727783,2.250549554824829,-15.07568359375,-11.444091796875,-22.216796875
1.9837499,6.14831018447876,-7.5632829666137695,2.207453966140747,-14.4805908203125,-11.8408203125,-22.0794677734375
1.9862499,6.1530985832214355,-7.558494567871094,2.1763293743133545,-13.916015625,-12.1612548828125,-22.0794677734375
1.9887499,6.160281181335449,-7.55131196975708,2.145204782485962,-13.48876953125,-12.420654296875,-21.8505859375
1.9912499,6.169857978820801,-7.546523571014404,2.123656988143921,-12.9547119140625,-12.451171875,-21.9268798828125
1.9937498999999999,6.179434776306152,-7.544129371643066,2.10210919380188,-12.3748779296875,-12.9241943359375,-21.759033203125
1.9962499,6.184223175048828,-7.55131196975708,2.0925323963165283,-11.5814208984375,-13.214111328125,-21.3165283203125
1.9987499,6.196194171905518,-7.55131196975708,2.0829553604125977,-11.1236572265625,-13.3819580078125,-21.05712890625
2.0012499,6.200982570648193,-7.546523571014404,2.075772762298584,-10.2691650390625,-13.6566162109375,-20.9503173828125
2.0037499,6.210559368133545,-7.544129371643066,2.0638017654418945,-9.429931640625,-13.9007568359375,-20.721435546875
2.0062499,6.2201361656188965,-7.5417351722717285,2.049436569213867,-8.7738037109375,-14.4195556640625,-20.5078125
2.0087498999999998,6.222530364990234,-7.544129371643066,2.0183119773864746,-8.209228515625,-14.9383544921875,-20.355224609375
2.0112499,6.229712963104248,-7.5417351722717285,1.9823989868164062,-7.5531005859375,-15.1824951171875,-19.8974609375
2.0137499,6.251260757446289,-7.539340972900391,1.941697597503662,-6.7596435546875,-15.472412109375,-19.5159912109375
2.0162499,6.277596950531006,-7.51779317855835,1.900996208190918,-5.9967041015625,-15.9149169921875,-19.1802978515625
2.0187499,6.315904140472412,-7.489062786102295,1.8602946996688843,-5.2490234375,-16.2811279296875,-18.890380859375
2.0212499,6.3518171310424805,-7.4555439949035645,1.8171991109848022,-4.638671875,-16.54052734375,-18.5699462890625
2.0237499,6.385335922241211,-7.419631004333496,1.778891921043396,-4.058837890625,-16.6015625,-18.12744140625
2.0262499,6.411672115325928,-7.3885064125061035,1.7405846118927002,-3.631591796875,-16.937255859375,-17.822265625
2.0287498999999998,6.4380083084106445,-7.354987621307373,1.7118542194366455,-3.173828125,-17.3187255859375,-17.5018310546875
2.0312499,6.461950302124023,-7.316680431365967,1.6950948238372803,-2.5634765625,-17.822265625,-17.15087890625
2.0337499,6.495469093322754,-7.275979042053223,1.6855180263519287,-1.953125,-18.1732177734375,-16.754150390625
2.0362499,6.531382083892822,-7.2352776527404785,1.680729627609253,-1.6937255859375,-18.24951171875,-16.5252685546875
2.0387499,6.560112476348877,-7.204153060913086,1.6879122257232666,-1.2969970703125,-18.463134765625,-16.357421875
2.0412499,6.584054470062256,-7.180211067199707,1.6974890232086182,-0.946044921875,-18.4478759765625,-16.2506103515625
2.0437499,6.588842868804932,-7.163451671600342,1.7094600200653076,-0.6103515625,-19.195556640625,-15.9912109375
2.0462499,6.596025466918945,-7.144298076629639,1.7190368175506592,-0.3814697265625,-19.6990966796875,-16.021728515625
2.0487499,6.610390663146973,-7.115567684173584,1.7118542194366455,0.06103515625,-19.8974609375,-15.8538818359375
2.0512498999999997,6.636727333068848,-7.082048416137695,1.6903064250946045,0.3204345703125,-19.805908203125,-15.9454345703125
2.0537499,6.67982292175293,-7.043741226196289,1.6496049165725708,0.79345703125,-20.263671875,-15.8233642578125
2.0562499,6.720524311065674,-7.005434036254883,1.5897499322891235,0.91552734375,-20.599365234375,-15.838623046875
2.0587499,6.761225700378418,-6.971915245056152,1.5322890281677246,0.8697509765625,-20.8282470703125,-15.899658203125
2.0612499,6.794744491577148,-6.9455790519714355,1.4748282432556152,0.8392333984375,-21.1181640625,-16.0675048828125
2.0637499,6.825869083404541,-6.92881965637207,1.4437036514282227,0.9307861328125,-21.4691162109375,-16.05224609375
2.0662499,6.854599475860596,-6.914454460144043,1.4245500564575195,1.0223388671875,-21.8048095703125,-15.7928466796875
2.0687499,6.88332986831665,-6.907271862030029,1.4317326545715332,1.0528564453125,-22.3236083984375,-15.777587890625
2.0712498999999998,6.907271862030029,-6.897695064544678,1.4437036514282227,1.373291015625,-22.6593017578125,-15.716552734375
2.0737499,6.92881965637207,-6.888118267059326,1.4508862495422363,1.3885498046875,-22.7203369140625,-15.7928466796875
2.0762499,6.9455790519714355,-6.876147270202637,1.4508862495422363,1.2969970703125,-22.613525390625,-15.8843994140625
2.0787499,6.959944248199463,-6.8593878746032715,1.4413094520568848,1.2359619140625,-23.0560302734375,-15.9149169921875
2.0812499,6.97430944442749,-6.8378400802612305,1.4269442558288574,1.068115234375,-23.4527587890625,-16.0369873046875
2.0837499,6.998251438140869,-6.806715488433838,1.41257905960083,0.9765625,-23.6053466796875,-16.2811279296875
2.0862499,7.026981830596924,-6.768408298492432,1.3982137441635132,1.0223388671875,-23.651123046875,-16.3116455078125
2.0887499,7.062894821166992,-6.72531270980835,1.3838485479354858,0.9765625,-23.86474609375,-16.41845703125
2.0912498999999998,7.094019412994385,-6.682217121124268,1.3742717504501343,0.8392333984375,-23.98681640625,-16.4337158203125
2.0937499,7.117961883544922,-6.646304130554199,1.3718775510787964,0.8544921875,-24.0020751953125,-16.5863037109375
2.0962499,7.134721279144287,-6.615179061889648,1.37906014919281,0.8087158203125,-24.0020751953125,-16.5557861328125
2.0987499,7.1490864753723145,-6.603208065032959,1.3886369466781616,0.823974609375,-24.4140625,-16.7236328125
2.1012499,7.16584587097168,-6.598419666290283,1.3934253454208374,0.6866455078125,-24.3377685546875,-17.15087890625
2.1037499,7.184999465942383,-6.605602264404297,1.3934253454208374,0.518798828125,-24.2767333984375,-16.9677734375
2.1062499,7.206547260284424,-6.6127848625183105,1.3838485479354858,0.4730224609375,-24.2462158203125,-16.9219970703125
2.1087499,7.232883453369141,-6.615179061889648,1.3718775510787964,0.6561279296875,-24.5208740234375,-17.3492431640625
2.1112499,7.264008045196533,-6.607996463775635,1.3646949529647827,0.7781982421875,-24.658203125,-17.120361328125
2.1137498999999997,7.295132637023926,-6.581660270690918,1.3623007535934448,0.9002685546875,-24.444580078125,-17.1356201171875
2.1162499,7.3238630294799805,-6.552929878234863,1.3670891523361206,1.2359619140625,-24.2919921875,-17.1661376953125
2.1187499,7.350199222564697,-6.519411087036133,1.37906014919281,1.129150390625,-24.200439453125,-16.9830322265625
2.1212499,7.359776020050049,-6.493074893951416,1.3982137441635132,1.1138916015625,-23.956298828125,-17.1966552734375
2.1237499,7.364564418792725,-6.478709697723389,1.4293384552001953,1.5411376953125,-23.9715576171875,-17.0440673828125
2.1262499,7.364564418792725,-6.476315498352051,1.460463047027588,1.861572265625,-23.92578125,-16.876220703125
2.1287499,7.3693528175354,-6.481103897094727,1.501164436340332,1.922607421875,-23.590087890625,-16.693115234375
2.1312499,7.376535415649414,-6.497863292694092,1.534683346748352,2.1209716796875,-23.3612060546875,-16.6473388671875
2.1337498999999998,7.378929615020752,-6.509834289550781,1.5753847360610962,2.4261474609375,-22.9949951171875,-16.7236328125
2.1362499,7.3693528175354,-6.524199485778809,1.6089035272598267,2.899169921875,-22.8424072265625,-16.387939453125
2.1387499,7.352593421936035,-6.53377628326416,1.6352397203445435,3.265380859375,-22.64404296875,-16.4337158203125
2.1412499,7.331045627593994,-6.540958881378174,1.6496049165725708,3.814697265625,-22.3846435546875,-16.387939453125
2.1437499,7.314286231994629,-6.5481414794921875,1.6496049165725708,3.875732421875,-22.5830078125,-16.021728515625
2.1462499,7.304709434509277,-6.562506675720215,1.647210717201233,4.1046142578125,-22.03369140625,-15.5181884765625
2.1487499,7.299921035766602,-6.572083473205566,1.6400281190872192,4.608154296875,-21.728515625,-15.533447265625
2.1512499,7.297526836395264,-6.588842868804932,1.6424223184585571,5.06591796875,-21.6217041015625,-15.380859375
2.1537498999999998,7.287950038909912,-6.603208065032959,1.6496049165725708,5.2947998046875,-21.3165283203125,-15.411376953125
2.1562499,7.2783732414245605,-6.6127848625183105,1.6639702320098877,5.645751953125,-20.8892822265625,-15.1214599609375
2.1587499,7.266402244567871,-6.619967937469482,1.6831238269805908,6.2408447265625,-20.782470703125,-14.8773193359375
2.1612499,7.249642848968506,-6.6127848625183105,1.6927006244659424,6.622314453125,-20.5078125,-14.7857666015625
2.1637499,7.237671852111816,-6.605602264404297,1.702277421951294,7.110595703125,-20.0042724609375,-14.892578125
2.1662499,7.216124057769775,-6.596025466918945,1.6950948238372803,7.4615478515625,-20.01953125,-14.6484375
2.1687499,7.201758861541748,-6.584054470062256,1.6879122257232666,7.9803466796875,-19.7906494140625,-14.3890380859375
2.1712499,7.184999465942383,-6.576871871948242,1.6735470294952393,8.331298828125,-19.4549560546875,-13.9617919921875
2.1737499,7.177816867828369,-6.572083473205566,1.6615760326385498,8.6517333984375,-19.073486328125,-14.16015625
2.1762499,7.1706342697143555,-6.562506675720215,1.656787633895874,9.2620849609375,-18.8751220703125,-13.946533203125
2.1787499,7.16584587097168,-6.552929878234863,1.6639702320098877,9.674072265625,-18.463134765625,-13.61083984375
2.1812499,7.168240070343018,-6.543353080749512,1.6759412288665771,10.0250244140625,-18.06640625,-13.4429931640625
2.1837499,7.16584587097168,-6.531382083892822,1.702277421951294,10.589599609375,-17.9290771484375,-13.092041015625
2.1862499,7.161057472229004,-6.524199485778809,1.7286136150360107,11.2762451171875,-17.6544189453125,-12.63427734375
2.1887499,7.1490864753723145,-6.517016887664795,1.7597382068634033,11.444091796875,-17.1966552734375,-12.5274658203125
2.1912499,7.132327079772949,-6.514622688293457,1.7908629179000854,11.77978515625,-16.876220703125,-12.1307373046875
2.1937499,7.110779285430908,-6.509834289550781,1.8267759084701538,12.2528076171875,-16.4031982421875,-11.8408203125
2.1962498999999998,7.091625213623047,-6.507440090179443,1.8507179021835327,12.4969482421875,-15.777587890625,-11.6729736328125
2.1987499,7.082048416137695,-6.497863292694092,1.867477297782898,12.6190185546875,-15.350341796875,-11.23046875
2.2012499,7.0772600173950195,-6.48828649520874,1.8722656965255737,12.9852294921875,-15.0146484375,-10.68115234375
2.2037499,7.079654216766357,-6.473921298980713,1.8626888990402222,13.18359375,-14.3890380859375,-10.5438232421875
2.2062499,7.0772600173950195,-6.457161903381348,1.8531121015548706,13.0157470703125,-13.763427734375,-10.1318359375
2.2087499,7.072471618652344,-6.435614109039307,1.8411411046981812,13.1988525390625,-13.3819580078125,-9.5977783203125
2.2112499,7.06528902053833,-6.4164605140686035,1.8339585065841675,13.5040283203125,-12.87841796875,-9.1400146484375
2.2137499,7.0557122230529785,-6.392518520355225,1.8363527059555054,13.1378173828125,-12.26806640625,-8.85009765625
2.2162498999999998,7.048529624938965,-6.3733649253845215,1.845929503440857,13.1683349609375,-11.9781494140625,-8.3160400390625
2.2187499,7.038952827453613,-6.358999729156494,1.8531121015548706,13.275146484375,-11.3372802734375,-8.11767578125
2.2212499,7.024587631225586,-6.339846134185791,1.8602946996688843,13.1683349609375,-10.9405517578125,-7.7362060546875
2.2237499,7.003039836883545,-6.320692539215088,1.8531121015548706,13.12255859375,-10.6658935546875,-7.3394775390625
2.2262499,6.979097843170166,-6.289567947387695,1.8339585065841675,13.1378173828125,-9.979248046875,-7.2021484375
2.2287499,6.962338447570801,-6.246472358703613,1.8052281141281128,12.9547119140625,-9.4146728515625,-6.9122314453125
2.2312499,6.943184852600098,-6.203376770019531,1.7717092037200928,12.603759765625,-8.9874267578125,-6.866455078125
2.2337499,6.938396453857422,-6.157886981964111,1.7357962131500244,12.4359130859375,-8.636474609375,-6.683349609375
2.2362499,6.936002254486084,-6.124367713928223,1.7094600200653076,12.2528076171875,-8.3160400390625,-6.3629150390625
2.2387499,6.931213855743408,-6.100425720214844,1.6927006244659424,12.0697021484375,-7.9498291015625,-6.134033203125
2.2412499,6.926425457000732,-6.09324312210083,1.6855180263519287,11.7645263671875,-7.4310302734375,-6.0577392578125
2.2437499,6.914454460144043,-6.098031520843506,1.6927006244659424,11.5966796875,-7.1258544921875,-5.9967041015625
2.2462499,6.900089263916016,-6.107608318328857,1.7046716213226318,11.3067626953125,-6.9732666015625,-5.79833984375
2.2487499,6.878541469573975,-6.114790916442871,1.7190368175506592,11.0931396484375,-6.500244140625,-5.5084228515625
2.2512499,6.856993675231934,-6.112396717071533,1.7286136150360107,10.894775390625,-6.1187744140625,-5.5999755859375
2.2537499,6.833051681518555,-6.098031520843506,1.7310078144073486,10.528564453125,-5.7525634765625,-5.4168701171875
2.2562499,6.8162922859191895,-6.076483726501465,1.7262194156646729,10.589599609375,-5.2032470703125,-5.218505859375
2.2587498999999998,6.8043212890625,-6.050147533416748,1.7142484188079834,10.3759765625,-4.974365234375,-5.31005859375
2.2612499,6.799532890319824,-6.028599739074707,1.7046716213226318,10.2691650390625,-4.7149658203125,-5.3558349609375
2.2637499,6.809109687805176,-5.999869346618652,1.6974890232086182,10.31494140625,-4.2572021484375,-5.2490234375
2.2662499,6.825869083404541,-5.978321552276611,1.6903064250946045,10.19287109375,-4.058837890625,-5.43212890625
2.2687499,6.852205276489258,-5.954379558563232,1.6831238269805908,10.1470947265625,-3.6163330078125,-5.462646484375
2.2712499,6.876147270202637,-5.937620162963867,1.6831238269805908,9.9029541015625,-3.35693359375,-5.43212890625
2.2737499,6.9024834632873535,-5.925649166107178,1.6879122257232666,9.7503662109375,-3.0364990234375,-5.462646484375
2.2762499,6.921637058258057,-5.920860767364502,1.7046716213226318,9.8876953125,-2.593994140625,-5.401611328125
2.2787498999999998,6.938396453857422,-5.916072368621826,1.721431016921997,10.0250244140625,-2.44140625,-5.584716796875
2.2812499,6.947973251342773,-5.91128396987915,1.745373010635376,10.1470947265625,-2.044677734375,-5.5694580078125
2.2837499,6.955155849456787,-5.904101371765137,1.7741034030914307,10.3912353515625,-1.8310546875,-5.4168701171875
2.2862499,6.962338447570801,-5.892130374908447,1.800439715385437,10.68115234375,-1.5411376953125,-5.4931640625
2.2887499,6.967126846313477,-5.880159378051758,1.8363527059555054,10.6201171875,-1.068115234375,-5.7220458984375
2.2912499,6.97430944442749,-5.870582580566406,1.8602946996688843,10.5438232421875,-0.7781982421875,-5.7525634765625
2.2937499,6.981492042541504,-5.856217384338379,1.8794482946395874,10.6201171875,-0.4119873046875,-5.706787109375
2.2962499,6.9910688400268555,-5.846640586853027,1.8914192914962769,11.0626220703125,-0.030517578125,-5.6304931640625
2.2987499,7.003039836883545,-5.839457988739014,1.8962076902389526,11.16943359375,0.1678466796875,-5.6915283203125
2.3012499,7.015010833740234,-5.837063789367676,1.900996208190918,11.3677978515625,0.396728515625,-5.8441162109375
2.3037499,7.029376029968262,-5.839457988739014,1.9057846069335938,11.7950439453125,0.7476806640625,-5.828857421875
2.3062499,7.046135425567627,-5.841852188110352,1.9177556037902832,11.962890625,1.0528564453125,-5.6915283203125
2.3087499,7.0557122230529785,-5.849034786224365,1.9393033981323242,12.1917724609375,1.28173828125,-5.950927734375
2.3112499,7.070077419281006,-5.8442463874816895,1.9536685943603516,12.542724609375,1.64794921875,-5.8135986328125
2.3137499,7.0772600173950195,-5.834669589996338,1.9704279899597168,12.63427734375,1.9378662109375,-5.7525634765625
2.3162499,7.086836814880371,-5.8203043937683105,1.9704279899597168,12.8936767578125,2.3040771484375,-5.8441162109375
2.3187499,7.0988078117370605,-5.803544998168945,1.9608511924743652,13.3209228515625,2.62451171875,-6.16455078125
2.3212498999999998,7.113173484802246,-5.789179801940918,1.9488801956176758,13.458251953125,2.838134765625,-6.2713623046875
2.3237499,7.134721279144287,-5.770026206970215,1.9345149993896484,13.6260986328125,3.021240234375,-6.134033203125
2.3262499,7.156269073486328,-5.75326681137085,1.9345149993896484,13.85498046875,3.1890869140625,-6.011962890625
2.3287499,7.180211067199707,-5.731719017028809,1.941697597503662,14.0838623046875,3.326416015625,-5.889892578125
2.3312499,7.196970462799072,-5.7125654220581055,1.9584569931030273,14.312744140625,3.6773681640625,-6.072998046875
2.3337499,7.2113356590271,-5.698200225830078,1.9847931861877441,14.2059326171875,4.1046142578125,-6.1798095703125
2.3362499,7.218518257141113,-5.693411827087402,2.011129379272461,14.495849609375,4.2266845703125,-5.950927734375
2.3387499,7.220912456512451,-5.698200225830078,2.0422539710998535,14.617919921875,4.4708251953125,-6.011962890625
2.3412498999999998,7.220912456512451,-5.70777702331543,2.075772762298584,14.9688720703125,4.8980712890625,-5.7373046875
2.3437499,7.216124057769775,-5.722142219543457,2.1116859912872314,14.984130859375,5.096435546875,-5.6915283203125
2.3462499,7.218518257141113,-5.736507415771484,2.142810583114624,15.228271484375,5.4931640625,-5.5389404296875
2.3487499,7.216124057769775,-5.743690013885498,2.1715409755706787,15.1824951171875,5.9661865234375,-5.584716796875
2.3512499,7.216124057769775,-5.75326681137085,2.1930887699127197,15.3045654296875,6.134033203125,-5.2642822265625
2.3537499,7.218518257141113,-5.75326681137085,2.209848165512085,15.4876708984375,6.561279296875,-5.1422119140625
2.3562499,7.220912456512451,-5.760449409484863,2.2194249629974365,15.655517578125,6.77490234375,-4.974365234375
2.3587499,7.230489253997803,-5.762843608856201,2.2242133617401123,15.625,7.26318359375,-4.94384765625
2.3612499,7.242460250854492,-5.765237808227539,2.229001760482788,15.8843994140625,7.537841796875,-4.6844482421875
2.3637499,7.2568254470825195,-5.765237808227539,2.229001760482788,16.05224609375,7.781982421875,-4.5318603515625
2.3662499,7.268796443939209,-5.770026206970215,2.233790159225464,16.1590576171875,7.9498291015625,-4.3487548828125
2.3687499,7.2783732414245605,-5.784391403198242,2.248155355453491,16.2353515625,8.056640625,-4.0283203125
2.3712499,7.280767440795898,-5.805939197540283,2.2673089504241943,16.1590576171875,8.30078125,-3.875732421875
2.3737499,7.280767440795898,-5.834669589996338,2.296039342880249,16.4031982421875,8.3465576171875,-3.84521484375
2.3762499,7.273584842681885,-5.863399982452393,2.3295583724975586,16.4031982421875,8.4381103515625,-3.570556640625
2.3787499,7.266402244567871,-5.880159378051758,2.3511061668395996,16.5557861328125,8.758544921875,-3.387451171875
2.3812499,7.2568254470825195,-5.894524574279785,2.3702597618103027,16.66259765625,8.97216796875,-3.2806396484375
2.3837498999999998,7.249642848968506,-5.916072368621826,2.382230758666992,16.5557861328125,9.1705322265625,-3.021240234375
2.3862499,7.24485445022583,-5.935225963592529,2.3918075561523438,16.78466796875,9.2010498046875,-3.11279296875
2.3887499,7.247248649597168,-5.95677375793457,2.3989901542663574,17.1356201171875,9.2315673828125,-3.0364990234375
2.3912499,7.254431247711182,-5.96874475479126,2.408566951751709,16.9677734375,9.46044921875,-2.38037109375
2.3937499,7.264008045196533,-5.9735331535339355,2.408566951751709,17.1966552734375,9.674072265625,-2.3345947265625
2.3962499,7.2783732414245605,-5.983109951019287,2.410961151123047,17.5018310546875,9.3994140625,-2.227783203125
2.3987499,7.292738437652588,-5.995080947875977,2.408566951751709,17.6239013671875,9.307861328125,-2.13623046875
2.4012499,7.307103633880615,-6.009446144104004,2.406172752380371,17.4713134765625,9.58251953125,-2.25830078125
2.4037498999999998,7.316680431365967,-6.028599739074707,2.4013843536376953,17.4713134765625,9.7198486328125,-2.0904541015625
2.4062499,7.321468830108643,-6.0405707359313965,2.4013843536376953,17.2576904296875,9.6588134765625,-1.7547607421875
2.4087499,7.321468830108643,-6.050147533416748,2.4013843536376953,17.3187255859375,9.429931640625,-1.6632080078125
2.4112499,7.316680431365967,-6.052541732788086,2.410961151123047,17.2576904296875,9.1552734375,-1.6326904296875
2.4137499,7.316680431365967,-6.045359134674072,2.4181437492370605,17.08984375,8.9569091796875,-1.6326904296875
2.4162499,7.309497833251953,-6.026205539703369,2.434903144836426,17.3187255859375,9.033203125,-1.7852783203125
2.4187499,7.309497833251953,-5.9974751472473145,2.456450939178467,17.3187255859375,8.941650390625,-1.800537109375
2.4212499,7.314286231994629,-5.959167957305908,2.4684219360351562,17.059326171875,8.636474609375,-1.953125
2.4237499,7.316680431365967,-5.91128396987915,2.47560453414917,17.0440673828125,8.5601806640625,-1.739501953125
2.4262499,7.326257228851318,-5.868188381195068,2.4660277366638184,16.7388916015625,8.270263671875,-2.1209716796875
2.4287499,7.331045627593994,-5.832275390625,2.451662540435791,16.6168212890625,8.1939697265625,-2.38037109375
2.4312499,7.338228225708008,-5.815515995025635,2.432508945465088,16.7999267578125,7.8125,-2.4261474609375
2.4337499,7.338228225708008,-5.817910194396973,2.4229321479797363,16.998291015625,7.537841796875,-2.62451171875
2.4362499,7.340622425079346,-5.822698593139648,2.4205379486083984,16.8914794921875,7.4615478515625,-2.960205078125
2.4387499,7.33583402633667,-5.829881191253662,2.4157495498657227,16.5557861328125,7.2021484375,-3.1585693359375
2.4412499,7.333439826965332,-5.832275390625,2.4205379486083984,16.845703125,6.7291259765625,-3.4637451171875
2.4437499,7.333439826965332,-5.829881191253662,2.4205379486083984,16.815185546875,6.5460205078125,-3.326416015625
2.4462498999999998,7.338228225708008,-5.8203043937683105,2.4181437492370605,16.7083740234375,6.3934326171875,-3.4637451171875
2.4487499,7.347805023193359,-5.805939197540283,2.4229321479797363,16.7083740234375,5.9967041015625,-3.7384033203125
2.4512499,7.362170219421387,-5.78678560256958,2.4157495498657227,16.3726806640625,5.9051513671875,-3.9520263671875
2.4537499,7.376535415649414,-5.767632007598877,2.403778553009033,16.0675048828125,5.92041015625,-4.0740966796875
2.4562499,7.395689010620117,-5.750872611999512,2.3918075561523438,15.899658203125,5.92041015625,-4.2266845703125
2.4587499,7.407660007476807,-5.748478412628174,2.3774423599243164,15.8843994140625,5.7373046875,-4.3182373046875
2.4612499,7.419631004333496,-5.748478412628174,2.3726539611816406,15.80810546875,5.6915283203125,-4.180908203125
2.4637499,7.429207801818848,-5.750872611999512,2.3726539611816406,15.7470703125,5.523681640625,-4.2572021484375
2.4662498999999998,7.4316020011901855,-5.748478412628174,2.3726539611816406,15.80810546875,5.43212890625,-4.4097900390625
2.4687499,7.441178798675537,-5.743690013885498,2.3750481605529785,15.7623291015625,5.18798828125,-4.45556640625
2.4712499,7.453149795532227,-5.731719017028809,2.3774423599243164,15.3350830078125,5.1422119140625,-4.4708251953125
2.4737499,7.457938194274902,-5.719748020172119,2.3798365592956543,15.228271484375,5.1116943359375,-4.3792724609375
2.4762499,7.46033239364624,-5.705382823944092,2.382230758666992,15.19775390625,4.7760009765625,-4.5013427734375
2.4787499,7.46033239364624,-5.6910176277160645,2.38462495803833,14.923095703125,4.82177734375,-4.4403076171875
2.4812499,7.462726593017578,-5.671864032745361,2.389413356781006,14.6484375,4.8980712890625,-4.6234130859375
2.4837499,7.4770917892456055,-5.655104637145996,2.3918075561523438,14.404296875,4.82177734375,-4.669189453125
2.4862499,7.491456985473633,-5.635950565338135,2.387019157409668,14.312744140625,4.5318603515625,-4.974365234375
2.4887499,7.513004779815674,-5.616796970367432,2.3726539611816406,14.434814453125,4.669189453125,-4.8675537109375
2.4912499,7.529764175415039,-5.5976433753967285,2.3558945655822754,14.2822265625,4.7607421875,-4.974365234375
2.4937499,7.5417351722717285,-5.580883979797363,2.3367409706115723,14.0380859375,4.6234130859375,-5.5084228515625
2.4962499,7.55131196975708,-5.547365188598633,2.3295583724975586,14.129638671875,4.69970703125,-5.5694580078125
2.4987499,7.558494567871094,-5.518634796142578,2.341529369354248,13.824462890625,4.8980712890625,-5.6610107421875
2.5012499,7.570465564727783,-5.48272180557251,2.3582887649536133,13.763427734375,4.669189453125,-5.6304931640625
2.5037499,7.592013359069824,-5.456385612487793,2.387019157409668,13.85498046875,4.4708251953125,-5.828857421875
2.5062499,7.620744228363037,-5.442020416259766,2.408566951751709,14.0380859375,4.608154296875,-6.134033203125
2.5087498999999998,7.65186882019043,-5.442020416259766,2.43011474609375,14.0228271484375,4.638671875,-6.256103515625
2.5112499,7.6782050132751465,-5.451597213745117,2.454056739807129,13.702392578125,4.6539306640625,-6.500244140625
2.5137499,7.694964408874512,-5.47075080871582,2.477998733520508,13.9007568359375,4.82177734375,-6.6986083984375
2.5162499,7.69735860824585,-5.492298603057861,2.5091233253479004,14.068603515625,4.8980712890625,-7.049560546875
2.5187499,7.702147006988525,-5.513846397399902,2.5498247146606445,14.3280029296875,5.035400390625,-7.2479248046875
2.5212499,7.69735860824585,-5.525817394256592,2.5929205417633057,14.6331787109375,5.1422119140625,-7.4615478515625
2.5237499,7.692570209503174,-5.530605792999268,2.6384103298187256,14.70947265625,5.2642822265625,-7.598876953125
2.5262499,7.68538761138916,-5.537788391113281,2.6839001178741455,14.7247314453125,5.4473876953125,-7.7667236328125
2.5287498999999998,7.6782050132751465,-5.542576789855957,2.717418909072876,15.07568359375,5.523681640625,-7.843017578125
2.5312499,7.673416614532471,-5.549759387969971,2.7437551021575928,15.106201171875,5.31005859375,-8.0413818359375
2.5337499,7.673416614532471,-5.552153587341309,2.75812029838562,15.2740478515625,5.645751953125,-8.3465576171875
2.5362499,7.6782050132751465,-5.552153587341309,2.762908697128296,15.838623046875,5.828857421875,-8.6517333984375
2.5387499,7.68538761138916,-5.549759387969971,2.762908697128296,16.11328125,5.92041015625,-8.819580078125
2.5412499,7.692570209503174,-5.542576789855957,2.75812029838562,16.448974609375,6.2255859375,-9.1094970703125
2.5437499,7.702147006988525,-5.5329999923706055,2.7509377002716064,17.0135498046875,6.2103271484375,-9.4757080078125
2.5462499,7.706935405731201,-5.51624059677124,2.7461493015289307,17.5018310546875,6.1492919921875,-9.70458984375
2.5487499,7.714118003845215,-5.504269599914551,2.7437551021575928,18.06640625,6.2255859375,-9.9945068359375
2.5512499,7.7213006019592285,-5.489904403686523,2.7437551021575928,18.73779296875,6.1187744140625,-10.19287109375
2.5537499,7.723694801330566,-5.485116004943848,2.7533318996429443,19.1192626953125,6.1798095703125,-10.6201171875
2.5562499,7.723694801330566,-5.48272180557251,2.7676970958709717,19.6533203125,6.3629150390625,-10.711669921875
2.5587499,7.716512203216553,-5.489904403686523,2.7892448902130127,20.355224609375,6.3018798828125,-10.8642578125
2.5612499,7.706935405731201,-5.504269599914551,2.8131868839263916,21.026611328125,6.4239501953125,-11.016845703125
