# Time (seconds),Accel_X,Accel_Y,Accel_Z,Gyro_X,Gyro_Y,Gyro_Z
0.0012499,8.741472927648262,-6.304084164391568,0.23720474176704903,-9.984119704979328,-14.846623515909537,-0.8929284013820881
0.0112499,8.749082274528202,-6.3554434038029655,0.13646641631219625,-8.833489470990083,-14.900664822522726,-4.719342486033346
0.0212499,8.676986006614003,-6.359357372773753,-0.0468017503034383,-7.41950941894478,-15.088891720440543,-7.92326312775266
0.0312498999999999,8.564826684601703,-6.329883845068898,-0.1417892639614865,-6.143602756960362,-15.107318151078305,-10.839048051351096
0.0412499,8.478188784957744,-6.293023539141148,-0.19932350890195916,-4.770983327653243,-14.880957039295529,-13.529964771389734
0.0512499,8.450030571449892,-6.286613257367981,-0.29448033934212225,-2.756960279872773,-14.772124042267794,-16.185904681608548
0.0612498999999999,8.529988285868308,-6.321503128366869,-0.36360276375893374,0.12064845163053912,-14.572140517723854,-18.23003013706738
0.0712499,8.618226006204118,-6.324886136343221,-0.3961547264238218,3.616518729275747,-14.342439150888543,-19.41041144968749
0.0812499,8.630700466542923,-6.247424906835963,-0.4500193714375814,6.9204618575857095,-13.852367399339256,-20.17408574944576
0.0912499,8.665692440826989,-6.082309271528665,-0.5406156433008055,9.73981301849776,-13.351750015684415,-20.952200174276904
0.1012499,8.716054341991116,-5.906818292385185,-0.5914986701922151,11.912660205863935,-13.071783656089991,-21.747385110188
0.1112499,8.664178549867332,-5.757284739929562,-0.5916197177867859,13.360206425240236,-12.902936525399763,-22.517492525832417
0.1212499,8.549105131371839,-5.6177250661447795,-0.659997772918196,13.944461386295396,-12.994493240303267,-23.38943095614846
0.1312499,8.488518324358818,-5.484532977562849,-0.8020866293416399,13.760399018925296,-13.461372752309211,-24.416588325464975
0.1412499,8.494676163084243,-5.2973908027318775,-0.8918932616638262,13.18394391157284,-14.617835280525465,-25.490505620325656
0.1512499,8.573937733605423,-5.106459408900893,-0.8660889221272021,11.638668129823255,-16.002479485783265,-26.50150198323458
0.1612499,8.690898780353471,-4.97953520531455,-0.8440411439836021,9.410327369259722,-17.13564024252801,-27.46874644982995
0.1712499,8.727855001053772,-4.852713652948392,-0.9031219110640637,7.194454314713543,-18.20283284462721,-28.50958578342817
0.1812499,8.660131350120704,-4.703089652802287,-0.9440075018667677,4.842280559098831,-19.685786270803607,-29.687273179988324
0.1912499,8.628363405271815,-4.612871113774849,-0.8921236557254417,2.8583255404675714,-21.030217036345107,-30.898791178527716
0.2012499,8.656818341947046,-4.569491861105908,-0.7702187307911363,1.5390381909800919,-21.801246847661538,-31.65674049044901
0.2112499,8.726536050792868,-4.487244897989622,-0.6481381841867698,0.38698815077137505,-21.98784918419627,-31.768792232191434
0.2212499,8.832272881109496,-4.363514247963774,-0.5710359885103926,-0.6277049952415317,-21.34297698947216,-31.52847417297527
0.2312499,8.837554264548235,-4.282808730904737,-0.5263950035119123,-1.3643340563309299,-20.48178188005667,-30.78381179530384
0.2412499,8.704665848293802,-4.276111470689034,-0.5093645699268881,-1.900287681450496,-19.66896632459107,-29.478207739003647
0.2512499,8.528491681561091,-4.290708086855214,-0.5426269878662565,-1.662293553875619,-18.951494435949193,-27.777635179081592
0.2612499,8.36899999433685,-4.253384838391753,-0.5618762026631399,-0.7330955527815999,-18.390519213392537,-26.165350521919905
0.2712499,8.238085085611589,-4.149099132892686,-0.5452889412417862,0.5048176381187455,-18.211386972869306,-24.826144989241996
0.2812499,8.150768188444488,-4.0194470449248945,-0.5303935398660297,1.8240333488120897,-18.161324682191943,-24.006848039757358
0.2912499,8.112770210430602,-3.8365121394079775,-0.5263761193148458,2.5640206990334105,-18.052107967803384,-23.288390533262234
0.3012499,8.130591113703426,-3.5953516323268087,-0.5525811970866472,2.2301720672698315,-17.762315768924186,-22.718164132200453
0.3112499,8.191352633508702,-3.38369886988234,-0.5650982745035193,0.9522626971168001,-17.28928037171169,-22.591945239340433
0.3212499,8.274603548227427,-3.1931639642994445,-0.549375539446742,-1.105026760117566,-16.20308322449009,-22.587941934512106
0.3312499,8.354772577447411,-3.0143737951438494,-0.5379006607663306,-3.6788759640898734,-14.54045121548378,-22.413944093538248
0.3412499,8.425955524104106,-2.8906483139021706,-0.48800214952731774,-6.145577196930718,-12.39902666441415,-21.633381167355623
0.3512499,8.510709393765492,-2.831894425499237,-0.3960221316313182,-8.217294918594797,-9.58760298416483,-20.08394414090148
0.3612499,8.635418661560356,-2.840941836930467,-0.30054997578134673,-9.369730950704865,-6.330031145322093,-18.07659851074847
0.3712499,8.768228777256235,-2.8740899367200035,-0.2175471103584948,-9.134467602196285,-2.944908134539638,-15.735672464881832
0.3812499,8.881230609415628,-2.9426714582769073,-0.1584194665197034,-7.336209056831849,0.28478497041610334,-12.802022764326423
0.3912499,8.955923398680918,-3.0090597549182827,-0.1420493132510111,-4.332596678443164,3.1500189349520076,-9.441649339675259
0.4012499,8.998064815238463,-2.9963689287314064,-0.14392151937072573,-0.6060739249261009,5.8066350294565146,-5.890007813886001
0.4112499,9.079242871817224,-2.924170250184963,-0.1728541561023111,3.309750041793143,8.106661406886492,-2.262620711919649
0.4212499,9.160092828454548,-2.783786947053152,-0.20680051525004828,6.454112244034556,9.751559702057994,1.2174936674887988
0.4312499,9.170616673338692,-2.6340277398242575,-0.24561496913362207,8.424104315082777,10.731378444715652,4.444212895660273
0.4412499,9.151996092604726,-2.5738192931461725,-0.2993427353664258,9.258542517582242,11.340742750009309,7.118430514513612
0.4512499,9.12541988717159,-2.590790459220015,-0.3265321002821408,9.535306422658362,11.34940740775912,9.315438962662991
0.4612499,9.124447489515747,-2.6587978355430057,-0.3387816262566609,9.473311176267064,10.853191742705961,11.238818916749631
0.4712499,9.179977270925328,-2.7322983585754095,-0.2850428575401571,8.865276506992542,10.015565969442362,12.727820752362156
0.4812499,9.227797371243746,-2.7900254314526824,-0.19363071878088164,7.937531352637652,8.973820191214159,13.667383787818933
0.4912499,9.20682583884484,-2.91926171360629,-0.1168292116682568,7.120419620646832,7.815919482048156,14.088277449113573
0.5012499,9.186569872137323,-3.1557942683755713,0.00206078378641362,6.486223576969987,6.733225903458493,14.396481992154555
0.5112499,9.157446793283356,-3.4733453738786007,0.15643372144656453,6.253070439428763,5.73362836126348,14.638005405502312
0.5212499,9.070322857524094,-3.7682847004957623,0.26236131932004947,6.609651061152089,4.635939771139623,14.609969588950474
0.5312499,9.008730271306812,-3.9658093717525067,0.3088923653622391,7.326047781038338,3.416704184409295,13.94557895827084
0.5412499000000001,9.014772100356192,-4.10241033198459,0.3962197845981003,8.350888279000914,2.0823127721308383,12.549410352509957
0.5512499000000001,9.034670323384475,-4.221641431469779,0.47135461754108876,9.40350957036214,0.9546472791157438,10.857026081973794
0.5612499000000001,9.078457783295443,-4.301827018462364,0.5033082084689672,10.131873005089478,-0.04557596829770953,8.98324573100526
0.5712499000000001,9.115914031168423,-4.33352284194191,0.53558234497857,10.600897621678683,-0.95921370336248,7.019689280619737
0.5812499,9.12375006467582,-4.33828913972321,0.5071014099783884,10.465385791073967,-1.8542876196921187,5.032754776090759
0.5912499,9.130709808066937,-4.30476868257838,0.41157584932176766,9.63514921818433,-2.6510180979511477,3.177199092078258
0.6012499,9.160689268731016,-4.234193380005258,0.3383015182355688,8.097583744526396,-3.1908882732363018,1.382938780949387
0.6112499,9.184299593357366,-4.178179604989737,0.2730544999706029,6.2903298703622035,-3.43933348317972,-0.18013115158215062
0.6212499,9.1979442830354,-4.16181937949312,0.19922200076530056,4.454088357071855,-3.592316280630536,-1.1972720105082308
0.6312499,9.225108816308644,-4.123516932171594,0.10544104984189549,2.5785297011987454,-3.4285795124859537,-1.7990971115957204
0.6412499,9.181953050523605,-4.043895210894036,-0.019587754967904283,0.8704157421078882,-3.1321485908214624,-2.2771907231613437
0.6512499,9.142899926838354,-3.9798381002330556,-0.13181396144087573,-0.5279751654844385,-3.106233495063186,-2.4196756359513945
0.6612499000000001,9.1494527278583,-3.9950737557808162,-0.20386762692869637,-1.6059974688636187,-2.8737119991456694,-1.910263281366423
0.6712499000000001,9.111599946770474,-4.021560752525425,-0.2462734874988401,-2.657264479708112,-2.376025534703534,-1.078729958147684
0.6812499000000001,9.085413079857485,-4.01927800864521,-0.2845765304443055,-3.410372156314608,-1.7332095455258196,0.032641552722913546
0.6912499000000001,9.080504980450208,-4.056493719289713,-0.3160259589275456,-4.150928001570449,-1.2087061607982255,1.211853859991709
0.7012499000000001,9.082328477253656,-4.068681577597235,-0.3208087787749837,-4.9060188748598454,-0.6666687431022779,2.202063832046779
0.7112499,9.075362193487498,-4.002761944022369,-0.33762071242368913,-5.540370409674052,-0.1417146936007524,3.0636061405535946
0.7212499,9.035410169776968,-3.97454827283693,-0.3429729804418841,-6.454500667161279,0.27464644889651946,3.5368743576403947
0.7312499,9.0099578685979,-4.001365583754507,-0.3229955655730557,-7.554874249048374,0.6375906704375832,3.9513616853129108
0.7412499,8.974225354235873,-4.038269422042196,-0.27152357475033423,-8.744724896889474,0.8757625761802629,4.253005922162851
0.7512499,8.906746292208785,-4.076512167469842,-0.19879228270302124,-9.617825958973544,1.092767858969693,4.198682540107045
0.7612499,8.844313460719059,-4.105268812669158,-0.15390857428899624,-10.568296985672399,1.3106856034845622,3.8968138881116854
0.7712499,8.823023750283625,-4.119727433726481,-0.12967673413942263,-11.364107973162334,1.4487945009957828,3.2974571623536106
0.7812499,8.828204954575327,-4.144192672147341,-0.10159066609341277,-11.689522949827325,1.3991105715424337,2.4039436779798375
0.7912499000000001,8.83552770702731,-4.178144284344358,-0.07059055451795264,-11.642242717534218,1.516918807412411,1.6256818656671423
0.8012499000000001,8.818246137521525,-4.151098703235199,-0.0914197248926979,-11.485133043425705,1.8459536797828622,0.8191007081169768
0.8112499000000001,8.811502730653046,-4.074853245938429,-0.1332025653447068,-11.639970909067603,2.109209396292794,0.42024096123213467
0.8212499000000001,8.805244465495116,-4.01101660476152,-0.12484189772933509,-12.168210993359901,2.417369616385893,0.12412939259080707
0.8312499000000001,8.779925745712779,-3.911682324702693,-0.1280006801013439,-12.452071171412795,2.802445922963456,-0.11240921944637758
0.8412499,8.825961833252935,-3.7676011915020395,-0.1712360723196564,-12.981046668488377,3.160324991505975,-0.4527976586408102
0.8512499,8.912717634692338,-3.709413276245501,-0.11365682238835301,-13.354636384581568,3.506894528068517,-0.7074523690096733
0.8612499,8.946098372846002,-3.7346635555184675,-0.060390595422174544,-13.166537513026027,4.1925991991952305,-0.4477268286342228
0.8712499,8.943110705549774,-3.7072943211199414,-0.09151183142847653,-12.82012793633226,5.011983805238291,-0.13848824339723148
0.8812499,8.959279912125456,-3.6834216577492764,-0.10219924174743499,-12.347606507212687,5.798004790535112,0.19163764234524786
0.8912499,9.007397249096757,-3.6924855508710426,-0.053912589549683455,-11.741566464124938,6.553453038797724,0.6302629098447953
0.9012499,9.069387668721962,-3.682316308744146,0.021419989753574117,-11.186096699320837,7.411502871256209,1.169277315217133
0.9112499,9.05225561991016,-3.6692535395310832,0.0680661952626263,-10.654768262454471,8.151885146134777,1.6110889324266562
0.9212499,9.021516580590127,-3.6216038199959626,0.05030390673240034,-10.376772413008682,8.789535201967613,1.9847744284968791
0.9312499,9.012571580072587,-3.5826624908193825,0.02255900697710142,-10.64733332752663,9.270362287774743,2.4279379156725795
0.9412499,8.988144693239002,-3.6381361802418613,0.07887495889705455,-11.0785703917339,9.665250226051558,2.88135035749543
0.9512499,8.985102984773855,-3.7183593106626067,0.16108730315668526,-11.068055166789076,10.137206850015453,3.3232183821390424
0.9612499,9.016565854587602,-3.7574580583942385,0.18625945523036289,-11.032031758403276,10.201077740479974,3.6791454597561204
0.9712499,9.022333988221444,-3.8398741015324216,0.18893131670459876,-10.67623282965611,9.868333163882077,3.9752143988066515
0.9812499,8.973162503066797,-3.931651735984669,0.19543249286861542,-9.835363841013475,9.297454537087539,4.271221278233537
0.9912499,8.925881751939794,-3.9250490701958634,0.19439506708679447,-9.391378075313652,8.536562131911335,4.326394917950115
1.0012499,8.937253223984584,-3.9291707798970563,0.16978927616479506,-9.386486935668035,7.731184295205877,4.175001246595305
1.0112499,8.988893351219302,-3.959689251612419,0.17468522622099522,-9.540494397891488,6.899155478139445,3.847046959952486
1.0212499,9.0566317748987,-3.958819718366872,0.1895784008227363,-9.830648010127474,6.030060505102371,3.161116008982119
1.0312499,9.110010715893033,-3.9617257547479086,0.1687170144362364,-10.401448017242723,5.231910174792599,2.5492578679811624
1.0412499,9.145513796722932,-3.9642538671372556,0.1408815843645012,-11.08393412698243,4.684123695002916,1.762259304056385
1.0512499,9.171552744892873,-3.960342166592527,0.1349806488162889,-11.410529402675424,4.400372341919278,0.7503673662945783
1.0612499,9.180788454156213,-3.9852310099870074,0.1412196791161768,-11.329000317490356,4.066079232639041,-0.09793200811998605
1.0712499,9.184982093790877,-4.015666112474783,0.12621884192662974,-10.884859989545612,4.076340634066841,-0.7617792836089662
1.0812499,9.207263114385356,-4.000486407778578,0.11048255058902548,-10.159532006767126,4.282090173382803,-1.423996710604714
1.0912499,9.191403724854254,-3.978301532503579,0.1146039400382439,-9.085285099054621,4.322053586628569,-1.8682414882839906
1.1012499,9.12517903542945,-3.95033200148127,0.11890636775781845,-8.008033562025632,4.421497001755064,-2.153975841738142
1.1112499,9.069499926996807,-3.8890365551620576,0.12111345810136671,-7.069591102829078,4.598597185233448,-2.27567899336419
1.1212499,9.009405059321347,-3.8578658486068167,0.14069677243940257,-6.469126450790935,4.836587167928333,-2.2587452620355215
1.1312499,8.968744306647242,-3.8610020284764337,0.15360692657455993,-5.764340203256789,4.977236087213681,-2.266453829533498
1.1412499,8.996485054709662,-3.8552290644732303,0.15613186001128843,-4.767753728546843,4.725550711596787,-2.1281926115568335
1.1512499,9.029026640653976,-3.8264861878825203,0.21808458364791,-3.947123056979335,4.405563407068312,-1.6739265822948541
1.1612498999999998,8.988675010941712,-3.75824616238602,0.256394425543325,-3.5961889443075803,3.958445347080918,-1.0596162719834257
1.1712498999999998,8.965750021385844,-3.668063271892887,0.24334226216296986,-3.4679665190020734,3.5225554347796346,-0.4416419610187355
1.1812499,8.952190587250017,-3.629766204886786,0.2230206909914761,-2.8521841781920947,3.1235239916236184,0.04564472005974377
1.1912499,8.893854040170478,-3.644393474010416,0.14419558854845693,-2.164430146285538,2.2952264493531667,0.8813477648922259
1.2012499,8.892462172581197,-3.6377833918579685,0.07147234817844639,-1.5829707495437582,1.5125947133898785,1.8677197440080318
1.2112499,8.943236178647446,-3.608287743927443,0.08956657932007782,-1.0567447031805284,0.7669642573333185,2.793745153208953
1.2212499,9.003083830318184,-3.571084859677121,0.07924901239602694,-0.8732652283951814,-0.06952658102689989,3.47356974172444
1.2312499,9.078474042659035,-3.541667015439727,0.051286159260733453,-0.8764701058517264,-0.7043505287871399,3.8482281076293554
1.2412499,9.120918172790946,-3.5616000929009797,0.07272221587998705,-0.8247983553298479,-1.2408975903857158,4.2121597851568735
1.2512499,9.125950032700851,-3.610420772775413,0.09752706971913139,-0.7293945047116475,-1.7076537750719742,4.477634943988565
1.2612499,9.084525333600041,-3.6489628508508956,0.07506837618069938,-0.5071352035544532,-2.1619171870166776,4.6209408836047805
1.2712499,9.032936620306025,-3.72022934051912,0.021086335012615663,0.04895317076015126,-2.4487420820382337,4.586985704193262
1.2812499,9.061080716715843,-3.7966760237244053,0.004804724656897315,1.2075373371511404,-2.7734979463754668,4.403392980909839
1.2912499,9.148342982296036,-3.843019202112118,0.0652784165059973,2.581619356728615,-3.0277946789079357,4.095638316676686
1.3012499,9.223079412497674,-3.8573371584996523,0.12110639598532309,3.8503813909365316,-2.8780264073406334,3.4559867967720748
1.3112499,9.245131536512524,-3.8146959962969835,0.13838266182816916,4.856610653196773,-2.6331554478049863,2.5913142177824695
1.3212499,9.264126569726823,-3.77807763810381,0.14981714934759632,5.461042544130505,-2.1677047479010816,1.7062305996606342
1.3312499,9.240065446296676,-3.7720890980118,0.13233208927471693,5.7059412077093175,-1.6936020628404016,0.8517071758706286
1.3412499,9.150804604604712,-3.781222496445424,0.07565888385779801,6.095811829570582,-1.5457762529331,0.04149051007449722
1.3512499,9.071454070718756,-3.806274375945415,0.044640790237767076,6.6003727453987935,-1.349871044738266,-0.8419655538867935
1.3612499,9.02631399907518,-3.814877226198522,0.042291485529563265,7.341201229257401,-1.2977452896468564,-1.7029936206522818
1.3712499,9.049664205271565,-3.827373798372076,0.060345969468948484,8.484919153094541,-1.3180331810831698,-2.0042260317551936
1.3812499,9.107883799374948,-3.8332976967402184,0.0945211880196735,9.72874182865652,-1.272989447060927,-1.9336974703489342
1.3912499,9.114290059118952,-3.784696678180454,0.10839430224112007,10.728230471628343,-1.2545909213410293,-1.5778910317817647
1.4012499,9.110058369920234,-3.749992641784207,0.10191821605632606,11.543072977477358,-1.1511032147362488,-0.9703220805278927
1.4112498999999998,9.074388873697457,-3.735464699985195,0.10463359961401913,12.463767059797418,-1.1149625265383585,-0.47684572830793653
1.4212498999999998,8.98684628153173,-3.674965115260249,0.04654370716523089,13.166563733080874,-1.4772710006627965,0.03246999860360845
1.4312499,8.913780938409426,-3.6144403793150106,-0.03199898462035619,13.432071745749862,-1.9873053208904252,0.7571829828432957
1.4412499,8.86405523264872,-3.618819290346804,-0.03343491417714618,13.319407472234056,-2.3896701086421452,1.7326470834295242
1.4512499,8.853211948642667,-3.5933046712362917,-0.036193031405432084,12.972374885926452,-2.9939946130747277,2.637622347036104
1.4612499,8.861773385549355,-3.5126364830146786,-0.0458978770147571,12.393411946892103,-3.632418680846651,3.3462959779694423
1.4712499,8.871551141985796,-3.4863215826338325,-0.06564206356934194,11.231351610874844,-4.213911526024087,4.289102545555989
1.4812499,8.872377546082497,-3.58244752152207,-0.08237808388250598,10.131022385117305,-4.664170852912218,5.513596414698077
1.4912499,8.79361511452242,-3.7211686568259332,-0.012300665083355032,10.083790289216907,-5.210948385861162,6.458745291229665
1.5012499,8.81014866296843,-3.730095259713845,0.048519745012902335,9.817871320140881,-5.884639475284687,7.101803089770228
1.5112499,8.9339099068568,-3.701370890323466,0.0038417503065704805,8.6838140603117,-5.990162781163477,7.823633980484752
1.5212499,8.906356387885111,-3.855525036404586,-0.04356320513329988,8.124854450712578,-5.833642341257613,8.390055780897374
1.5312499,8.78153928147191,-3.9966890839864515,-0.010195486253274601,8.061421783649442,-5.876155799342278,8.959729595785076
1.5412499,8.79662295388245,-3.9331621407446713,0.009722491765849352,7.440882389616503,-5.738255725316153,9.332321019045706
1.5512499,8.855745761754566,-3.906701368626359,-0.012029677617861823,6.432623126506467,-5.287951984629303,9.33746407581245
1.5612499,8.838514784364568,-4.043012484486257,-0.0443695585787099,5.9595329094193055,-4.913972942488805,9.281335995121314
1.5712499,8.800781048976294,-4.177131410150379,-0.03490267841133456,6.1449702282619505,-4.619224707391211,9.414500482159237
1.5812499,8.832978060056186,-4.228868625920881,0.021479148548220747,6.3316253722716915,-4.346226891974303,9.645114808979162
1.5912499,8.925757220689281,-4.239303599422374,-0.01263239015237627,6.514126106862784,-3.835952620895246,9.589608957521346
1.6012499,8.95637546356633,-4.272289807351426,-0.08695958412825813,6.910274609476417,-3.481295742737956,9.348654209463684
1.6112499,8.954259900791008,-4.3102605327027375,-0.04639483334381259,7.422091156675597,-3.3394978410550884,9.1948651635741
1.6212499,8.967978491686903,-4.325169871940338,0.006746713747025253,7.6622736287581645,-2.8665203283606333,9.136392818008295
1.6312499,8.975537112933042,-4.369099621360349,-0.03895273584506073,7.638602544547867,-2.1473306633336717,9.239414502112227
1.6412499,8.942426002376328,-4.432441006154964,-0.11879993998862855,7.817071640835476,-1.8613036861177226,9.375320609743198
1.6512499,8.88463330242938,-4.4266747376595035,-0.16609512436689464,7.704991242396455,-1.9974846495152854,9.425861124486893
1.6612499,8.884965851935867,-4.413424678272506,-0.16610272752938726,7.078756068998098,-2.0758373260667025,9.516770367026805
1.6712498999999998,8.876239780508776,-4.4881104381749735,-0.15775022109328768,6.451100104744052,-2.2690035471050343,9.700795243349697
1.6812499,8.80900637612918,-4.563095496398596,-0.16717287350519847,5.826232662563084,-2.7538752617102285,9.71726550354266
1.6912499,8.75809413693259,-4.591488940144983,-0.18636158365053737,4.941789362147617,-3.4314745351480864,9.691050823222739
1.7012499,8.759605784273006,-4.626840288311166,-0.17102984255889367,3.7296932279408437,-4.378870595490391,9.70423240193188
1.7112499,8.73919027331192,-4.716173122376898,-0.130107800036536,2.2712540930991953,-5.076797253279068,9.852793371529328
1.7212499,8.656989252688682,-4.790255476148333,-0.11774415674555382,0.33565663072231056,-5.36920273477615,10.30976919970412
1.7312499,8.582122145256719,-4.788319419334313,-0.08583839220480856,-2.0434256223991616,-5.44020750285988,10.715585406514311
1.7412499,8.494738966736156,-4.796414494980013,-0.01835310261812403,-4.320037293825244,-5.106708667132127,10.760171369704064
1.7512499,8.401419082616583,-4.8526649537492705,0.021164330219987947,-6.3799269570244785,-4.458593263867393,10.708087597168575
1.7612499,8.337024737572856,-4.902837660725251,-0.017233024468456374,-7.912692840972781,-4.029251716435946,10.85073845037281
1.7712499,8.258946543801137,-4.944729015431654,-0.07665234030764867,-8.847903838291634,-3.4839887703040144,11.180244743184351
1.7812499,8.155154019010542,-4.960258124364604,-0.12761616248264634,-9.625981782428184,-2.8293216964435954,11.468324396154081
1.7912499,8.125132567229347,-4.909732021240944,-0.19710153470777123,-10.524545174354012,-2.0387048692803353,11.691176412560129
1.8012499,8.15852289744394,-4.827258567303748,-0.2550428775497724,-11.760186773191043,-0.983546219940984,11.728204139417553
1.8112499,8.176068308158126,-4.758548785350009,-0.28110845385940697,-13.25493390730574,0.4371464389836386,11.738294731740076
1.8212499,8.188132303781485,-4.68919261381023,-0.295542098004909,-14.915233921933261,2.1070588518654945,12.065640498288314
1.8312499,8.269271315784442,-4.625233099950159,-0.3009218478111099,-16.255784134053084,4.078656626690077,12.56084156022009
1.8412499,8.334119192975638,-4.5430099649242885,-0.34998670881839766,-17.351846501536404,6.36341662308083,13.12946954649553
1.8512499,8.356606785274264,-4.472314808250897,-0.40069763753053483,-18.004480716002377,8.300055470086042,14.047640620470496
1.8612499,8.430783828783634,-4.400141470918087,-0.43111663183386956,-17.956921072521183,9.750026952861855,15.453489374724166
1.8712499,8.501601056580897,-4.258957455475731,-0.462012015844765,-17.524233430526785,10.866098998825954,16.906003698938086
1.8812499,8.494796898671199,-4.126348601781586,-0.48206974548356907,-16.92755608114662,11.600972276148525,18.440401331469968
1.8912499,8.481703163483227,-4.016587078096235,-0.49254024049749917,-16.28117725573971,11.91312966556826,20.21645667371973
1.9012499,8.5609089681681,-3.8803672934551594,-0.49522151148541493,-15.775649130609949,11.64212482828609,21.82191393966942
1.9112499,8.666785232537322,-3.7630908507119796,-0.47597878061266247,-15.007266535111956,10.898622574400246,23.39499547028193
1.9212499,8.714437927194544,-3.6793636325791,-0.42261284051191744,-14.227618604461936,10.03361250191437,25.385993149779512
1.9312499,8.709272145510628,-3.5985548805502288,-0.3294917412509101,-13.582777706908765,9.00041669046995,27.707757844007162
1.9412499,8.677635666622795,-3.508125020634021,-0.2504492792603687,-12.938381689000751,7.500647550847826,30.61025662814965
1.9512499,8.454043864785366,-3.4129730733953543,-0.23578848298361146,-12.456875575686315,5.162298908751615,34.38770701247852
1.9612499,8.019214231371105,-3.3865740283855064,-0.33741086730759173,-12.527443413772069,1.7130385378221582,39.84927847182744
1.9712499,7.67402349995495,-3.4292370754784596,-0.5490289428970104,-13.139736608548136,-3.0494672961743188,47.259173769454065
1.9812499,7.468059560287899,-3.3572737424311385,-0.7922207470434518,-15.07427176943008,-9.018505740872858,56.04808059276411
1.9912499,7.3089819261248055,-3.133593140222727,-1.1163647984681455,-19.758662211871624,-15.661590160496507,66.06180706501027
2.0012499,7.228855949414942,-2.8805555147102027,-1.4441379367708052,-26.796468920138626,-22.263371828100702,76.14191997402193
2.0112499,7.310320332626089,-2.64645274935898,-1.625805903976414,-35.79081169735507,-28.50721687024173,85.67641715541517
2.0212499,7.536761322368518,-2.476330774026001,-1.7362682867214783,-47.18997496204954,-35.25527788981877,95.3458475452091
2.0312499,7.751679221755547,-2.531312775903233,-1.894494425557942,-60.1904611645857,-41.756222257021705,105.43474429188392
2.0412499,7.83200899939634,-2.8660291876359665,-2.060554911888552,-71.79903014031818,-47.70932440674386,115.18239055254801
2.0512499,8.078473905982976,-2.975648617748762,-2.0630817187569366,-82.9447042778879,-54.19813641665332,123.16006257515586
2.0612499,8.563318492176592,-3.0508311045481755,-2.1382312863577786,-94.0283644776352,-60.552712786088804,129.21160245164785
2.0712499,8.982326672145998,-3.586017475318568,-2.5966892431409736,-101.73624803414666,-66.19487015254508,134.0577383331232
2.0812499,9.646900464703286,-4.049553202276711,-3.2087740041057353,-106.75567884878879,-72.92844019359623,139.23027654709216
2.0912499,10.979019653626537,-4.024870199581232,-3.870630119842597,-112.67821868802731,-80.66152506881568,144.21503255148176
2.1012499,12.90843317070613,-3.728124912905043,-4.6062687165624485,-119.63703760770333,-88.2668288077478,147.2510503196911
2.1112499,15.828083124963488,-2.694037911998863,-5.387778601246061,-129.2459095764215,-97.21207719587949,147.02968442639454
2.1212499,20.981194036663396,-1.0791310646020358,-5.782712850112465,-144.04300714967886,-109.61464930042096,140.54298872249635
2.1312499,28.47246685427504,0.5528202644709007,-5.454574397330524,-166.59248542702886,-122.53793165171179,126.43582580062015
2.1412499,35.78300852861214,2.2707228124391623,-4.412452634708906,-193.94155233545482,-136.019836974097,107.42613887952703
2.1512499,39.87635640820455,3.9272602985496965,-3.049720001941962,-224.57960675888532,-147.18498714111942,85.57680664960641
2.1612499,39.32119625163444,4.1811528604313475,-2.3235641781128984,-257.33817070213655,-154.24231490406856,68.06462303703945
2.1712499,36.23676920425059,3.408676847908919,-2.7216350943768775,-288.3444124588083,-160.92894935928453,61.726813688310784
2.1812499,33.31110362950923,2.530437902197751,-3.8016490269359213,-314.1741358031912,-166.74522931693005,65.27859738594654
2.1912499,29.77836455721227,1.2120288845055815,-4.590268967384114,-336.40419551420086,-170.65417675759196,82.78991320504932
2.2012499,24.646593914407095,1.3003137001105332,-5.010735582719637,-362.608670530077,-173.58383737018684,114.57258772991274
2.2112499,18.692671487498895,1.8211453453181639,-5.074787793950532,-394.5126944905582,-175.6824882776172,155.0943432306587
2.2212499,11.239892905171917,0.7042870359987244,-4.383560720983528,-424.21410588802684,-177.80095334472966,202.30425003819775
2.2312499,1.4199021968322794,-0.058166811147281366,-3.438717637261474,-450.336230249469,-182.5035408281535,251.52329532891497
2.2412499,-9.407736680818523,0.0088458086705313,-2.9185338852188796,-470.0949944588993,-187.0171947275539,297.2875191730511
2.2512499,-22.138924109735502,-0.6070936661766012,-3.4066734166641273,-476.5986650070615,-197.42283471724159,343.2160194312856
2.2612499,-36.007491788132484,-4.324736343710165,-7.39696393102777,-456.4546637752522,-213.95029105461742,389.97519454548427
2.2712499,-46.756717572086075,-10.71093323928477,-14.051376529798368,-402.26899889482314,-213.33600746982015,427.46028020453315
2.2812499,-53.77511905308335,-13.84169431441853,-16.96757459056127,-337.0423894501723,-178.13048256821762,432.0892108327767
2.2912499,-52.35829607265271,-14.512144936965605,-13.53601782173725,-245.95386123728534,-104.64484636102253,381.6506445697707
2.3012499,-37.54158162821821,-14.431350088141036,-4.99615783231583,-130.67045418682684,-3.391872309406633,276.3707186721915
2.3112499,-23.808018647377786,-12.558888239396024,3.710150949595841,-15.755059953025409,72.04181805561016,131.70160571964345
2.3212499,-19.268204214990902,-11.440540185703274,5.441537080891819,111.59377119254614,95.40353348129838,-29.16681315757042
2.3312499,-17.636032610393876,-12.21056030228642,-0.44235940338920055,243.7077871938095,95.67762134790142,-168.4636513967915
2.3412499,-20.952087630543755,-13.078578437740921,-8.144576736805702,350.18789871797003,82.63860013082429,-248.19104198528086
2.3512499,-26.12473534451004,-10.832289850222827,-12.95335164022039,398.01008128918625,63.701999782815044,-264.36104813246664
2.3612499,-26.377063617520957,-5.613285856684269,-13.765311932026666,387.82248124235576,44.67527492513095,-245.12546609580986
2.3712499,-21.383215778639777,1.0428162974983959,-12.664053599119452,336.0306433178917,28.638993528717062,-228.07653875370582
2.3812499,-14.973616519029456,5.357438252164001,-10.983435993251272,264.9663113127927,19.314010379724415,-229.90435618114603
2.3912499,-9.994667429118097,3.9986965898027322,-8.510403258729784,196.92670386125457,19.29277563723262,-235.7095398665034
2.4012499,-6.784322765221924,-0.09364203280860452,-6.751404708036394,141.48761313171343,26.316119411626214,-226.77167250056087
2.4112499,-3.537914061119532,-2.29365334706256,-7.259915741088103,97.45125092479445,36.229121573565166,-208.23002193531696
2.4212499,0.21580447682241383,-3.1762056016221734,-8.40750527741026,68.93159276954066,46.58594184735472,-190.3540920671538
2.4312499,3.451422598840028,-4.048032248298354,-8.840650340520284,56.93278888415551,55.92504685947735,-174.83811696848772
2.4412499,6.296308509582513,-4.656791432476014,-8.550720205224726,55.43282158525123,64.5515919223373,-160.84304608157842
2.4512499,8.596599647296157,-5.0643444811801,-8.007262040305193,62.41126268193084,75.51828817588466,-149.01007846731832
2.4612499,10.026313981809333,-5.5784011612240425,-7.843343100517631,78.90285513869388,87.49486644185464,-139.2664791917849
2.4712499,11.153778137733992,-6.371167395797855,-7.39152046020351,102.96639281828602,96.8841877849996,-128.64049978577006
2.4812499,12.202509369963366,-7.223506486093253,-6.4916978424153635,131.1374533690072,103.05555432924068,-113.56930599294903
2.4912499,13.018997742059256,-7.619209305453901,-6.5954412139636105,159.6878993889265,106.01086513809734,-95.86567185173165
2.5012499,13.358086410607056,-7.234770503953255,-7.622245080017603,185.33819330405817,107.05593459392077,-79.20805795144486
2.5112499,12.993986751057848,-6.182395685606898,-8.438140699181751,203.75943257268938,107.08941214362076,-65.66163085226232
2.5212499,12.711454744150192,-5.091473673856008,-8.946530456216697,214.50873719276316,106.95352899178899,-57.93108710948687
2.5312499,12.771724466587228,-4.475652611267906,-9.169415231665782,219.4484846535919,107.70228020677767,-56.712814161720864
2.5412499,12.486544615837776,-4.143718728287573,-8.870066826905004,219.92850319164353,107.87875630797015,-60.87404346601821
2.5512499,12.42400199706209,-3.833843835726628,-8.563443622981474,217.32055278591295,106.73031908213714,-68.71725930251296
2.5612499,12.623965746074877,-3.9054879061855186,-8.445865755161499,213.40298731007158,105.54938166012737,-77.4351000423925
2.5712499,11.909464520110536,-3.9712739408999567,-7.996047076775336,204.77950283399716,103.97598219807679,-85.88266530455878
2.5812499,10.874730794106979,-3.8345643761044643,-7.582674806544273,190.9952034925965,101.64259178161377,-95.02890864309296
2.5912499,10.423384675750869,-4.091400050082945,-7.507435047917994,177.192283865824,99.3630578474251,-104.7807484955188
2.6012499,10.0095285114738,-4.660504295135321,-7.091538155596668,163.03236447192566,97.37594207850454,-113.85519177235217
2.6112499,9.509543854527841,-5.536226076151039,-5.9623839192450925,148.69216500534034,96.4957332611973,-118.44877924367267
2.6212499,9.00550615121109,-5.991851427730164,-4.8414383562253835,133.2563689548875,98.48937069420708,-119.22027226025038
2.6312499,8.333436717341332,-5.870614482129363,-4.416539925117352,118.74621976692592,101.31718413379781,-121.12026028563588
2.6412499,7.820730900311371,-5.974839461765699,-4.181326898294336,109.89515497756138,101.86995053026425,-124.84694419609433
2.6512499,7.565028858110134,-6.224826271099607,-3.588138466651338,107.58176360444975,100.71440031866643,-128.61763426041546
2.6612499,7.0819188249734815,-6.1490204025790005,-2.8668362673429,110.00061658805721,97.43645639593298,-131.22230888880156
2.6712499,6.512761802407001,-5.547123121495305,-2.3842257099664157,115.86836248484822,92.07579062235634,-133.79461164104032
2.6812499,6.233466993395218,-4.7867240131004305,-1.9911592559762408,124.97805699879359,84.90601630956925,-136.9105262847879
2.6912499,6.41797174962723,-4.321926951085403,-1.378615929620265,135.54850009758326,76.22375318057625,-138.00448344881704
2.7012499,6.985854632125014,-4.110921591109586,-0.6024631998321657,143.51629223644665,68.41221506033799,-133.18636771005345
2.7112499,7.459618185493372,-3.75486763651535,-0.09672903398481923,144.77567160093483,62.86405005281174,-122.4493032043945
2.7212499,7.575135443076738,-2.7976371698923894,-0.32970602509474656,137.31130849376535,57.833355863327185,-109.04934275877713
2.7312499,7.604345677888572,-1.6108280670882578,-0.8847363172040777,124.0673069291731,51.77321310247689,-97.16697513439179
2.7412499,7.64432949199915,-0.8831041077277035,-1.0530817702304656,109.66130538630783,45.49581417263366,-89.00006343271413
2.7512499,7.42404570271596,-0.5345495046837851,-0.896624858531575,94.43535446086162,38.8566990335859,-82.93529928232014
2.7612499,7.0990723444237736,-0.4724086135289767,-0.8929916888181134,79.01599686440639,31.867329423947684,-77.63580837966299
2.7712499,7.0528359133908,-0.5968347983253411,-1.2757696998869303,64.23578690605738,24.61140793704332,-72.5546330651938
2.7812499,7.273605989509035,-0.8782091867751018,-1.589971224889482,49.22817339435047,17.7019608314367,-66.0400323195173
2.7912499,7.633435722400809,-1.0956098153398588,-1.6251176837459451,33.3721872813434,12.25567204713276,-57.44506096853284
2.8012499,8.0346013789078,-1.1234998580809927,-1.4789181018995383,16.62903616792113,8.865104327098717,-48.33426390547049
2.8112499,8.36998648254369,-1.3222619873826507,-1.123682170797995,0.9367778293008042,6.915072737924101,-39.687115026560505
2.8212499,8.57047943368783,-1.619145142559404,-0.8721684687005063,-11.406685435127157,6.207359530526373,-32.09809220337117
2.8312499,8.551920485709656,-1.8705130766942166,-0.8224864486553293,-19.712032317419233,6.09812077133311,-25.981544559405126
2.8412499,8.502287596183525,-2.2409495172287044,-0.7513848109447827,-23.881687802480712,6.307292151739672,-21.105989158661014
2.8512499,8.554548350491189,-2.5932452255779674,-0.7068698381161213,-24.27772679561374,6.888008169873283,-17.203990319153327
2.8612499,8.665919270617342,-2.860895108891056,-0.6988135528445305,-22.065901301914327,7.759117398281434,-13.74160671212387
2.8712499,8.852564566810578,-3.0048642626403224,-0.6113722652151333,-18.9750236084867,9.258813251241856,-10.235056244790618
2.8812499,9.253828059934687,-2.879009643279795,-0.42155919005009845,-16.488222596943228,10.937632921528786,-7.34831598883643
2.8912499,9.746989651209049,-2.7824445213079896,-0.021963833671917243,-14.446314987640429,12.793656351911675,-5.460176215339038
2.9012499,10.100857325044927,-3.087289182911101,0.44416113343532954,-11.594576393399496,15.154544241868539,-3.541180868411396
2.9112499,10.472496842062863,-3.6275475022526265,0.7092880496166759,-6.834081613641923,17.465153663638596,-1.3289810020666517
2.9212499,10.723193811204096,-3.9776395475064557,0.8358272031937972,0.3973883622005554,18.449203492720745,0.40831844138962764
2.9312499,10.674106045803528,-3.969209672646713,0.8997417472436317,8.479846630264769,17.71160906400427,1.1994395478147677
2.9412499,10.637575210021522,-3.828547953890552,1.0278449153892744,16.331301616962126,16.284186182255578,1.022931857027576
2.9512499,10.624544186675966,-3.644750814636409,1.1180694834161025,22.893731429172078,14.17715987763679,0.1597321060209805
2.9612499,10.532592034547147,-3.3668360910954247,1.111113457663903,26.5074009948593,11.743945101976555,-1.1029354943531116
2.9712499,10.428082341719232,-2.9829341746415534,1.0576719442377869,26.58023279363679,8.835938807863537,-2.651814210219964
2.9812499,10.388794521943263,-2.6448260436766255,1.0640886353840981,23.161629159937306,5.484016996508437,-4.380912724487322
2.9912499,10.316744922847784,-2.537973777332461,1.2254713073291248,17.14320043669374,2.1586002647974154,-6.073323014840205
3.0012499,10.26522751232366,-2.5498539851673336,1.407404441966078,9.530115121946983,-0.7744886282314026,-7.8688649797033685
3.0112499,10.385280161963069,-2.492091538072282,1.4731966116584956,1.059270426178703,-3.1324113981906105,-10.132530661583472
3.0212499,10.4221630920751,-2.4248533342027168,1.4459677251050047,-7.845911872933098,-5.455125400258496,-12.510738281755103
3.0312499,10.24711783034793,-2.4915394448743786,1.443148417384804,-16.142092904222228,-7.681446982803021,-14.84592328518926
3.0412499,10.00751072271968,-2.6335385719868922,1.4249811849052065,-23.118882879480648,-9.361919079977698,-16.69470834365909
3.0512499,9.724678183269532,-2.7868911503742826,1.3506361836971683,-28.895678926383773,-10.758391172736902,-17.931906612165005
3.0612499,9.426099931555356,-3.002382014516637,1.3228693860034588,-33.17988739648209,-12.028558368454183,-18.658941528668826
3.0712499,9.169554162983928,-3.100026360440667,1.2575816501919161,-36.03559997071336,-12.905917541565415,-19.17497196240835
3.0812499,8.94532549142144,-3.1253835067730362,1.1863040420586792,-37.766873554980045,-13.318698266200665,-19.645294114359118
3.0912499,8.826437616958865,-3.2633348661316988,1.1788438068987623,-38.239540179111486,-13.227513152000805,-19.86622652563741
3.1012499,8.767745798775039,-3.473160338042795,1.1797174629748546,-37.12014380806057,-12.466179433880619,-19.46713278790737
3.1112499,8.662253907434001,-3.643659596709351,1.2161979513715653,-34.00194256544093,-11.338482889721723,-18.49191924488608
3.1212499,8.555002189754642,-3.6378764694923125,1.313110056017438,-29.44592687924769,-9.843688998864858,-16.939342894126423
3.1312499,8.458617118416324,-3.5671526144002845,1.3867646932269062,-24.28941140435149,-7.828415859926284,-14.794424312702716
3.1412499,8.332169747055879,-3.5478550990069007,1.2774645142704337,-18.996196838421557,-5.764634913843247,-12.07909642452391
3.1512499,8.251588003711092,-3.4267558088283905,1.0909628405165386,-14.1302400951277,-3.558769096284921,-9.29548251975234
3.1612499,8.274206748564046,-3.262675313376942,1.0260220985966269,-9.614507070693595,-1.402568544556533,-6.680207306781175
3.1712499,8.394024005422953,-3.2484370426981015,1.0265725642698018,-5.734165326727517,0.8936435797021699,-3.898111448658661
3.1812499,8.499813919643051,-3.269737525715243,0.9542967408299308,-2.830443239861061,3.26788377010043,-0.5837230536827389
3.1912499,8.540901124471075,-3.1691418313176887,0.7528112457376132,-0.43182229503247865,5.121152463399361,2.472333648857904
3.2012499,8.588600057450975,-3.0531881633844065,0.4073757352702543,1.281760169793567,6.098365492945372,4.854097198864646
3.2112499,8.620520612241162,-3.0238709412273876,0.010377951971951729,1.7898690386526486,6.4370217472536115,6.3211005687220725
3.2212499,8.695918483651841,-3.00221650518539,-0.24159345492363005,1.708486343808968,6.205098764452865,7.077797135723915
3.2312499,8.905339696584013,-2.9257816111557466,-0.42229023507931207,0.7877362834537919,5.6404763801160325,7.234967719706033
3.2412499,9.180021367779037,-2.955778078708387,-0.5721242981798325,-0.6183100679590037,4.816892230730264,6.964855669180808
3.2512499,9.424057154031038,-3.0750699636390673,-0.651184243632049,-2.1576569876710985,3.8735705911985296,6.577101274933454
3.2612499,9.632917497709052,-3.145059534155237,-0.7428571507945826,-3.350598446585134,2.713449987393906,5.866798605581199
3.2712499,9.86037623772805,-3.2321593341139923,-0.777374164007584,-3.9229916531616817,1.1893301706658768,4.6681805364659965
3.2812499,10.053865688709907,-3.3947227202040935,-0.7662977380408919,-4.003194645924162,-0.5358272753813857,3.5967284080380337
3.2912499,10.159728844737696,-3.57151949324775,-0.8043926682891708,-3.4449192294094355,-2.4153015145034016,2.8002401965669828
3.3012499,10.201575089156579,-3.6827290188185984,-0.8254947998701564,-2.526749009234509,-4.430721889153406,1.840361727944067
3.3112499,10.175470407324578,-3.691371793515548,-0.7690860896710661,-1.8131576401350815,-6.239475356853305,0.5338200802561898
3.3212499,10.158746889296593,-3.6109770564713743,-0.6415974906066229,-1.7015276953277372,-7.482883615258765,-1.3229778466449877
3.3312499,10.204283420797388,-3.5196632581168097,-0.4986985633080024,-1.9496716108394636,-8.335572398728846,-3.76723572795079
3.3412499,10.199744174803888,-3.428918062789451,-0.33422322194312476,-2.302326119491462,-8.690154006164038,-6.320756233064885
3.3512499,10.036888529680658,-3.380451340466989,-0.17723482099834248,-3.0286472057693348,-8.78313288103707,-8.224557854377105
3.3612499,9.763390270799086,-3.3693650207273906,-0.11204702631717016,-3.4725765708196805,-8.80510333223421,-9.789794279664875
3.3712499,9.49588965673358,-3.2928638152752647,-0.12135145129955516,-3.2390935705686936,-8.847379103116655,-11.318312189882779
3.3812499,9.239135559497749,-3.2028336499673653,-0.14329642452023192,-2.674679881342844,-9.047609841127665,-12.42231034855306
3.3912499,9.016921299219106,-3.159712488583023,-0.10185894056953186,-1.9633827206975523,-9.254144569414642,-12.992454629916192
3.4012499,8.83002032090712,-3.1794074692176224,-0.03890609353857532,-1.0707115744889257,-9.112545575449337,-13.08318629002075
3.4112499,8.657146485573179,-3.1652160204717705,-0.027502827172055943,-0.0013754377691541295,-8.631603330798646,-12.70303328182433
3.4212499,8.566474121466374,-3.094437381354764,-0.04096479355847963,1.4159749413244822,-8.06240063265158,-12.093398205505483
3.4312499,8.554304133551021,-3.087701160273557,-0.021929353147766634,3.6236981808412643,-7.135963102285476,-11.121915601078678
3.4412499,8.519040548417841,-3.119773820779718,0.018225663868758193,6.620439567353584,-6.0787835180326,-9.603878131335271
3.4512499,8.478747099823044,-3.0740290245557964,0.018624614748483374,9.86574495395653,-5.204352314927591,-7.40513910386437
3.4612499,8.458071161504089,-2.981565652208684,-0.02372690999000783,12.684333606988343,-3.9532679822489762,-4.901809364050736
3.4712499,8.394086173608512,-2.907198076775609,-0.10643682769912537,15.135758190270288,-2.651489657540637,-2.1573608978883945
3.4812499,8.36156780822483,-2.8565537513076733,-0.22173122854643051,17.25666133044459,-1.6659218333577126,0.9618530183466277
3.4912499,8.388678247574672,-2.73642041447907,-0.3294936702312521,18.308731136778654,-0.7707162572607448,4.04577597361976
3.5012499,8.448460926423579,-2.6478659963220395,-0.4085103625850871,18.174141243309634,0.26381029967721353,6.853396702296509
3.5112499,8.54787998913417,-2.70590579473901,-0.4582215807862073,17.40588426787949,1.1196779661849976,9.509809106141546
3.5212499,8.696778771032912,-2.7755514355485076,-0.5108224285511218,16.34043089013651,1.7828352232135403,11.604498587462732
3.5312499,8.852057528139389,-2.850934753799913,-0.5538464576163539,15.452421374652994,2.1451687087457496,13.038806028141483
3.5412499,8.963265432415785,-3.027715819496309,-0.509530571005139,14.898200612199455,2.2032060902258364,14.317601398090739
3.5512499,9.032603240651829,-3.2615193597634153,-0.39923750081922743,14.831735382507663,2.168822389942668,15.592356702094554
3.5612499,9.090894373463865,-3.480338645319716,-0.36387253787124846,15.392307939695824,2.045907222943618,16.843440123535355
3.5712499,9.131584246630236,-3.6544778610462343,-0.4011759247986614,16.0457641652819,1.7548802625484292,17.95266343548891
3.5812499,9.15980343586296,-3.7771646410508457,-0.38984077678062423,16.41909830180914,1.2379832279604264,18.633439056241613
3.5912499,9.18882789721405,-3.8373408080091695,-0.3011139508199222,16.184010926282635,0.7400347133987687,18.794144250834876
3.6012499,9.192428963569148,-3.887696748711348,-0.2453844116143542,15.188713795173717,0.34185509691169014,18.42790630050213
3.6112499,9.153646472975092,-3.8867354549090236,-0.25458032434286393,13.465220352795246,-0.17986070553189654,17.684162137599806
3.6212499,9.142845533816368,-3.824568789404438,-0.2508014515802484,11.08938357602656,-0.7519058670826179,16.212777794847696
3.6312499,9.14525935095079,-3.871045010571099,-0.2499186309168707,8.474723238956155,-1.1849957776000966,14.122866873408148
3.6412499,9.13896089027077,-4.016106958921563,-0.29284573350757764,6.029338178061286,-1.1867922371631587,12.18700791167064
3.6512499,9.093265872213438,-4.164032256506918,-0.341522082815922,3.7798262229203,-1.20768913328674,10.458550829090212
3.6612499,9.07039983163274,-4.3412912091074025,-0.31175428462814636,1.9942625646352643,-1.4707278560846575,8.844818874842808
3.6712499,9.104793712092619,-4.587318529244574,-0.2661414936418176,1.311097803219412,-1.6039340342226276,7.307323302733399
3.6812499,9.165764158035303,-4.908263521862693,-0.21082360435111658,1.3258944911082837,-1.4128940456400327,6.619768862343663
3.6912499,9.21495225634338,-5.126427308992713,-0.1287269837720207,1.4318461780809668,-0.9285086018849716,7.309088038518652
3.7012499,9.239667416806812,-5.044842834579189,-0.09623053547210875,1.6147959322445455,-0.09518580490236936,8.157747216611492
3.7112499,9.230045447352028,-4.835663574233373,-0.13066107204125393,1.3364883432838854,0.8679063338451877,8.642734037838904
3.7212499,9.145855863257788,-4.636151925631928,-0.2081018135780596,0.31920244223957034,1.4500939250823446,8.857231767966063
3.7312499,9.054708446507982,-4.367090049723188,-0.30492614904734955,-1.0934401749927352,1.718575815800435,8.194257454906598
3.7412499,9.03091304559292,-4.190470019132731,-0.3873486048019575,-2.96677573382931,1.675345911259406,7.281760104427948
3.7512499,9.026424840768707,-4.140950678557647,-0.3490174688749817,-5.335600646227992,1.6453787389756624,6.932992249637268
3.7612499,8.973204985012202,-4.054402839665101,-0.26819031617049655,-8.252826770398626,1.861644563907427,6.982767621113951
3.7712499,8.88511949276171,-3.9580881143274795,-0.24997237967203423,-11.397548303954078,2.0674038924600113,7.0812622668255285
3.7812499,8.821646123793196,-3.9281302293986298,-0.22821015022255176,-14.356681284379942,2.385617451595111,7.033844499963442
3.7912499,8.75425856932521,-3.9468332583161776,-0.1723631327568262,-16.570806185487733,2.697486224513085,6.938305836501914
3.8012499,8.677996706893186,-4.01922506280503,-0.10145021021911584,-17.85428665309169,2.8685609838364097,7.040433082986446
3.8112499,8.626841920213193,-4.1015594929388985,-0.05754674997420208,-18.575937223997162,3.2014198666675022,7.496742462188011
3.8212499,8.584579395740374,-4.099856017235586,-0.04076252076421378,-18.630250556311818,3.55079327915924,8.165645139015556
3.8312499,8.537411792995972,-4.023712807965313,-0.017284217326427473,-18.23172010127642,4.009906942185807,8.8414402901923
3.8412499,8.486617739638485,-3.9248119152250225,-0.03935856175091958,-18.21354104861653,4.847244845298213,9.498492139081165
3.8512499,8.460481450667892,-3.791507607054648,-0.08153453506674106,-18.87280772145846,5.873807000097042,10.427085567777283
3.8612499,8.446089349317948,-3.6582303749084293,-0.12055452252668597,-20.185833871889155,6.938690598255165,11.498438742614402
3.8712499,8.429285551917443,-3.5387825682330774,-0.14676165809667602,-21.805013888534695,8.292985331130456,12.683080717544263
3.8812499,8.456034044010272,-3.4917890676560144,-0.14931596971337238,-23.35635944992982,9.689289673621303,13.955872285932498
3.8912499,8.506034710370772,-3.5488911872225115,-0.1560508056225156,-24.214644065366226,10.729232647515103,15.322480502674521
3.9012499,8.549873887912762,-3.6569765200433033,-0.15779828916891642,-23.826276989457575,11.492508815105008,17.050406604434386
3.9112499,8.550402519912486,-3.773649234797493,-0.14064024591619995,-22.083937321142574,11.696836898956509,18.941679811980386
3.9212499,8.545149563478763,-3.88190164778293,-0.10823389719696072,-19.59902902201927,11.511627048298573,20.700726359078427
3.9312499,8.586923732547039,-3.93332547972094,-0.07611592347635583,-17.13240953167488,11.267146623736737,22.301102103558677
3.9412499,8.634700890511379,-3.935943759963739,-0.03956092409498004,-15.251948330210919,10.65521611274918,23.655358788675944
3.9512499,8.651000314441754,-3.962270470502354,0.005772146198282056,-14.632432952338782,9.93326666270949,25.017425834678583
3.9612499,8.622134886915703,-3.960143487194045,-0.024118182450808514,-15.443897317632196,9.210900786358335,26.559825447365785
3.9712499,8.592756352484649,-3.8823467493964836,-0.14570511288072863,-17.41818430871071,8.039942767552146,27.927876539283986
3.9812499,8.538529235253957,-3.8305403074010242,-0.21308173079596854,-19.997054242996747,6.429989494064581,29.15620174307491
3.9912499,8.396532003946813,-3.8230077073590287,-0.2033787964219404,-23.142711169850536,4.638923360172933,30.646835988140932
4.0012499,8.243965818441918,-3.8035756291865948,-0.22295077193097215,-26.864627953234006,2.42578458368928,32.62400114278992
4.0112499,8.139923257369935,-3.796730386330858,-0.3455233837311402,-30.408390731857125,-0.32585495711102286,35.03771260524859
4.021249900000001,7.981751197453534,-3.81078413600221,-0.4927644913653266,-33.20871269554759,-4.018158948980792,37.726957770850476
4.031249900000001,7.7248761643577435,-3.8483905455885705,-0.5616900302390313,-35.57772402064135,-8.740759908801737,41.063446534750845
4.0412499,7.450178644737618,-3.9021562481905407,-0.633036472849123,-37.668496157400455,-13.64123871880127,45.04327023894614
4.0512499,7.268403313707258,-3.909606796981435,-0.8226739044022575,-39.26391527928797,-18.791898903568224,49.66373287477303
4.061249900000001,7.159762316798759,-3.8956942709731894,-1.0165090423710608,-40.90606414036697,-24.35265455242315,55.375672318946705
4.071249900000001,7.067698573788365,-3.904137150736086,-1.1060944763567047,-43.26136911038383,-29.41160777337027,62.13950216756688
4.0812499,7.142276721658606,-3.8969816743716468,-1.1956617554827902,-46.04912153396672,-33.710179524351176,69.6672683921269
4.0912499,7.410654538974273,-3.852458404190096,-1.3338480883631094,-48.92963199550415,-37.607404375426526,77.48210471218972
4.1012499,7.5401651625743575,-3.917723091578069,-1.3902139452432623,-51.60670686874325,-41.493677195269484,85.48897946427755
4.111249900000001,7.530510497807646,-4.105803612202339,-1.4519480959432849,-54.17358712561392,-45.43616151303603,94.45060093215068
4.1212499000000005,7.652286347670445,-4.2474076444822115,-1.7205399133464354,-56.97044773083271,-49.45609233469725,104.46042497009473
4.1312499,7.854916705260555,-4.334833124335945,-2.095002795857781,-59.5932049822166,-54.139411618930644,114.72044856697244
4.1412499,8.010269713346823,-4.333106721598963,-2.398579659667286,-62.367521817441336,-59.55221833202715,124.48993449095158
4.151249900000001,8.322240701989074,-4.29730024331189,-2.620424224532947,-66.09961025644532,-64.87185719431496,133.3254485643714
4.1612499000000005,8.975857116809472,-4.347036770663126,-2.853442400375559,-70.96267791153134,-70.31859606943658,141.06601040679124
4.1712499,9.758747853961061,-4.3238359573334755,-3.1642038224939846,-77.23732777715345,-77.30999962443903,147.4568617531107
4.1812499,10.608001410691172,-4.074603941311459,-3.593385185483691,-86.00136304619596,-85.85707258262062,151.77895632661605
4.191249900000001,11.872792800980546,-3.8055700000559525,-4.154705477804312,-98.4029074241528,-95.57065439595765,153.77957205636287
4.2012499000000005,14.22525228630353,-3.626600461492586,-4.908243887207314,-114.96476493767638,-106.37672500861594,154.09863890150658
4.2112499,18.119041170138033,-3.133384448158954,-5.855265804980646,-137.84600909855854,-119.95297933208421,152.37123140605985
4.2212499,23.67069318222145,-1.9603875721759176,-6.9076248482979565,-169.26030935167086,-136.10249517248872,146.08448175327084
4.231249900000001,30.10564845329659,0.3756897080068915,-7.833413857927532,-209.8601978619256,-152.98385497340965,133.33639809107734
4.241249900000001,36.53392590509096,3.3777148466138853,-7.97706551376512,-255.79449797866175,-168.44332543000806,113.46189908869862
4.2512499,42.85631894185962,4.192012330274377,-6.7521279161728165,-297.3383498797215,-173.70964971936834,94.1782804597465
4.2612499,46.12963170459593,3.4810635312137848,-4.39619116893873,-336.1351092453629,-166.964365615685,86.72319924459832
4.271249900000001,43.82852862491411,4.553408829812442,-2.1975458713093614,-375.676446062038,-157.99384075477252,86.51924874850205
4.281249900000001,38.83407070876742,6.787182266473712,-1.2851136498623674,-413.11434636919984,-153.62489925210824,86.21083785590805
4.2912499,34.04268611364907,7.793892310650498,-1.944411007762333,-456.18860516021465,-152.53273869073234,91.55973847406464
4.3012499,27.611131574169878,6.939546503747511,-3.5669555950037792,-494.49090913500066,-156.18243385985713,107.8681674925197
4.311249900000001,18.014223398522702,4.331816377256644,-5.633569766605842,-501.4978535701242,-169.38501161842075,133.26032766730617
4.321249900000001,6.672244487093357,0.8642214661107217,-8.58541946885462,-499.6950075891959,-192.43638169005524,165.00370147554545
4.3312499,-5.112647746649221,-2.5170786127300584,-11.554542894157038,-499.7711682609217,-223.66082172827998,202.39633629639198
4.3412499,-18.852367554294602,-5.648186041449343,-11.402036969470258,-499.19643073546575,-261.4736710763882,254.7244156399418
4.351249900000001,-38.026035143537484,-9.912100615116747,-8.304283021643572,-504.9804135007568,-312.97812781864087,322.29953311324124
4.361249900000001,-57.35877659053912,-14.973232415672815,-10.509071355032162,-462.7523905895196,-338.941665558989,376.61444983802147
4.3712499000000005,-68.65989894599369,-16.966412079174468,-16.829453164180617,-351.78103716448925,-300.7604795188179,400.71583043399886
4.3812499,-61.08340543870938,-18.128253116593523,-13.930921989646443,-216.49608404482154,-216.95427732472018,394.35596699591446
4.3912499,-32.3189774430162,-14.206592314643324,-1.9256959575505845,-87.40209917864709,-74.1905894852788,323.48614769640716
4.401249900000001,-14.86315051710234,-5.19585197288741,7.489189087128087,9.514258114393108,59.26064687243035,182.80115691257822
4.4112499000000005,-15.498006319789209,-3.7248914726426077,8.957433392282152,108.92139803098874,107.913818009088,27.36741036044586
4.4212499,-13.272869432982535,-7.698091734652318,4.864201879590336,230.13469174865682,125.36268030221184,-116.77036056160075
4.4312499,-14.632449942961124,-11.560281961096337,-2.6850676631695274,359.06407324207106,124.76854047831159,-221.22409694479794
4.441249900000001,-22.355055027752282,-11.884894296209941,-10.4290986992487,452.4723926065627,103.7980795680638,-263.099966498687
4.4512499000000005,-27.575464105704967,-8.64269153888153,-13.650532314068704,493.5477555248968,76.94425193376361,-255.8832505847525
4.4612499,-26.67314338054621,-3.0786448751599886,-12.87000627165599,490.98887259557773,49.29622874056407,-233.3418527105856
4.4712499,-20.91537619280052,3.2230203212407655,-11.299046795044395,450.14203716389346,27.46022809376503,-219.80404056708497
4.481249900000001,-14.712766575443244,6.8363451340618235,-9.865056682460018,385.5586614474525,15.774708856589397,-216.3061509860506
4.491249900000001,-10.552224052198317,7.049301910938155,-8.577941846681588,309.57598715396983,13.10645739719067,-214.0513473497691
4.5012499,-7.383228296213728,4.78866559164443,-8.260860293889328,237.48089183353147,18.537996268307083,-206.71445602632986
4.5112499,-3.8584870798068707,2.058694079685313,-8.735449253364234,178.79677449716755,27.778701721539584,-193.05178647217534
4.521249900000001,-0.5617130515317638,-0.20205801540016916,-8.992851543212508,137.4250244549736,36.03775528966661,-176.3605930937808
4.531249900000001,1.8451563834372566,-2.133393922705918,-9.09548327586085,112.16538347553785,40.990023016632364,-160.55074104069425
4.5412499,4.486493205042882,-4.47438857023258,-9.049773232639176,103.10721203826952,45.28738766828712,-144.25829986836413
4.5512499,7.514872819382937,-6.555321690395131,-8.592444414504845,103.88817996009068,50.3112496862652,-123.46851609959538
4.561249900000001,10.354468037188994,-7.531916835305233,-8.13628724465613,110.02739814463017,59.96474013810438,-101.02638307120732
4.571249900000001,12.065781637055553,-8.227777391047931,-7.589176071989264,123.65640340593598,75.9930482560021,-81.11811185933897
4.5812499,12.602220649067108,-8.532728448834783,-6.771950550290234,138.1533193507628,93.3807919515717,-65.72548490216212
4.5912499,13.18799593340051,-8.774556037947786,-6.407498901489885,153.35842758653024,108.07350397641562,-54.99679941710359
4.601249900000001,13.754055004946833,-9.11136551331369,-7.141716417692595,173.29201912281985,115.24022170252108,-49.314110338569655
4.611249900000001,13.475684669180271,-9.316402367135598,-8.230718975211857,196.3836755591314,113.24406002993399,-48.3988480445022
4.6212499000000005,12.52195147805293,-9.184592950877912,-8.876473106884971,217.96828601193292,106.91133567657661,-50.6156464293499
4.6312499,11.568058741366347,-8.838546379488005,-9.12963248533775,236.01445311330625,99.73025409958305,-55.68858397757624
4.6412499,10.946504112286544,-8.520883172523476,-8.858673923510244,249.3670312782253,93.84706845140757,-63.215479141067874
4.651249900000001,10.553231414792034,-7.958068395172727,-8.300657067593404,254.0766192628981,90.36995733683736,-70.67368231556007
4.6612499000000005,10.558633475150843,-7.244321845130121,-7.846957082583902,249.37315944206566,88.68619044596274,-76.78595994443495
4.6712499,10.897934717413088,-6.536660687528962,-7.45679218401376,236.59200550607028,88.0835333085184,-82.2210636947799
4.6812499,11.064473988132537,-5.865883093425857,-6.86394047701543,217.60026088599523,87.23348937512631,-88.05460460630752
4.691249900000001,11.06203951312077,-5.380768488375176,-6.223559910172553,196.27767858899702,84.5917162111542,-94.37584624456944
4.7012499000000005,11.140936859792683,-5.18037708130962,-6.2152574970176735,177.96061575255092,79.36250347843595,-101.73034359563638
4.7112499,11.068306472617325,-5.32986178882005,-6.396415878975563,164.58775775055096,72.74091351384774,-109.00757976332582
4.7212499,10.557556630581944,-5.76121170007322,-6.089849428772563,155.35066795247485,66.48972496472366,-114.12741273530442
4.731249900000001,9.800341683667453,-6.098414933975415,-5.409547545757988,148.57085100123774,61.474798928589244,-117.8480936050648
4.741249900000001,9.124260391994643,-6.126645508584651,-4.59605509107214,143.42223652032638,57.431416531008935,-122.01400371094608
4.7512499,8.758850094551919,-6.125899526162707,-3.9235347650025005,140.8305610293747,54.06513447210586,-127.25011888891119
4.7612499,8.554463223705937,-6.227884582663555,-3.2034829624334695,138.7530752292065,51.607463623956285,-132.55940290854303
4.771249900000001,8.313598489387974,-6.4903428507799505,-2.483310074175814,137.14586318045426,50.34375879709577,-136.54795793177206
4.781249900000001,8.148692663186116,-6.5177534079177954,-2.104957193477443,135.31764351928123,47.9783875369969,-138.11154907065108
4.7912499,8.118477003513602,-6.344680393848679,-1.8329803430071583,132.7920595016512,44.03565858213708,-136.95178054904815
4.8012499,7.975006537901875,-6.292278721392278,-1.6362639069540885,130.61444782430613,39.889283656292044,-134.29056047071305
4.811249900000001,7.638574415399825,-6.051222405188644,-1.412279703607099,127.537075136518,35.59946407559714,-131.23046342234048
4.821249900000001,7.462339873091232,-5.349020727085111,-1.095429763939082,123.21414337035367,31.439337951192883,-128.97627511211223
4.8312499,7.437807006254148,-4.402417351697104,-0.8555617183956857,117.94114826808175,27.411605359166618,-129.35875034167233
4.8412499,7.423965706551393,-3.7122037197454425,-0.6580674582985108,112.2297888786062,23.644034525079455,-131.6131063866712
4.851249900000001,7.504343720692603,-3.5739633005511533,-0.5844392155754844,106.18191994048826,20.269199577304853,-132.67300631788876
4.861249900000001,7.491294862470869,-3.9595753511140255,-0.5893717238890759,101.54244235081654,17.230736731061867,-129.98440055597854
4.8712499000000005,7.631095840894736,-3.741596979322953,-0.5878395643682834,94.31969535123183,14.967176231115058,-123.46755441822505
4.8812499,7.8139720806309825,-3.1409154649984306,-0.6268450931701449,82.7563643571208,13.659281395615851,-113.74513610096189
4.8912499,7.621260853032294,-2.6407128388546646,-0.6926493098220035,68.35690535227975,11.81573101370488,-101.99853544244233
4.901249900000001,7.4016126474819615,-1.8496512088392814,-0.9727179128212409,50.850470658052764,9.55709726397118,-91.54352421737615
4.9112499000000005,7.496839451185082,-0.9209066884128414,-1.2622558621093094,31.84641553579642,7.360029634198455,-84.92963141089454
4.9212499,7.770029046612154,-0.26912355042456465,-1.317191625545632,13.330435529761754,5.518353411426582,-81.9815984377831
4.9312499,8.152224467323636,-0.10594183386496665,-1.11228419909556,-4.431847250264881,4.134543856825762,-79.62604527696465
4.941249900000001,8.395803372100975,-0.6265319735856681,-0.8385093494050382,-19.886728912129527,3.5643044748659314,-75.57503751336404
4.9512499000000005,8.545329592863204,-1.1785098822733668,-0.647839075295782,-32.577027386288,4.058394955583923,-69.39341463102507
4.9612499,8.759297446859826,-1.4922220918422069,-0.48185276796680976,-43.19712710235452,4.905261551366944,-61.44246372079464
4.9712499,8.890054303269968,-1.7532707014657734,-0.30624461224834904,-50.36629243307411,6.055077911941715,-53.40635787500833
4.981249900000001,9.016072156825532,-2.049992402185598,-0.10322223523178468,-52.72150847077627,7.012590309066828,-46.04189328754548
4.991249900000001,9.181722833244768,-2.4228148266363827,0.1723974163061617,-50.31942339298802,7.464689824718305,-38.98009902894095
5.0012499,9.220531693941435,-2.6753476372649367,0.45288174423802113,-44.80100258059158,7.177779573133815,-32.92841545676076
5.0112499,9.193155394311843,-2.7604875534758313,0.6725803432877477,-37.107349832512284,6.566861291983272,-29.08736422608294
5.021249900000001,9.211132836753626,-2.9276072431652405,0.7763324115121135,-27.17420317888527,5.707922987877413,-27.297158074974234
5.031249900000001,9.40960872105702,-3.2476497958616353,0.7946758056231198,-15.935073615135968,4.288413655298733,-26.315400498614476
5.0412499,9.600403184927414,-3.5150754650719382,0.8389093662086368,-5.261834059412885,2.5330294428816806,-25.13889878361794
5.0512499,9.656021606554562,-3.583509739649305,0.8721096867071638,3.586858260793629,0.6013014718686657,-23.276364330763126
5.061249900000001,9.667708623420543,-3.253274362580805,0.8043335312985253,8.69615826876847,-1.0777180947180012,-21.938100236607657
5.071249900000001,9.576587451610633,-2.6678333735183672,0.6023076536601892,9.487453854586109,-2.5764752883988997,-22.229749110082178
5.0812499,9.505365271994084,-2.105827829536792,0.4117466474188234,6.585517454077998,-4.307509074959207,-23.754611678674834
5.0912499,9.519378483044134,-1.6642554428144531,0.2850535271093218,0.03257959881703361,-5.320588585695212,-25.92422077082986
5.101249900000001,9.471881479749063,-1.5652000768766903,0.17700171149815508,-8.374128527066297,-5.583764457008267,-27.67370434004458
5.111249900000001,9.490309377849108,-1.6437448725640598,0.14666560222447075,-17.24836540621858,-5.1923490355740345,-28.549043343704984
5.1212499000000005,9.50603663597191,-1.7652440347304195,0.08273669644321337,-25.408725481801255,-4.115617397862585,-28.48785113259996
5.1312499,9.342760484348245,-1.9614880452022272,0.04728675785564408,-31.615789153848233,-2.770394447782888,-27.385474743777117
5.1412499,9.191850487248614,-2.124172803963311,0.056425273947807775,-35.81339010677054,-1.0606688510375921,-25.417921451844013
5.151249900000001,9.175661050737732,-2.1500228291356915,-0.06415047747468569,-38.820761502869395,0.919591264744396,-22.165074020522777
5.1612499000000005,9.081304781140961,-2.1731591814850852,-0.1374129950617095,-40.77242875021907,2.504555871401823,-18.28536495809023
5.1712499,8.87503450418547,-2.138855212539075,0.03707571242934508,-41.05220567143808,3.749744263885788,-15.012961437349162
5.1812499,8.805328870100091,-2.1618968425968124,0.177697869331986,-39.2664179644085,4.984450914645975,-12.631930619363086
5.191249900000001,8.938101051548877,-2.284249901399414,0.10702346257118667,-36.29647843714789,6.254753800898306,-10.29433617044094
5.2012499000000005,9.036126743802091,-2.3024559805619242,0.05572480786526042,-32.6236523836577,7.20505183779474,-7.7872736504392694
5.2112499,9.090654181036896,-2.3171035839803906,0.1824632587768827,-27.766386375672706,7.600641777771114,-5.322223952610948
5.2212499,9.171550461924777,-2.366399928666967,0.2484615658337521,-21.15909994934258,7.628957654659913,-2.653654774297765
5.231249900000001,9.20847198392202,-2.4096549248764103,0.1469896693046162,-14.204879023592296,6.806614363860468,0.6430490445597133
5.241249900000001,9.178723721118159,-2.434854714091426,0.06393553743048473,-7.712382556687537,5.269909004898201,4.255545343382339
5.2512499,9.103654715086787,-2.403630984482809,0.04135722616291074,-1.678744247807665,3.160270434639084,7.446785051624797
5.2612499,9.048730366750211,-2.3138759595470644,-0.07500986072672598,3.147891646275117,0.4659175584260331,10.063009733192787
5.271249900000001,9.059618667231867,-2.202141289800155,-0.22062729778044626,5.830864444509199,-2.248435670426316,12.386924977470914
5.281249900000001,9.136523850612125,-2.2019817613953037,-0.2537208410531102,5.921557764693196,-4.324954756765809,14.574631308326616
5.2912499,9.251244062706514,-2.2874520935644718,-0.21004936960414783,3.5468303737625018,-5.409820915339982,16.592450170273406
5.3012499,9.388535091279653,-2.4066766397192185,-0.13080399799826697,-0.3748648033464553,-5.812147368824912,18.40016011882831
5.311249900000001,9.452199018721556,-2.6019705948794414,-0.04698014345667857,-4.003561032879816,-5.7126234747405435,19.660851070744187
5.321249900000001,9.490704094376058,-2.7615106687335427,-0.006194368636977904,-7.459254309760091,-4.895977186915666,20.23319814844792
5.3312499,9.500645487322924,-2.867280926194676,-0.05436939122410739,-11.226214509055081,-3.779488122562248,20.22718493230511
5.3412499,9.421767049274271,-3.036808828819145,-0.10407948715461768,-14.301159972704577,-2.5319381274210078,19.538766081000496
5.351249900000001,9.347515999226284,-3.2701955504698392,-0.06993209705895558,-15.68465682253863,-1.4388847218444472,18.37120120075623
5.361249900000001,9.358860083176799,-3.4140265250497754,-0.08223176045487107,-15.826793357988004,-0.23099630916999017,16.949419866973347
5.3712499000000005,9.413350682626806,-3.514238399735393,-0.12320438418423221,-15.048065465348145,1.355539205581846,15.281820548760884
5.3812499,9.435274719647854,-3.641094958726331,-0.07590084342666246,-12.446798560886261,2.6411976207986414,13.401498566797118
5.3912499,9.439925768272701,-3.7010019612955523,0.0036509979565203833,-8.217430371686016,3.6795453817469723,11.497482294471931
5.401249900000001,9.41602234193655,-3.706518869243124,0.05919743430101936,-3.195005311756703,4.554908612043703,9.86238478007553
5.4112499000000005,9.38388136989954,-3.6748297135491086,0.05590419719205226,2.2809052843190845,5.085558974782928,8.555545782940964
5.4212499,9.366680537454004,-3.5931769035156784,-0.022458922803963173,7.1038491946277675,5.439363638572418,7.577149284968665
5.4312499,9.386550322962602,-3.4888927203071236,-0.07799289955753862,10.714372083322457,5.790936944459281,7.197916555305418
5.441249900000001,9.393519071595714,-3.348162783771405,-0.044645928473091796,12.593665504169824,5.913505614741493,7.187662022868433
5.4512499000000005,9.438257983050391,-3.1454121610719934,0.05204506354626492,12.577557828065487,5.977826611127367,7.0039158353750475
5.4612499,9.448016035631484,-2.900455191925122,0.12235777104063936,10.883856254603675,6.2824481696144465,6.429857345909794
5.4712499,9.401175228349247,-2.8226101821096496,0.15693138479916058,8.419080205409326,6.027181529917828,5.69920481513357
5.481249900000001,9.38762503773432,-2.9068973521101973,0.18843074123247264,5.89950790903359,5.6358363428393305,5.031964062440204
5.491249900000001,9.25793184188572,-3.081090982982841,0.222884268350273,4.075156802369073,5.3214909965844885,4.67719799459422
5.5012499,9.14295294518078,-3.298950028740828,0.2655456143020774,3.1183833589148002,4.851586490178698,4.911890173884861
5.5112499,9.145387018998232,-3.4637946516346583,0.3109646188315116,2.866242453726689,4.400000327539953,5.3711091484371005
5.521249900000001,9.156320623856901,-3.5574706686923636,0.39106660765654033,3.2122896983726714,3.8410514143780086,5.645460797265807
5.531249900000001,9.154445660602224,-3.5594785246455998,0.4083443866735591,3.4949551001196806,3.3984267509320425,5.963352472238865
5.5412499,9.136837429029159,-3.5279009853406573,0.3556586304603244,3.0097207396433983,3.1377861804500635,6.430654472035833
5.5512499,9.058509812539748,-3.532126077815085,0.3454202367532519,2.0365057591165066,2.815892013323149,7.035947271535052
5.561249900000001,8.994346515066622,-3.4825452052984733,0.2960800935278709,0.7715316519506753,2.667934813657221,7.593330140113814
5.571249900000001,8.937307703024278,-3.424309977324042,0.16420027459318803,-0.6081157909583681,2.491246841733769,7.787007292656801
5.5812499,8.859243696407852,-3.449132484441397,0.050026207761255735,-1.7033810688543134,2.1659966258721806,8.170833064862952
5.5912499,8.845923271440249,-3.5275147575680728,0.04287440945670039,-2.502132968519022,1.8869111020666818,8.928998454182517
5.601249900000001,8.88864179719871,-3.5853677098758956,0.04730053093618139,-3.14291365082584,1.8817354411453613,9.838620764254232
5.611249900000001,8.919701987456707,-3.572419970823755,-0.00155689096677884,-3.6910885620528195,2.028323079860131,10.870483249706748
5.6212499000000005,8.928714143623596,-3.5267531732910715,-0.040952890335252505,-4.773876020867012,2.2440236048917295,12.113063748401514
5.6312499,8.93017850821342,-3.4910983899289447,-0.1059652665565661,-6.343363234045783,2.4598901243137785,13.440649058223247
5.6412499,8.904256102670603,-3.4449967944843713,-0.2570699698737212,-8.098281746936086,2.5698568208087034,14.521942766398528
5.651249900000001,8.886671383421637,-3.436700373416516,-0.3427712280165946,-10.01311039868298,2.820699836700325,15.452937407209548
5.6612499000000005,8.944901860545254,-3.4765611928180715,-0.30322151797230024,-11.966591748456986,3.6774536746372326,16.294637169241977
5.6712499,9.065392844399561,-3.5263079884477797,-0.21567854993638416,-13.35505508088944,4.627826255736075,17.01837789872388
5.6812499,9.152472384523342,-3.635331453071534,-0.13099758537747272,-13.897566590079226,5.4376281851256545,17.595398239568212
5.691249900000001,9.138479517929733,-3.76892469401984,-0.08670922269190302,-13.72890395988667,6.779263428608097,18.072038883348597
5.7012499000000005,9.087079501659025,-3.8560526988875448,-0.041015682219409336,-13.090058821314402,7.990445034886006,18.522652515899555
5.7112499,9.038757478063433,-3.904841538009529,-0.006143600799820889,-12.050730715665596,8.704456265138175,18.72915668500369
5.7212499,8.98946333979196,-3.9030011336947648,0.005456153227511836,-10.755528722774255,9.325115939374895,18.883713300781515
5.731249900000001,8.964178482879618,-3.8326929072320164,0.0770627615566718,-9.800971865082596,9.81557508922861,18.982688128889095
5.741249900000001,8.922580495453627,-3.744394302994684,0.1444832177592594,-9.51389370234395,10.036663052709146,18.909314192874348
5.7512499,8.894508088149886,-3.685693369395536,0.13920102998986006,-9.71471825858381,10.112049623773878,18.893055277608383
5.7612499,8.89546805045086,-3.612036495664415,0.13745731090879065,-10.4172866218248,10.002917193218817,19.30484076105158
5.771249900000001,8.856788562545647,-3.510090185223136,0.1814430792703044,-11.596889798038086,9.509214348462246,20.079090520703296
5.781249900000001,8.805955522815742,-3.45352580926232,0.20741440902291144,-12.956340687305763,8.816847888088427,21.357559626796807
5.7912499,8.772074974365038,-3.3912548436367076,0.17886158953903739,-14.302044494807097,7.866249398873539,22.839020364437587
5.8012499,8.751755363173269,-3.2869743085001653,0.16320024194848978,-15.817177199314667,6.520410320777725,24.492639719506187
5.811249900000001,8.750963147278553,-3.1879291215520995,0.13422132478923035,-17.37255614824409,4.771074217295413,26.843804023772456
5.821249900000001,8.878968310814672,-3.0744878911297344,0.06330651653718755,-18.78690734504227,2.4663052375168317,29.585910752843763
5.8312499,9.150055320775227,-3.004503700199764,0.03267098077417193,-19.92791907754649,-0.29884734813168895,32.79613198553234
5.8412499,9.32668229119296,-2.9907443052261082,-0.020627710765938202,-20.966569034746765,-3.2662657426860386,36.74076117004395
5.851249900000001,9.3062466469555,-2.9375589390468817,-0.11731611879625693,-22.600181183573707,-6.566200392063531,41.324694301625456
5.861249900000001,9.229306866846569,-2.835365054608006,-0.2148586621159655,-25.250825892174458,-10.402142591190103,46.695565146213774
5.8712499000000005,9.12851818386609,-2.7424696849694485,-0.3450633242869126,-28.814616531190822,-14.715229966752965,52.223512977512954
5.8812499,8.937368950562378,-2.6269805827273127,-0.44900953162745255,-33.556777703652045,-20.01716432021966,56.813620718213095
5.8912499,8.774017756042532,-2.5618833486008685,-0.49844945351764774,-39.43186645583888,-25.206956361650654,60.37475464186666
5.901249900000001,8.614911912160252,-2.6187838619342143,-0.5834746877178113,-45.6037726177178,-29.731973636498324,62.64635092848667
5.9112499000000005,8.34802884740959,-2.7499016077010596,-0.6560040144979499,-51.21817200899097,-34.10014734098972,63.59414127849001
5.9212499,8.137950557544897,-3.037793430176048,-0.6861554680006478,-55.52896579441754,-37.851432076235575,64.32877465538705
5.9312499,8.052259391298003,-3.5620771130673172,-0.7645696464382352,-58.58367470269934,-41.074018817848476,66.34937581115204
5.941249900000001,7.8748463798398,-4.128962836038305,-0.9180247857278695,-59.608986465062515,-44.27700275939394,70.05359244844536
5.9512499000000005,7.582848125322938,-4.48416273842439,-1.11255860382233,-58.67408308338301,-47.55122599301212,74.63004647398702
5.9612499,7.36971901116363,-4.683897153748629,-1.246098912323597,-56.54800856229207,-50.847648310309786,79.0409091850308
5.9712499,7.235366214226447,-4.856307876154549,-1.2890404304416323,-53.230815792055196,-54.59060736808583,83.28449260196679
5.981249900000001,7.054696187704044,-5.072288706171213,-1.4122415399742272,-48.58697587300015,-59.21709183977671,88.3008497961135
5.991249900000001,6.895489679958496,-5.259800431152872,-1.6578096212129376,-43.69128051672032,-64.28708712640497,94.57698586924728
6.0012499,6.939194903139273,-5.295972255129183,-1.8745248703249224,-39.92554526433213,-69.43491750065921,101.52355872914478
6.0112499,7.172271512241063,-5.253679141726141,-2.0911606773160476,-38.03407327147501,-74.45022215366228,108.33908933272978
6.021249900000001,7.467809632103663,-5.167229969785933,-2.3440892182165918,-39.171384924648166,-79.21404362761125,114.64452808512395
6.031249900000001,7.7633353519248045,-5.095702191409634,-2.565358255160848,-44.03160036391315,-83.19753092696567,121.33454450930655
6.0412499,8.14445477318114,-4.996164446738566,-2.9278674876127866,-53.355478581039414,-86.79842606796743,127.92632549994474
6.0512499,8.944707450713464,-4.835741019409969,-3.6787937563059647,-67.64201919421805,-92.05566143542869,132.75818272687494
6.061249900000001,10.061995050668452,-4.6765031325348225,-4.660286622590796,-85.32933934359747,-100.31263967442955,135.31974708761553
6.071249900000001,11.588823682557216,-4.601096780611278,-5.8984607806297085,-106.32385304742157,-113.06158066434172,135.57881879478126
6.0812499,14.441378531091123,-4.178669631637237,-7.570118473815671,-132.20800953419345,-131.12009555139625,133.95583132161474
6.0912499,19.2328549478915,-2.6140931729118133,-9.353869848521152,-165.45937093711458,-153.40411414228103,128.2394261154974
6.101249900000001,25.411310107479277,-0.6666927705462574,-10.185882688115191,-206.00811702706682,-176.20589106985003,116.30894435820859
6.111249900000001,31.07382040367178,0.4025958108548679,-9.212955521834376,-253.64643131084327,-194.32227066571733,102.35355192206309
6.1212499000000005,34.46866601886324,1.9168679485136524,-7.568764635620511,-307.0375534432753,-207.58069698483317,89.0346194075711
6.1312499,36.342691549534415,4.644325278661508,-6.826998473616357,-364.9104493660236,-210.6129871293038,74.65777644081979
6.141249900000001,37.603963580790676,7.715979569480911,-6.049256013238896,-434.42707374982416,-201.70441581635401,61.73297134553082
6.151249900000001,38.022208283205494,10.793089447490786,-4.97826383860187,-491.7960641935513,-188.15744933130995,54.1137600826255
6.1612499000000005,36.45828874270086,11.45558951664575,-4.387640915899311,-502.25489765744015,-173.4433622238027,54.882817078693506
6.1712499,31.73084294880327,9.308886584333088,-4.004838896393805,-499.0372331149695,-163.1749816918212,66.36606086571787
6.1812499,24.637352054873645,5.069068669327333,-4.521239428798029,-500.1850462556496,-163.96586429484105,85.4980383151263
6.191249900000001,15.328904537392967,-0.808787634397159,-6.052256159316924,-500.29305155346094,-182.16305704575348,111.25356278556494
6.2012499000000005,4.327924469041139,-6.387549886037467,-7.706632758407609,-499.1500525231782,-218.0483764794352,142.71572120291634
6.2112499,-6.427541315979775,-11.071626793770466,-8.697067401801647,-501.52052227300936,-262.08171987656027,180.72918756212422
6.2212499,-19.666453932125027,-13.211267646492852,-7.207657812715834,-494.7372860635704,-313.5019165022685,231.7783520136319
6.231249900000001,-37.58163393879831,-13.431821942798955,-6.034691789959886,-430.95287596206043,-365.7990454647476,287.32497244853147
6.241249900000001,-52.78238283219395,-17.04014023077892,-11.831750273456048,-305.80519169827176,-375.72786628183843,335.4530344453944
6.2512499,-58.90143879151896,-20.312135246834277,-16.863362176588023,-156.72948011807406,-324.41581892322245,371.60038245142954
6.2612499,-49.23655569450415,-16.161969500064597,-12.098941232988505,-15.482333331002698,-213.3243074913103,371.43848501200125
6.271249900000001,-26.542318095009602,-6.847178712081204,-2.724688777349252,84.39895572163007,-55.53534397667104,308.570683054121
6.281249900000001,-14.041225186361691,-0.8559091823209215,4.0608654148773,152.67034952165656,67.24267123986657,190.1301317094998
6.2912499,-14.16135516498227,-0.8905860479412783,5.305165873007322,227.10757810616633,113.82865608535887,47.530572262666226
6.3012499,-13.99314464630268,-3.1146430253102135,1.3798389395764206,307.0512825609953,128.3390342978338,-89.21003572060658
6.311249900000001,-17.014933124980985,-6.332358860748225,-5.570654485472081,389.61876803484887,121.69496990490728,-187.11815993705906
6.321249900000001,-23.091821750716363,-6.788074782208543,-11.880869908397033,444.70260232998413,98.29710405101594,-227.54995509412655
6.3312499,-26.149235619256874,-3.178549232143454,-14.437318911913657,452.71274979334027,71.8053221758309,-224.46188923030684
6.3412499,-23.743982421062693,1.791032822674487,-13.57361267801429,422.66041054493803,47.54317744611067,-206.85811537639825
6.351249900000001,-18.11277629484724,6.65673204594277,-11.335548248435353,363.30497753582375,30.434631744895526,-196.088560158538
6.361249900000001,-13.450679034236998,9.014472523652596,-9.497337489183645,287.1295946379121,24.077264725137002,-193.75055323819393
6.3712499000000005,-10.277941050312055,8.076847200205671,-8.718910388068945,209.62270136427554,25.624238049911234,-190.78129242192117
6.3812499,-6.79091247658443,5.594682863450092,-9.055931798483803,142.33104740754175,31.668592536344615,-181.9060202938427
6.391249900000001,-3.2129291963810735,2.973537954306616,-9.91248851599935,89.96209649515671,37.54626404941837,-166.50603047355992
6.401249900000001,-0.027317485287705716,1.003205656120565,-10.41678350218514,52.424023893040896,41.58249128568503,-149.34062315288236
6.4112499000000005,2.882664850506552,-0.8951598885533323,-10.376928365271535,33.105759832325134,46.28621188116636,-134.93002185203153
6.4212499,5.101727179867542,-3.280848686861033,-9.792158599845274,30.682332542622042,53.384869327311264,-120.15624611656014
6.4312499,6.2861676610799835,-5.45732309471575,-9.039969668082437,40.986433519204695,63.517082664293994,-102.6356527161138
6.441249900000001,6.679721954990436,-7.295548781319407,-8.674133008590973,64.4686992293939,75.28131961035083,-84.86749267285546
6.4512499000000005,7.001492310615669,-9.189733490689706,-8.623581783759445,98.90768352831053,85.97918277668602,-66.24185684748485
6.4612499,7.753786337527152,-10.91751147485568,-8.676568113370005,141.88117767394215,94.42053189785295,-47.82785134878166
6.4712499,8.79888095489789,-11.85629681346425,-9.000056194051503,188.53642383237315,99.13030542576092,-31.3831116002941
6.481249900000001,10.060352833914214,-12.052975404141868,-9.548612517398952,233.52976370351644,100.12926100226262,-19.664430274278885
6.491249900000001,10.972267023933135,-11.484568680935904,-9.978970975108126,269.7679002711167,100.44740661240489,-14.792689668640579
6.5012499,11.010294497013854,-10.146478216804647,-10.352192743945885,290.9399193266526,102.12255592029587,-16.191423639679638
6.5112499,10.7578450545837,-8.682700135387575,-10.605557011295305,296.03946742430884,105.28977806924924,-23.465683339464654
6.521249900000001,10.557540668928999,-7.382099975411761,-10.552979138886853,288.4892213423917,110.59714241673237,-36.95326831534992
6.531249900000001,10.294896757582986,-6.614451868677749,-10.126285978806536,273.2434522828221,117.63750421285404,-53.4884724623139
6.5412499,10.401297077966412,-6.654214088982382,-9.247183292566065,254.17661814325507,124.31043519380174,-67.97166335786874
6.5512499,10.952839368194486,-6.6509415103709655,-8.354796441022714,233.99899233735078,129.11798997567917,-80.48469402231528
6.561249900000001,11.263782980631452,-6.553910439386099,-7.69685840712569,215.78527626443415,130.30875289127502,-93.11777748688647
6.571249900000001,11.140785068574772,-6.71341869835897,-7.168318434717695,201.14326714128478,128.4205174793194,-104.57090938542996
6.5812499,10.669039438352923,-6.591314067004752,-6.89002890758043,188.64122426200635,125.17941150268773,-113.92105872586164
6.5912499,9.907448316729221,-6.501766657327399,-6.395400324830546,178.8543020904837,120.78176498509738,-121.64479588784208
6.601249900000001,9.155250142005803,-6.60457282292542,-5.4245855983802675,170.43649907885793,117.5581930716685,-127.14611205707668
6.611249900000001,8.519505378195387,-6.475499020076499,-4.686133855838707,163.16758043224425,116.59502094328532,-130.752565705865
6.6212499000000005,8.072632982684077,-6.268039591421716,-4.373115199230016,158.27342549839105,115.48904044421393,-133.79389772546463
6.6312499,8.072799176776186,-6.11165369708854,-3.967696938135117,155.39980970867305,112.89647051703145,-135.27752881152352
6.641249900000001,8.35803235067723,-5.6225777376334145,-3.500554024225908,152.6419965877593,108.2333352262039,-134.78928844732908
6.651249900000001,8.528902568066293,-4.903862876394072,-3.185587757145986,150.21316359059762,101.66806496228787,-134.42975472501465
6.6612499000000005,8.305798739018956,-4.467072999567363,-2.983475715666911,148.05373792871023,93.66526577065301,-133.85133537513656
6.6712499,7.865824842574243,-4.140435539016615,-2.8305049303784164,144.6143952113365,83.93000893328173,-131.72634439614754
6.6812499,7.60522156446582,-3.861804437475986,-2.523905443525616,140.92959548438577,73.74508059837659,-128.8641945358131
6.691249900000001,7.458488394545865,-3.529792249091027,-2.261124354284686,136.85845163943637,64.38330856622731,-125.90902051176262
6.7012499000000005,7.244350990088701,-3.021535480252974,-2.0998716255238223,132.6929565716652,54.939419137540106,-123.0790253035483
6.7112499,7.188578803913923,-2.5325086374725996,-1.656721370407518,127.6555409367773,45.69033374263646,-120.2235679074506
6.7212499,7.301688889403519,-2.288269538459618,-1.044229143899511,119.92808600238553,38.553546100674616,-116.91707162068433
6.731249900000001,7.330657569547414,-2.2646480511861387,-0.5841198939930974,109.60093088777579,33.871731535682756,-112.48680343947234
6.741249900000001,7.386927393119412,-2.4850270766691316,-0.25023842201723745,97.66836613874962,30.262658526177503,-105.4635332275901
6.7512499,7.68956224796829,-2.597707934201901,0.0069437333091175455,82.54543140614165,28.0979571841557,-93.69304752515383
6.7612499,7.924947914692541,-2.078712813853725,-0.04741521643737688,61.81674280058351,26.063923753769174,-80.00111096554633
6.771249900000001,7.771432848387196,-1.2936540113227877,-0.3878832047032684,40.85732753218477,22.641676678226876,-70.19834010384375
6.781249900000001,7.56243195090972,-0.5905105719123959,-0.6431763918862176,22.426823914887027,18.021436757043364,-65.2651189451279
6.7912499,7.606139001642408,-0.4372082272089385,-0.5857598097270745,7.387144076164431,12.688216102671998,-62.925884172047176
6.8012499,7.764469917622598,-0.6931464159683705,-0.4330799203037461,-4.041704014307795,7.90795313230811,-60.81767319428852
6.811249900000001,7.867183806128728,-0.9857632303557481,-0.33470484161450137,-13.051259131353179,3.9719974933346673,-57.725255231308985
6.821249900000001,8.170085267247018,-1.2198484461313046,-0.26052275644980366,-20.652713047438926,1.811032900447199,-53.55044335087383
6.8312499,8.64672440151449,-1.352949564021528,-0.28627175256316073,-27.644662737413828,1.1627053233240825,-48.42564414198457
6.8412499,9.021019504108912,-1.572881133514884,-0.3510901083958593,-33.608742131385455,0.9788377086271122,-42.314323616345064
6.851249900000001,9.210423541390135,-1.8770866484027646,-0.3460881531767951,-38.16886098856141,1.7189141806841999,-35.53168925952997
6.861249900000001,9.2837284123624,-2.029198634312555,-0.35179822035643277,-40.90717483277457,3.2269344028768097,-29.505828364954816
6.8712499000000005,9.438357584878778,-2.0595662109625517,-0.40851397439277826,-41.436159552746034,5.1121428794969415,-25.348060753143795
6.8812499,9.59447847952861,-2.369679586438507,-0.3962665320328573,-38.81746862874795,7.041730528406984,-21.95867526594189
6.891249900000001,9.621571697302159,-2.896468626543332,-0.35285973679106464,-33.26043192923107,8.597031353718371,-18.077512242576304
6.901249900000001,9.654078849501126,-3.2777669890709853,-0.2878553913505099,-26.298683599287717,9.396287248578261,-13.999258350840048
6.9112499000000005,9.687338219809627,-3.4953470510788085,-0.20203514776934556,-18.877892204307994,9.54124551007223,-9.959781546921368
6.9212499,9.687521002483823,-3.5226033068967446,-0.2015124424177551,-12.055390175467727,9.143070337218619,-6.673020442242544
6.9312499,9.69141109229725,-3.3999259156656643,-0.24803717166210248,-6.6668278584778795,8.276324381487308,-4.55799375674864
6.941249900000001,9.729332399473522,-3.2821993706157016,-0.1905672486430403,-3.39289579537563,7.405644025852647,-3.2561646421631174
6.9512499000000005,9.84227545877509,-3.1658147277475415,-0.006940559110002575,-2.329693700843906,7.034516138302128,-2.660598810001182
6.9612499,9.932069976496125,-3.0383478544626477,0.17950236608280537,-2.6855125856039583,7.093654075461414,-3.1705923800713522
6.9712499,9.899540411589145,-3.0677341574686317,0.3095581711127551,-3.7053203874939564,7.084283870948683,-4.318206038773205
6.981249900000001,9.777439478827027,-3.251695564739509,0.34762611718557634,-4.901740015819026,6.794046929483605,-5.097198894220818
6.991249900000001,9.631246694437253,-3.359375854204844,0.2810081566901857,-5.889187702444467,6.564579846952048,-5.653239964484637
7.0012499,9.465215149107435,-3.3432883018981516,0.2451017789308512,-6.400812621319678,5.943206316166483,-6.338119074749197
7.0112499,9.378848907380576,-3.381923587193226,0.3238324026130581,-6.54566510960307,5.070625379338547,-7.0848098696192086
7.021249900000001,9.34874391980533,-3.4690315325760537,0.3812780014559895,-6.407350001514021,4.431730346059118,-7.722431276814349
7.031249900000001,9.253054082191435,-3.556141754093254,0.44035828008444367,-5.550790797296225,3.711672525305081,-8.279868508437948
7.0412499,9.131371126741373,-3.6173701021910127,0.5071009642863443,-4.074887157500418,2.783536563987895,-8.7781287929442
7.0512499,9.004791084406985,-3.5728804893719044,0.4433575911858517,-2.548071563794818,1.946539302830354,-8.847175493779758
7.061249900000001,8.920381619535254,-3.5108373069772285,0.3540252952020114,-1.3859776380617679,1.14650540313797,-8.409644325708335
7.071249900000001,8.900254082355612,-3.4458085854945075,0.3208350687760733,-1.015911475580794,0.5598032611200005,-7.713251075123994
7.0812499,8.884638990319473,-3.3324977886699068,0.22799519910556684,-1.6286107069083289,0.26819297285518645,-7.01333846821697
7.0912499,8.901174143777151,-3.251528937949922,0.12365023629307431,-2.9925534319544553,0.34173964945852614,-6.309308713949988
7.101249900000001,9.001063499869623,-3.2159476815911052,0.042854636779186814,-3.7326165801610505,0.9556634229043995,-5.876790756601778
7.111249900000001,9.05777161637568,-3.174014988569529,-0.08642292603362914,-3.80802359351826,1.365346925727846,-5.178721694404935
7.1212499000000005,8.95949259780715,-3.196153126298715,-0.15315755477903747,-4.768131616138354,0.6955781452956327,-3.2910830362749666
7.1312499,8.958074326075705,-3.346834991121148,-0.03741186193327739,-5.130678355049137,0.7246994487547778,-1.2566628165938416
7.141249900000001,8.977978238515782,-3.4907712777020747,-0.013821167771266865,-4.2722170300606015,1.5949230944120665,0.8207233462255918
7.151249900000001,8.874633453600122,-3.5222615918834252,-0.13603973141698233,-3.69295383054838,2.34186764296559,2.9524818125507295
7.1612499000000005,8.851478982665027,-3.554975302164839,-0.18116269234899585,-2.8895746678620173,2.9807851463949677,4.577404478331789
7.1712499,8.924433109395334,-3.6446850260502686,-0.05003281651494632,-1.8264951050165577,3.1921901235633743,5.734721334561605
7.1812499,9.03670227804761,-3.6525241728020275,0.12545901993383576,-2.2472593153894995,3.6951299996051876,6.655859838432643
7.191249900000001,9.036222590495411,-3.7161181134807855,0.10918798977973963,-2.790000350562935,4.786457366823202,7.381200984412332
7.2012499000000005,8.904319103868726,-3.7955065536876615,0.045860747927216665,-2.6306645214381597,5.6905707611259,7.865873139382111
7.2112499,8.933591916633407,-3.7610333103689957,0.08881369605331184,-2.311586644851405,6.257245210445714,8.24319547187925
7.2212499,8.931858151926582,-3.8845867868966493,0.09639467420411096,-1.253117604358074,6.657703142183906,8.33155286184856
7.231249900000001,8.712979399163492,-3.966757644624193,0.1380685576529653,0.25322579815649265,6.596914049505159,8.618033903172211
7.241249900000001,8.506288649170429,-4.008055420076957,0.19486159268195774,1.820066789555565,6.277974247860359,9.69802590016938
7.2512499,8.45476365798097,-4.143655877456021,0.03640428829559793,3.390293786927415,5.711368449966515,11.609673655498428
7.2612499,8.519322616309744,-4.163639150929167,-0.1546775182380065,4.309266130403439,4.743090410559552,14.077658750844243
7.271249900000001,8.66865635957962,-4.092286422793086,-0.18579471014513785,4.900380992639054,4.039690278002119,15.864119907396496
7.281249900000001,8.7932809469705,-3.960947694369597,-0.12232613762215055,4.567077821330405,3.5821734388732396,16.43598908598636
7.2912499,8.894439823551888,-3.779206076286202,-0.03852645291273292,2.6081949004625256,3.370210370354628,16.071533022710845
7.3012499,9.018026609552582,-3.6437092697222395,0.022209568073037762,-0.5416478289159643,3.247011910259077,15.022700208590429
7.311249900000001,9.117637050256699,-3.5729296423918275,0.09861643638796974,-4.292433591448222,3.1651163781974643,13.791142351798555
7.321249900000001,9.205977647653153,-3.5866160964280036,0.26012601032910904,-8.284734389552423,3.395131537501407,12.200456094455982
7.3312499,9.312869846484809,-3.695019197422284,0.41027548046334983,-11.731546597768329,4.290868718197946,10.26099350791009
7.3412499,9.358023668772615,-3.855066624626285,0.48616183880100805,-13.563284643519589,5.095349394956646,8.395929173158342
7.351249900000001,9.342328450222091,-4.004198209060745,0.5931118498335706,-13.89844351970898,5.6858034343364015,6.741791589243276
7.361249900000001,9.32581842720459,-4.110400091084201,0.73669508271421,-12.80573304780923,6.299446023992122,4.984725703059082
7.3712499,9.28824389955959,-4.211823657689819,0.7795449121400517,-10.388391054913292,6.612682964453282,3.571283222649388
7.3812499,9.21174033919169,-4.261372749702777,0.6830880906893094,-7.524067152200964,6.434795268162005,2.7460805601799794
7.391249900000001,9.133188415117031,-4.188941191468214,0.6489155769452702,-4.666018453896592,5.814776704882384,2.0746704275624754
7.401249900000001,9.071210754552425,-4.025856568320281,0.6731869502540424,-1.9616484916614525,5.0499844553118045,1.586721839392034
7.4112499,9.047058415248417,-3.8353631001202113,0.5805510657824949,-0.24835479039175373,4.24847847326158,1.1036692897326466
7.4212499,9.05654303691998,-3.7136745835584057,0.3960442598393817,0.37319520672370166,3.42613473799024,0.9998176320334897
7.4312499,9.04514114810261,-3.7158919258960754,0.295642019280579,0.3302737538484351,2.618013158479706,1.5471186935019356
7.441249900000001,9.02614042082851,-3.7332447711811017,0.2727348477456915,-0.40277628133851084,2.21497300974439,2.6470925909432856
7.4512499,9.00123475801269,-3.686095434751126,0.21602580984384573,-1.3696613283471828,1.9753020066171796,3.903282191856308
7.4612499,8.939322642972765,-3.6549689196300417,0.14936753378465173,-2.144722351846604,1.4629450921998617,4.683359523385695
7.4712499,8.860349641822525,-3.7227488755412472,0.06232824587580089,-2.6504866537933873,0.9135691752698477,5.552845756777356
7.481249900000001,8.754386916282314,-3.8187322793344896,-0.0327465424311023,-2.9809946428396694,0.49472466857085023,6.90029429177086
7.491249900000001,8.687342464829538,-3.813583470629234,-0.04242044529476695,-3.8618088589392947,0.28203589969531595,8.489862344332742
7.5012499,8.634881827469778,-3.7605085744887234,0.0012476450458270296,-5.666178607052596,0.26491270906493775,10.15941436408665
7.5112499,8.53155103427051,-3.7824055481668646,-0.027379993571563892,-7.845297414650312,0.2903702872878385,11.888101696258559
7.521249900000001,8.387969380910883,-3.853994641105391,-0.09771897467368104,-9.93230960452334,0.0003967653004164416,13.79172696431284
7.531249900000001,8.194301571360874,-3.950513599175478,-0.18683227757633403,-11.726225377738249,-0.8199958304050133,16.32714236940465
7.5412499,8.00605724694978,-4.04903764527244,-0.2791878148615625,-13.31633115691981,-2.072452948498497,19.667327411193785
7.5512499,7.892776486922518,-4.062326181574012,-0.288459493702319,-15.030190132764154,-3.632969312991418,23.41216492950232
7.561249900000001,7.83923386730474,-4.034512893665639,-0.28926593301890857,-17.04488085242437,-5.243256971275213,26.796600808853913
7.571249900000001,7.808528445643738,-4.07627139795365,-0.3188445612228175,-19.10501340218611,-6.993069078023691,30.29965348255291
7.5812499,7.84419338507185,-4.141397833373118,-0.32898611821056706,-21.41559975362762,-8.762004506263766,33.49680426645572
7.5912499,7.942913203592332,-4.149613708640061,-0.3336909959057289,-23.805747191094348,-10.410632419204067,35.67693884401452
7.601249900000001,8.002874597670106,-4.155258805790818,-0.38242803603382197,-26.028307892729767,-12.142124893298329,37.236431294962074
7.611249900000001,7.969345924647804,-4.208198060735733,-0.5114159636040564,-28.900164178207067,-13.799090019247144,38.66959047700766
7.6212499,7.928562728964801,-4.309579487678667,-0.6830289878326216,-32.66500699054254,-15.310263474928957,40.17987015175382
7.6312499,8.014068571548902,-4.396231540659307,-0.7720854383842437,-36.46117788625679,-16.327388742427726,41.53237963249368
7.641249900000001,8.249523129559606,-4.446398039141504,-0.7914491245429315,-39.315727783081684,-16.473866230867692,42.718865647502874
7.651249900000001,8.571905925737376,-4.53432187376468,-0.7372094471580922,-40.907592642012105,-16.095965937804248,43.93114925401959
7.6612499,8.888146875161356,-4.666942769659948,-0.5666296961275824,-41.571879060469435,-15.32779973973412,45.031246619185914
7.6712499,9.03948272678894,-4.796839521287443,-0.4295396141416553,-40.94181829077229,-14.343323042655626,46.147812022736886
7.6812499,9.041059750995998,-4.896213953338994,-0.40853953022625195,-38.83657840205653,-13.994846213841623,47.04832856702942
7.691249900000001,9.013282585710183,-5.003465091725962,-0.47292703575219885,-35.251699585689316,-14.730874804380809,47.6832350888162
7.7012499,8.95523722591216,-5.028896349186462,-0.6095658521554748,-30.676607383223303,-16.3617728443193,48.073123369637734
7.7112499,8.882008222184748,-4.878472331389097,-0.7619082355103486,-26.141602362009657,-18.966554444438263,48.41816059401352
7.7212499,8.836434346310265,-4.642293428548951,-0.8132744561377314,-23.070861584344993,-22.095684853192235,48.852200067905834
7.731249900000001,8.982446780790207,-4.413220589630527,-0.7921718643967036,-22.35165196504336,-24.479449724403423,49.5871423845325
7.741249900000001,9.347164302789173,-4.195738550479162,-0.7711547478567308,-23.321510325597135,-26.294482290218095,51.04742545740945
7.7512499,9.646726744744825,-4.026303826165441,-0.7335798158915859,-25.590285007576163,-28.134274105775344,53.01429688522427
7.7612499,9.760862785615178,-3.8905860309548252,-0.7309001510506299,-28.634312079566097,-30.08528138015762,55.068917581276466
7.771249900000001,9.92034443528503,-3.7453223287945887,-0.7862000268408,-32.07152088152306,-32.24914052774307,57.37687788485525
7.781249900000001,10.097135852843426,-3.6214166565924586,-0.8613813693762922,-35.15290106767247,-35.384695181523576,59.76230502450978
7.7912499,10.070468499193248,-3.55405223875124,-0.8901775478062145,-36.725929154549526,-39.91930076322205,61.69853938507585
7.8012499,10.083138059622547,-3.4893394464941165,-0.8635625924637439,-36.4661504688523,-45.83246612771111,63.59865878174761
7.811249900000001,10.538496766774632,-3.4749448410005215,-0.8298259332058141,-34.11843160066692,-53.771174463198484,65.75198236449513
7.821249900000001,11.22607936705749,-3.532765676100391,-0.938268985077382,-29.037950129994996,-64.01257254377916,68.22911427114893
7.8312499,12.00146222044917,-3.4960415818073027,-1.229869948425791,-22.51574107283798,-76.1248320742869,71.12235678595464
7.8412499,13.538157725113377,-3.3440035251078757,-1.5230080292521422,-16.412586283957204,-89.64771529372538,74.35418970078014
7.851249900000001,16.174350056793898,-2.9793049377731884,-1.9043760150528932,-14.148228803233591,-105.16608723830063,78.52871307107539
7.861249900000001,19.32562032650859,-2.0658731378290596,-2.4553915926373024,-19.602281300331615,-122.77973104964329,82.4037377385017
7.8712499,22.626541419371414,-0.4493941941485658,-2.8283989605724726,-34.23425837315089,-140.91874304656469,84.30442628376962
7.8812499,26.54458313889197,2.072102583882224,-3.0084051470661106,-64.48877746325097,-160.89609039413685,85.31812174446497
7.891249900000001,30.37007534509009,4.865161461020556,-3.019944154608378,-107.80128071071857,-180.24546944898705,84.49390611605344
7.901249900000001,32.57013250305189,6.663322136229458,-2.320075358405816,-149.50863538151089,-194.59489519494548,80.49102671727273
7.9112499,33.08473792019088,7.507259440242917,-1.102732857641015,-192.86608057287305,-203.59245669779125,79.09519059140194
7.9212499,32.30013785823468,8.310914612311056,-0.5575196628187918,-246.08002972914915,-206.3758752372846,86.7666298503604
7.931249900000001,30.216479839620305,9.545712652535721,-1.1313711941183846,-310.0047613514655,-205.40117935363304,103.99249595626824
7.941249900000001,26.805722620355894,10.932526476003853,-2.2766136758958417,-401.168843769547,-205.48107147105424,129.23527670696063
7.9512499,21.69619129014199,11.637564039604952,-4.048011470387664,-486.8160408645761,-206.69669496475694,157.4246875956218
7.9612499,14.27554844249086,10.350301944104004,-6.844480873477611,-503.8024460465981,-212.20296589368604,182.09113886680387
7.9712499,5.31353695756047,6.766329750721324,-9.943545503330702,-498.5055964673363,-228.24469110285625,202.41667088680714
7.981249900000001,-3.985560239514406,1.1132865405235401,-12.583722294254594,-500.1030490792834,-256.44928495399046,221.0124292091975
7.991249900000001,-13.597256315254526,-5.240343851457359,-14.595475534896405,-500.68825870023784,-295.8688561576618,239.71004687661394
8.0012499,-24.948352991861697,-9.102420912775145,-14.414603783776013,-498.91953957933964,-343.57283826226643,259.79853539610133
8.0112499,-39.51127925493187,-11.317987574753449,-13.543816741204402,-500.125877368873,-388.32084800843666,280.935109278247
8.021249899999999,-52.34845229803726,-16.781894322779166,-16.86232905425338,-504.0163242027566,-392.14180245808853,297.5472985998151
8.031249899999999,-55.37479599259096,-20.88187162914392,-19.557584496832657,-428.4840726873197,-334.852669105423,301.0559647984641
8.0412499,-42.35016210990578,-18.327708340141157,-15.144408926043534,-277.2650548054979,-226.48555238053973,276.23241794575546
8.0512499,-21.556348075422118,-13.504102362440925,-7.0346171144258,-146.74993650490134,-87.85913575449358,215.05230754084653
8.0612499,-11.084714921401174,-10.007006078526283,-1.0780676556366304,-34.36598245932396,37.4442740175509,125.96678663742274
8.0712499,-11.412941469426364,-8.780480840703525,1.727772687315977,87.02683802157311,123.62385051344549,24.66643496597394
8.0812499,-13.613324170343498,-9.777759717284225,0.1633964676713482,216.55546881192694,178.31658880834203,-70.87772999811911
8.0912499,-16.570714723038652,-12.55154689291485,-4.6532663539145265,353.65638922383675,194.7274793473049,-140.02563385110093
8.1012499,-18.974092980571285,-14.18275083672486,-9.296317639056056,467.8682093559581,188.06332271843863,-171.5849377665157
8.111249899999999,-20.77012577012409,-10.697861854054668,-12.625949815889772,502.7939473877046,171.95350154818547,-174.77867139485764
8.1212499,-21.172195510929456,-3.5058104250821978,-14.095631152012212,500.4689534113538,147.82467158688328,-170.28185322604924
8.1312499,-18.346187837983866,3.08187612505035,-13.417079246284898,496.41197100993804,123.33117047199764,-170.6308990958638
8.1412499,-13.820442036015338,6.710111821976713,-11.760625130078086,444.90686949624506,104.75201196464667,-174.4311350539039
8.1512499,-10.132861555347896,7.439457482880815,-9.924574645092012,360.1238058239677,93.76343787104183,-175.0553201857574
8.1612499,-7.778636064094279,6.542487821642824,-8.662090540152501,278.3157974888336,89.27141040773871,-171.1911002065257
8.1712499,-5.408278328120057,4.804216730050291,-8.261236023558407,208.63570151866247,88.62788482607324,-163.74140493799428
8.1812499,-2.5141485539842217,2.5081674024464222,-8.133680313879877,157.03591831236432,88.74619615226133,-152.55037632219725
8.191249899999999,0.22110591160128637,0.3806878063175754,-7.885723534022979,121.7596019220565,86.85761789918658,-140.09378033106933
8.201249899999999,2.8227607113912208,-1.6258479368895542,-7.503751427846519,101.13915734422301,84.25167166984077,-127.44010327240197
8.2112499,5.133721851182494,-3.724569441905955,-7.341289202284073,93.76687145663065,82.39729123890116,-111.5457257133475
8.2212499,6.65852204249696,-5.492743986013235,-7.430536735153804,97.19399795699377,80.81465817565623,-93.56921578310796
8.2312499,7.59238580445689,-6.863454736271083,-7.263285642743442,109.50255371742702,80.84991171649494,-75.33945819208462
8.2412499,8.419676276588344,-7.882868158038263,-6.755469127402779,127.19023455749226,85.01007207633744,-57.75178211421171
8.2512499,9.12698024302821,-8.35230786021411,-6.109731517811003,144.36614767008285,92.3821081062164,-42.06502323676885
8.2612499,10.011589209685754,-8.224208617545557,-5.789645313252979,158.62900665986677,99.4687494146198,-31.18104053758499
8.271249899999999,11.174963830896417,-8.378056129803985,-6.144176291785535,175.2753799954047,102.48191326477185,-26.57246725383325
8.281249899999999,12.069118501217716,-8.606640844199527,-6.767821712200997,194.4140198358482,100.83532884071819,-27.58649098664351
8.2912499,12.423196792455908,-8.57291164503835,-6.965481017405031,212.78012637248406,96.67177720888583,-32.59006811564622
8.3012499,12.177978374593241,-8.483060551865536,-6.442114754585539,227.10551656948817,93.38390268950899,-39.01273588990555
8.3112499,11.577776831848409,-7.852259947723125,-6.012554789499676,233.95569911203737,93.3668316850113,-46.963424150899826
8.3212499,11.335078189264081,-7.3793344055722665,-6.155472684541049,234.8206374071626,95.82801688123973,-55.79941253015799
8.3312499,11.351851418377738,-7.221275955659942,-6.043665383389121,227.49628872424873,99.6623518800583,-61.69999154198299
8.3412499,11.420280434403168,-6.389800964370157,-5.857963218832752,210.62324275405174,104.06317461537898,-67.06756188072914
8.3512499,11.759870264628178,-5.401751902351001,-5.972896390009344,189.97024116289742,106.27521454615663,-76.2668383882177
8.361249899999999,11.963971875417394,-4.853535775292483,-5.823590338557177,169.693850424643,104.99330672074079,-88.02770068303604
8.3712499,11.738967794155691,-4.662881012876241,-5.284831723531549,150.9391505038782,101.7166944106837,-99.3914268952737
8.3812499,11.288427336619367,-4.918765921561661,-4.93904198564147,136.38118665223084,98.1806162586101,-108.8725477032705
8.3912499,10.559351703746302,-5.238238062107608,-4.856674717360376,125.70342736755528,94.32167571956818,-116.33578795198403
8.4012499,9.811385257744034,-5.185897049583217,-4.666862314753156,117.86409201642992,90.43434705906252,-123.32138380409036
8.4112499,9.27907550308776,-5.034434689768515,-4.165036344792727,113.26743070609763,87.07355857749303,-130.62752588089057
8.4212499,9.00537345473325,-4.903957516767135,-3.4444251381189392,110.54354248668928,85.2623473004126,-138.29958665230546
8.4312499,9.047600032664041,-5.234185739734477,-2.7381844710049763,112.17652231509585,85.37212115435308,-143.85064767090543
8.441249899999999,9.192432495721983,-5.710185005350081,-2.080275510773966,114.77427181460791,86.62141191608441,-141.41709626147474
8.451249899999999,9.173447523771577,-5.390809272227496,-1.8445330681717587,113.44800897470562,88.42771882305267,-133.19275741418872
8.4612499,8.809625964234986,-4.471789113277308,-2.036939026693155,111.51643142078585,87.8783140967332,-124.56696572618563
8.4712499,8.445227481371768,-3.6680742368657473,-2.1329125078248357,110.41134132131127,83.55716963310688,-116.94615099675299
8.4812499,8.311212099256581,-3.437103069337981,-1.8311021004179586,110.52117737787697,77.34549562497557,-109.69452985929185
8.4912499,8.054247251326512,-3.339660183283639,-1.46687643663602,110.4643744945989,70.71662302174373,-102.66056949795173
8.5012499,7.719749341727562,-2.8894198348519873,-1.300869566856954,109.03343666440782,63.53806707522968,-96.68127951065973
8.5112499,7.5881118661797,-2.3140425680027845,-1.0213316417400458,106.18646247158031,55.39658338476987,-92.6993508030539
8.521249899999999,7.615919932957321,-1.9447647377313764,-0.6449215429336358,101.33189005526756,46.94735444997682,-90.12066145260592
8.531249899999999,7.811619785241829,-1.7382798700986373,-0.5720457453544989,94.49028146734742,39.61901266605493,-86.77313149405957
8.5412499,8.111491412285089,-1.589816227076316,-0.6228817670890079,83.75501635780387,33.08954108339373,-80.23928272506478
8.5512499,8.275690735397284,-1.2763258565581461,-0.5761382396203633,66.91742153698276,27.207521059964943,-70.53287865730694
8.5612499,8.275133483216402,-0.8025683523933009,-0.5474663333154249,47.914600963853324,22.386532526372534,-61.278660401473225
8.5712499,8.320516520253726,-0.6593023804409579,-0.45096594928365746,30.339577101221174,18.289388837075954,-54.07554029858924
8.5812499,8.407474117730429,-0.8306570675012562,-0.3483578040305423,14.594936702345256,15.031873317759459,-47.99559482996482
8.5912499,8.436990437327344,-0.9812763768960381,-0.4501530003082357,1.305837009152306,12.33740643920146,-42.890998275842996
8.6012499,8.458071648831538,-1.1006875730804115,-0.5172316373919617,-9.115839651649235,9.680973270656123,-38.672569883756935
8.611249899999999,8.526556497081998,-1.2821347755805725,-0.46537188247249894,-16.33885468353207,7.349141489776788,-35.17292320917608
8.6212499,8.595313750233116,-1.5539898367953813,-0.4750832849214366,-20.581468683542166,5.407205571161529,-30.91827476442238
8.6312499,8.70385501667683,-1.866818149839974,-0.5236217821519025,-24.24738063135686,4.150787289620989,-24.12726298762798
8.6412499,8.769743326189145,-2.28360418854779,-0.45948360336218086,-26.7343230363319,4.342908863131436,-16.05068471247913
8.6512499,8.75963052763396,-2.590864667789046,-0.36731404610289353,-27.13014329781812,5.7849711769305046,-8.702498144749104
8.6612499,9.018933782598843,-2.681278173368563,-0.5038355473336713,-27.019414950118104,8.304975025067714,-2.5544993142356502
8.6712499,9.45368514773974,-2.924705684345968,-0.6801187641458961,-25.436003005922174,11.87510407918643,2.6375886436917377
8.6812499,9.739594895790285,-2.9908360528543256,-0.5904636165802363,-22.319851824515837,15.070596316834479,6.247707898911369
8.691249899999999,10.10819100803603,-2.7732042244979827,-0.26955187710736184,-19.09881441953891,17.710154695025526,7.979183637734511
8.7012499,10.412441237770464,-2.9302472938114623,0.01594948412089715,-14.722972933108707,20.39846153077312,8.757096534950461
8.7112499,10.421339430169972,-3.3251488759746817,0.18057494227104826,-8.713382756723513,22.416436202172843,9.513710915737285
8.7212499,10.432784283522329,-3.3940290576937806,0.22436966744555195,-2.9453486243674236,23.897830882067,9.990948222947585
8.7312499,10.452890581880068,-3.18918122417305,0.20556671472076288,0.6243745552275639,24.60786053468435,9.367417995454387
8.7412499,10.370171888922467,-3.068567603619101,0.3752274707634556,2.2001273480762342,24.08606882844015,7.78402295162404
8.7512499,10.283841785161739,-3.1213727967582567,0.6951185492375255,2.210742095829639,23.070374413427057,5.691433046264774
8.7612499,10.121650999947038,-3.237025596048928,0.932556221419458,1.365730024776585,21.5924970485022,3.500968296944176
8.771249899999999,9.90799299052761,-3.3769964718664993,1.073829810798973,0.16860233763599364,19.61176757405974,1.4030792377686132
8.781249899999999,9.746751897702886,-3.535922425513656,1.1114398261357277,-1.2512161500596652,17.66154323644354,-0.48052428643844786
8.7912499,9.58658957989771,-3.6167203926311187,1.1091466631713605,-2.6616472578741166,15.664861567420845,-2.0531109635476654
8.8012499,9.39166760542677,-3.582307127365127,1.1110617000812448,-3.9052579497808266,13.38643467005654,-3.24048897924345
8.8112499,9.25178008133999,-3.5231395631608393,1.1570782962940485,-5.293265982773387,10.89769026818862,-4.346098028973041
8.8212499,9.126925685778868,-3.6342840497862037,1.300578376793902,-6.509789125124214,8.304227520713228,-5.186092960780129
8.8312499,8.993913976092122,-3.854652531472759,1.4066241994356508,-6.686267277032436,5.71688137750601,-5.503450230836623
8.8412499,8.86869601815613,-3.92321156100521,1.3974139400540075,-5.866626408092561,3.071181659240783,-5.566095067646875
8.8512499,8.783092011833164,-3.9051537630147135,1.3536592569852617,-4.804435060357298,0.48136227952917976,-5.692090192018464
8.861249899999999,8.720058310988255,-3.945655095800794,1.2514498680125867,-3.8804339734271793,-1.9501109965748455,-5.8038394826960555
8.8712499,8.632545711228115,-3.957531307499817,1.1369052113875182,-3.297639584997109,-4.08838124390009,-5.942264357213344
8.8812499,8.627743849915044,-3.882225794208884,0.9918617803791734,-3.112097277828202,-5.6513071019200725,-6.074065243969055
8.8912499,8.670171899308643,-3.8103105983498367,0.8416034670275153,-3.0418037402014275,-6.688756356091095,-5.922459905019897
8.9012499,8.741517290222825,-3.818067328189835,0.7496508856765863,-3.17216707059188,-7.308957513592758,-5.593453801716909
8.9112499,8.908946592949043,-3.8318475182003584,0.6520215648207197,-3.201163466847151,-7.034361261565646,-5.358060298858888
8.9212499,9.036384705254786,-3.8126658900773878,0.5455418066594832,-2.6063967766701284,-6.29557924091078,-4.897033019300246
8.9312499,9.068125325437055,-3.7735214214937054,0.39196214969448934,-1.6479577113048545,-5.508194480647593,-4.042405644489559
8.941249899999999,9.096631472429497,-3.6641529077456663,0.1711813989791842,-1.0903941950316238,-4.817252794935201,-2.8363512178708206
8.9512499,9.10814579005191,-3.565753626262743,0.031933968511551156,-1.4233107819046842,-4.609794813295052,-1.4049952620716735
8.9612499,9.045993796302103,-3.528689552344377,0.004623130248653277,-2.3215195418241796,-4.531319796300989,0.12890969897401044
8.9712499,8.931028704009108,-3.471104787235689,0.02772921128451167,-3.73600828108314,-4.623944894764904,1.506324460535188
8.9812499,8.87917325281223,-3.4275208332076454,0.13732284894436678,-5.565060289783891,-4.972113703807766,2.3904782415685437
8.9912499,8.941428586282008,-3.4652310083102815,0.1935390994042336,-7.3036009581739005,-4.850009785126977,2.8401113072706914
9.0012499,9.007144982897682,-3.61171361960897,0.2187099696761754,-8.103669610914103,-4.583503344699077,3.0701639872619797
9.0112499,9.043035703967073,-3.7610480967929294,0.30367582043352986,-8.122243195621099,-4.45892706900022,3.537470374033098
9.0212499,9.105370611364753,-3.8320803459006214,0.37730665979478073,-7.863264035439806,-3.809242481744823,4.370111928107637
9.0312499,9.185516851502756,-3.88321997319127,0.4385062375965636,-6.861026024417982,-2.8983117701491605,5.252576811298791
9.0412499,9.245296190344185,-3.9623265793384905,0.5382582905094785,-5.06710444542048,-2.2565292531055525,6.003275181024593
9.0512499,9.228691988742446,-4.028323447366625,0.599541031808501,-3.2259291004618893,-1.6831852027711915,6.450996283490984
9.0612499,9.125863240117393,-3.9676509663827217,0.5381098401457125,-1.962939104485668,-1.0465383974337017,6.5865739214094825
9.0712499,9.02638778923346,-3.861417374701718,0.4408785056104481,-1.4006940045163825,-0.8093710830238726,6.361902443250131
9.0812499,8.96469018220453,-3.810442280931578,0.4453359395637183,-1.4907798624967403,-0.8523111689746095,5.5231309351548665
9.0912499,8.933903542367144,-3.7823413304605786,0.5189344520890068,-2.1641938959734337,-0.5961922499873324,4.1591421619885
9.1012499,8.91571077263787,-3.8122160375389424,0.5155954580101281,-3.1549826660435603,-0.12216639130972363,2.9010765777137175
9.1112499,8.92046000279474,-3.897432485691573,0.4735466253909207,-3.9835811371679215,0.41469850742148384,2.0015346383466257
9.1212499,8.91384970385046,-3.9247140435655896,0.48426221661157803,-4.795064039727995,0.9541271621172868,1.555862393387095
9.1312499,8.89245851551701,-3.9420535508667096,0.5642953227934985,-5.137363908058409,1.5460451891105058,1.3546109007772278
9.1412499,8.894837658477181,-4.005662067057313,0.6360223556768746,-4.435961021293434,2.2430591460816247,1.099142236955722
9.1512499,8.872676293801069,-4.09919887601453,0.5859549543087497,-2.6790218009011855,2.696827227238259,1.157621570877204
9.1612499,8.819328691759067,-4.166627877415355,0.5583524093799563,-0.20181019160022254,2.7079758548422785,1.7628653045476583
9.1712499,8.774486011247202,-4.111871294356647,0.590018917195795,2.086012074774445,2.7456274768134317,2.4101291119795625
9.1812499,8.709505926409767,-3.974446292197567,0.536504025410431,3.5598868706006277,2.8723805807032416,2.7835672014049826
9.1912499,8.663104514436608,-3.8278502736670634,0.39657269137630186,3.791914919490857,2.7662015264795516,2.9084269121844923
9.2012499,8.670980805193038,-3.731436084683898,0.2879956779163657,2.9390805760437537,2.7165349281266673,3.1704109344672053
9.2112499,8.728646879023776,-3.6954709312922933,0.2697408442339631,1.0756651216493298,2.8966139628032592,3.707613479147442
9.2212499,8.80675573897704,-3.6630390008947735,0.27175346090214314,-1.5317152033969255,3.232594996999732,4.605787846403598
9.2312499,8.84635198869269,-3.6737636692810716,0.283096685588637,-4.122808649693258,3.4852772852320832,5.760933375719158
9.2412499,8.843861395754207,-3.725750027652613,0.2862164904633072,-5.8769077497646895,3.846797008272781,6.86194776478349
9.2512499,8.823710752929708,-3.8272709156482727,0.2690580146897238,-6.5652135724163125,3.94728224214198,8.019119077256462
9.2612499,8.802403907031907,-3.9936007668693945,0.3259336787774508,-5.748984477802139,3.692160167314454,9.535275806481954
9.2712499,8.770491846523093,-4.199446130766223,0.3893854717400359,-3.151526064084369,3.476779428580327,11.255148225505028
9.2812499,8.717699352917219,-4.439402908136024,0.37265356165164304,1.4012241940627452,3.1452343769071422,12.919261254524963
9.2912499,8.697791045221567,-4.666002399530407,0.3871537083237168,7.2314830167187365,2.5270021722553397,14.441313516547257
9.3012499,8.731335080220376,-4.892964925993588,0.47790910786088453,13.966741975221558,1.8928742533528622,15.755053232581517
9.3112499,8.791997486004556,-5.014788253551028,0.5881953649170216,20.93905936412129,1.4352491393918307,16.807042786609003
9.3212499,8.873488869208648,-4.8419016446469865,0.643471852490926,26.57105707724425,1.2433150038021028,17.2679665051137
9.3312499,8.989858629208028,-4.494497433332944,0.6179380686273032,29.738745072882846,1.142545429941644,17.255781525537923
9.3412499,9.061280067136384,-4.136216660640822,0.525741333637662,29.688796711097687,0.755241821155673,17.323930072369677
9.3512499,9.09087075982711,-3.7056794339025005,0.350468894759756,25.433151145179096,0.7350489737440613,17.479130813941982
9.3612499,9.063400796200538,-3.240951936450901,0.13313410184792682,17.33207837987442,0.5690947952025402,17.560846584393172
9.3712499,9.000464551951968,-2.7846185231036404,-0.039237937537694334,6.61821354494756,-0.07667913196090388,17.23973790442073
9.3812499,8.970893927501393,-2.4242249255013686,-0.13989168332984553,-5.718042804411271,-0.8607360148828176,16.717564602993026
9.3912499,8.909262463083568,-2.3479982767434815,-0.1779000692491534,-18.635419948339855,-1.9019278933958672,16.7727452417267
9.4012499,8.749132279094523,-2.508883051498431,-0.1628252165235809,-30.07642997639208,-2.840406693039184,17.87355637317374
9.4112499,8.589343081294745,-2.8204206932635216,-0.08741942136261326,-36.70630771525035,-4.247644288844159,20.32942493373694
9.4212499,8.470496703344358,-3.2256682874862297,0.02678389272181184,-38.485030234322835,-6.3034399309834495,23.894518488945955
9.4312499,8.321320634863469,-3.5956081698577895,0.11207897600828465,-36.28527425896057,-8.718832517409828,28.141518504582884
9.4412499,8.154314785976487,-3.876622438566039,0.12672985883049237,-31.181428924171346,-11.641259534039943,33.31894162058824
9.4512499,8.074572491444044,-4.0485566177483765,0.12056826621029511,-24.653214674139416,-14.967944039012139,38.95720999498417
9.4612499,8.054730309122855,-4.114481303095363,0.12536264824657142,-18.097543441775073,-18.275536131922465,44.328273049456335
9.4712499,8.017304489519896,-4.120898094718768,0.05193617918510753,-12.686859290966334,-21.590351375177253,49.48102120023549
9.4812499,8.02838333600899,-4.101349131640681,-0.05559560401800286,-9.755730447929198,-24.65494401712354,54.68569512701154
9.4912499,8.095622818721179,-4.047032948541395,-0.14707396420494925,-9.780479089772442,-27.350274845617857,60.11826209167914
