# Time (seconds),Accel_X,Accel_Y,Accel_Z,Gyro_X,Gyro_Y,Gyro_Z
0.0012499,8.470281146519573,-4.410594485618305,1.021558191868314,-11.797380772475837,-2.195938179136381,-10.54470563017122
0.0112499,8.451621157527878,-4.2848546021378695,1.001587230990072,-8.562319042182356,-3.9418532794425585,-10.323548743936993
0.0212499,8.457760569550567,-4.134462194804655,0.9106808674194622,-5.747499088597042,-5.049573081393367,-10.915788604407327
0.0312498999999999,8.602558912444964,-4.056398843951092,0.9619564068546475,-3.8915127982028843,-5.659290433483472,-11.421604871025137
0.0412499,8.805510787751754,-4.003428666473805,1.1712386105066581,-2.7815825188157044,-5.640101825803474,-11.36370741158184
0.0512499,8.977295100756397,-3.8493953474150167,1.2927494470074132,-4.250234849207265,-4.973877773282539,-11.048061777484417
0.0612498999999999,8.97168821654061,-3.9336449796007456,1.2174654845303805,-5.939614444145482,-3.8485227763176777,-10.651529901049111
0.0712499,8.81253248587384,-4.056681078357644,1.1050591429951226,-7.479173472512954,-3.196823809917295,-10.06793595473066
0.0812499,8.745131531555037,-4.076861972103869,1.0413804827898723,-9.700965116576908,-2.9335093194450437,-9.492577283481141
0.0912499,8.647077584708933,-4.320931350975005,0.9657963596652601,-11.155151156566378,-3.0334264126086237,-8.446134457322612
0.1012499,8.448937329862277,-4.536964507655601,0.7779500698503514,-11.938717540918535,-3.347581679613413,-6.514820595013921
0.1112499,8.27432862753419,-4.40219996940703,0.46471994965720437,-12.594736261677772,-4.126653128607578,-5.103203508313156
0.1212499,8.12738684178548,-4.220007637437059,0.20969437125151882,-13.531430536107662,-5.29013709341511,-4.948706797884669
0.1312499,7.996512066812907,-4.195552242391116,0.07920303956252397,-14.744937818808236,-6.653796338249124,-5.29386269983602
0.1412499,8.039001873872364,-4.192510318796234,0.014235098069122471,-16.239287365113764,-8.067887367108572,-5.208003656358989
0.1512499,8.225018256048612,-4.184033366062013,-0.03461085962564674,-17.757279469766907,-8.701434134971867,-4.448363934269205
0.1612499,8.389576142966696,-4.086639424211447,-0.0734142833207506,-19.635219451836885,-8.769346357562483,-3.1844524300799897
0.1712499,8.518798701983577,-4.00791375491547,-0.07651780908158887,-21.06609851554785,-8.340355768161897,-1.7286983890136192
0.1812499,8.610535794537352,-3.9407289897974316,-0.06310427597820263,-21.547677018144473,-7.416963412198777,-0.43433176831789105
0.1912499,8.690590163988348,-3.8152408518834746,-0.06664164811245182,-20.769081051879795,-6.387561466740525,0.09528331910135575
0.2012499,8.758193636256625,-3.8000355780071002,-0.010758091600842788,-18.34619453921465,-5.421607400435351,-0.2536693466613817
0.2112499,8.842015184364103,-4.027446183315052,0.15870592145051177,-13.14604524017835,-3.813009525491904,-0.4492051456716507
0.2212499,8.88459437517702,-4.3427787994151705,0.25578655552040425,-5.704760692107064,-1.7561376789760734,0.5400142877115964
0.2312499,8.862001434954227,-4.405359791542838,0.22040819101633724,1.500815735260108,-0.5263195046742937,1.8598670548685292
0.2412499,8.902369357150835,-4.363688602276935,0.26055305197008305,8.873930256587947,0.4222195257249497,2.7185491995524758
0.2512499,8.927746344252741,-4.412836373040156,0.33639595478189294,15.738806546470991,1.3757495941205633,3.483431539868443
0.2612499,8.88371257319814,-4.4800487934212665,0.29693215154007224,21.524396681081477,2.194440121180454,4.5438747606584675
0.2712499,8.856811182662438,-4.434253329885853,0.23732643345903062,26.289278456443938,2.9297072096451093,5.924908548734836
0.2812499,8.816832473118057,-4.286953120471692,0.20156840389005914,29.49470214512325,2.893850085271838,7.065715213142026
0.2912499,8.73517668162769,-4.123853648216315,0.2155661258804559,31.518691998488723,2.329335924866818,7.969566665685718
0.3012499,8.590450448972415,-4.011292382731597,0.2610873457357881,32.11396976012967,1.459320793498825,8.805486028113275
0.3112499,8.416003768590118,-3.9547851365776405,0.1922513949741757,31.52708991499886,-0.004220270175031653,9.485540296999204
0.3212499,8.39738210107596,-3.8487389897465336,0.11637406821561674,29.619745854834292,-1.7346681344468997,10.09731255933098
0.3312499,8.47726738329478,-3.7573935027682284,0.17225052676584635,26.280213505147795,-3.4539205681139435,10.643665246670512
0.3412499,8.486348335815634,-3.741622141551292,0.21114086292353781,21.64710833893262,-5.206618822967289,11.226801703768981
0.3512499,8.52460399786087,-3.8290797961899927,0.17703904013980915,16.429881656131293,-6.554918975184537,11.600884177600419
0.3612499,8.54923279575411,-3.9638355359090927,0.15288228805497248,11.158519419661276,-7.715507005407075,11.90610177152135
0.3712499,8.546609220727467,-4.12136494759399,0.1337516338731844,6.467043711164243,-8.807362336010481,12.144879586855717
0.3812499,8.573587210032471,-4.2757714910322875,0.0630489132340441,2.659645351596723,-9.459151891066258,12.085431183664436
0.3912499,8.532827656650522,-4.394918792452483,-0.05021880105357883,-0.10750654061414654,-10.071193325579276,11.831494540632013
0.4012499,8.505786872603233,-4.519137728562232,-0.05968160295311099,-1.505278541012941,-10.84000064747842,11.347609196003939
0.4112499,8.555730145445517,-4.680348077396869,0.07470708960960751,-1.3528664913115187,-11.266918625076976,10.866581127144116
0.4212499,8.590123596060327,-4.794250035385162,0.13824700149039873,-0.04971638824463885,-10.884899172267879,10.689175936742249
0.4312499,8.617623469878017,-4.85067021213713,0.09835419038332159,2.314442458492012,-10.155110106339095,10.690498447113375
0.4412499,8.659906143974672,-4.870624218017437,0.1583411061249852,5.124364921107658,-9.576538638626596,10.850307063514169
0.4512499,8.684440752914352,-4.819075332927518,0.2460703932113621,7.939591995726595,-8.473472603408572,11.3468052581584
0.4612499,8.655370294055544,-4.738363010931952,0.22452870551587326,11.138103525960211,-7.344057575563225,11.799631711556744
0.4712499,8.590425988285453,-4.644971967640921,0.2159309678570033,14.663257218039492,-6.955263390970752,12.066972513044512
0.4812499,8.56066706501075,-4.558755180112285,0.280270776974452,18.112472620296003,-6.84179389518841,12.351340123416673
0.4912499,8.582916805377398,-4.451990271669329,0.2791054762334885,20.985761284218775,-6.738801170012423,12.835340767169475
0.5012499,8.630405621341312,-4.293445893283148,0.15469333728468893,22.485272260818224,-6.414857555347805,13.61701383699496
0.5112499,8.672661105975541,-4.141839828820521,0.09181464434359649,22.398241008236983,-5.955998909776416,14.459088753892505
0.5212499,8.720006622801113,-3.973536882573916,0.18243261671693636,21.235512013907755,-5.464200611608756,15.178701525467352
0.5312499,8.807707256000578,-3.827220989932647,0.29668208205408664,19.313690514132162,-4.716327932213875,15.679269753127107
0.5412499000000001,8.866704474709357,-3.826222227255878,0.29544315123626425,17.3166083465809,-3.8314300734849236,16.40405488608461
0.5512499000000001,8.803286792827123,-3.955203311537849,0.2759249489013583,15.984051412170007,-3.3849827355944093,17.55611624527403
0.5612499000000001,8.777485141957145,-4.06285829889251,0.32116565620053145,14.759137793919294,-3.3057323851956397,18.888067214300587
0.5712499000000001,8.87490928082137,-4.082255863508189,0.3193448805247324,13.427845891238738,-3.1535682155317124,20.09817479798302
0.5812499,8.96896043547671,-4.1145988150382,0.32496060232535073,11.615847128545242,-3.0740208926475443,21.046722190815554
0.5912499,8.986540192785862,-4.262554515657951,0.43000426463439706,9.497062263700768,-3.1022853586384254,21.406910410180647
0.6012499,8.985718993806517,-4.482119186917318,0.569824604990568,7.368065960381693,-2.8877624285200305,21.219969120153298
0.6112499,9.016130061319894,-4.711076606614833,0.6822182053381898,5.5956876581068835,-2.3462974375383356,20.735203574370722
0.6212499,9.04509033666604,-4.984121294127456,0.7478945891845111,4.566689942822322,-1.7473291423545905,20.054000475565395
0.6312499,9.04954378372251,-5.374236017060436,0.8415980828621292,4.978646187759274,-1.2475046928357998,19.502563588874203
0.6412499,8.988158568947744,-5.653131122777004,0.9893891105117252,6.682955540051533,-1.060648637861702,19.107651339131934
0.6512499,8.938050064390014,-5.746661005286475,1.0524910487400834,8.968249089460773,-1.0445422943142082,18.490561854566106
0.6612499000000001,8.995012515352082,-5.790766338224733,1.0142275406010708,11.307786072217903,-1.1519219718495497,17.56236184911179
0.6712499000000001,9.067541417670549,-5.8426354454920695,0.9565185558517819,13.21922297954429,-1.2856798440020982,16.455117440870477
0.6812499000000001,9.094161294936148,-5.8711199340784255,0.9421451556493563,14.527930892550836,-1.660316134455662,15.114849050741247
0.6912499000000001,9.16320243207745,-5.831674068635515,1.0005911110995653,15.049582541125945,-2.0490085840565646,13.264049787523025
0.7012499000000001,9.244223940292294,-5.728461872166594,1.0061269295403317,14.642130153576376,-1.9356952303306345,10.765088981083702
0.7112499,9.27016737648719,-5.598221776593591,0.9259714539092689,13.42453463594375,-1.9543646146322378,7.567058077110782
0.7212499,9.271255900119943,-5.4615112974528,0.9025477188135538,11.6933169823205,-2.509989617091405,3.6755115091779227
0.7312499,9.29819355115666,-5.393144595432905,0.9595469236693968,9.845937950260769,-3.1264766157307995,-0.6509115977731773
0.7412499,9.311840096371348,-5.405479097146625,1.0101705105937457,7.751199627950336,-3.3656512714778426,-4.7858602468195075
0.7512499,9.281950971279333,-5.474084996062694,1.058829431099295,5.813250437883627,-3.6487348963304704,-8.262347661661053
0.7612499,9.259685409771416,-5.546802911725754,1.1155267756951908,4.29957063616482,-3.907789203705081,-11.22060052740781
0.7712499,9.267001364075428,-5.599024924578717,1.2051351541747215,3.2211531604912347,-4.006825406304246,-14.005159986531883
0.7812499,9.280059864507269,-5.667872336421337,1.332479681745432,3.1461661053640886,-4.178968381846093,-16.68587159888685
0.7912499000000001,9.271664155627025,-5.69649259218831,1.4190310671091382,3.5559391531361144,-3.949614391739058,-19.27466086588968
0.8012499000000001,9.250729133175447,-5.6745270011695315,1.4605377338652497,3.933538279356183,-3.4259400867349012,-21.61983643464706
0.8112499000000001,9.198705565438576,-5.5613809954681415,1.480841836111647,3.7046605210788615,-3.2185802907330254,-23.969448791792328
0.8212499000000001,9.147054510883144,-5.437882848527083,1.4672807378427521,3.419385275468728,-2.8195788209376342,-26.215478269938814
0.8312499000000001,9.075486558684386,-5.351890037934847,1.3983101031117136,2.6872153806118435,-2.421355717700734,-28.306893370144902
0.8412499,8.9921782579165,-5.210684892547448,1.3025601444803534,0.9179704864472593,-2.651692246133308,-30.48652759468272
0.8512499,8.982971668034898,-5.130443367068212,1.2873618331744228,-0.6823850481853334,-3.110689467486946,-32.239751657739546
0.8612499,8.966981267843783,-5.038307657660507,1.3305010665724541,-2.1390049696097293,-3.352119290096146,-33.474760766811315
0.8712499,8.888231118158826,-4.870812173267275,1.3390931436865017,-3.4509247367018627,-3.4378676468075695,-34.83134665885707
0.8812499,8.818727790183614,-4.7373824582954915,1.32270826514322,-4.404961931962043,-3.631874228835067,-36.35188954197164
0.8912499,8.806244714745548,-4.667741804305258,1.3309320869118721,-5.152650982964213,-3.7669431414603647,-37.6528375582055
0.9012499,8.793066570112352,-4.622079796254627,1.3905178523301156,-5.425122533607437,-3.784550862414455,-38.568880455970316
0.9112499,8.777174073276658,-4.571526115917073,1.434819074850822,-5.0181153263538265,-3.5578798110015883,-38.896406779173255
0.9212499,8.767817507055545,-4.5553293636399,1.454759331177484,-4.2117949084095265,-3.147284970666592,-38.39917070907342
0.9312499,8.677362074316916,-4.517839530871632,1.4764776294163953,-2.877307416673654,-2.5819597072084033,-36.84747216173126
0.9412499,8.506109156207799,-4.383224405154265,1.4580922470697737,-1.2774697087820783,-2.1155820302931465,-34.358902656982224
0.9512499,8.372762028429886,-4.205411312349451,1.3756493441921591,-0.26820695623801816,-1.5370153823910209,-30.993130416172956
0.9612499,8.212929635341407,-4.02264748400636,1.2598294781836668,0.05936083163929941,-0.8648375330826483,-26.78574319393621
0.9712499,8.019771801404154,-3.7972960441356163,1.1334710309303488,-0.2119539202534336,-0.4008481159515959,-22.24863215483862
0.9812499,7.854465721240641,-3.547278064025018,0.9890775376910613,-0.6796393058320533,-0.3791211632578999,-17.87598419348455
0.9912499,7.6895088870236945,-3.3225370025090393,0.8310138351613217,-1.030558663328483,-0.9672207402750718,-13.853713640682006
1.0012499,7.51390527951984,-3.155408172921045,0.681113490302631,-0.8405855094019475,-2.0716002591231653,-9.999690752159921
1.0112499,7.328490589987543,-3.0375330267922633,0.6039688780597635,0.18594944359413093,-3.7519044429382933,-6.071410778958948
1.0212499,7.15547823961838,-3.0388034548424643,0.6450738845595962,2.213595544913221,-5.772632624103051,-1.530596214529303
1.0312499,6.98950340266337,-3.0738040154020707,0.6969286178533135,5.174882008202289,-7.7735595981220795,3.807731861098005
1.0412499,6.808623085774575,-3.05293741776598,0.7357444778256441,9.319152708429051,-10.013939588501527,10.103765420527253
1.0512499,6.608021350339652,-3.014463160699912,0.8101248199346168,14.554698720594278,-12.729415444746063,18.576750871633926
1.0612499,6.398353146356552,-2.920263646907424,0.7577332892144644,18.501677725540862,-15.178452545958475,27.373780134254293
1.0712499,6.1153418348130035,-2.6925291280508548,0.5898871823011693,20.250350514978276,-17.378830379692484,35.8609401419931
1.0812499,5.78311059850277,-2.4343035062037597,0.36679810445728744,20.392879995692752,-19.58005524042821,44.595921280190794
1.0912499,5.440342733408318,-2.2220061697461215,0.11960206309756538,18.75314881948537,-21.636153653249497,53.49666586834605
1.1012499,5.097546853849916,-2.025827790136017,-0.04454804363095023,15.523389427303542,-23.289333568453465,62.73328710880819
1.1112499,4.794563933434463,-1.7833501082326804,-0.26295383659399124,10.97652188005505,-24.171697984434342,72.01292398271453
1.1212499,4.611137648108584,-1.5920452777774794,-0.6595478866353521,4.145782602577978,-24.366707600504288,81.91640698001622
1.1312499,4.381404128290699,-1.6419842627116223,-0.8990900236750483,-4.3687644092376114,-23.432393003927352,92.57473319852859
1.1412499,3.902543542910124,-1.8356317143817058,-1.002439433681153,-12.67574981743375,-21.682055404961265,102.98102400948767
1.1512499,3.416978365923936,-1.9993415020072742,-1.3583993513530144,-21.381011073957737,-20.4109944449177,112.79493005146038
1.1612498999999998,3.088269383378672,-2.201395712205925,-1.7631803965333692,-30.817689331572684,-18.494996530524393,122.3583583083816
1.1712498999999998,2.5932899494639896,-2.703762548663701,-1.9316185689072043,-37.7182789519448,-15.94464058321796,131.0912424351588
1.1812499,2.142478522114552,-3.3130516766909763,-2.0099382781541664,-41.45202718512775,-13.759088691025367,139.9046055347463
1.1912499,2.051960077778842,-3.8537842731520167,-2.217483019250233,-44.07140526120888,-11.378509096784539,150.63796058708624
1.2012499,1.9758918606110427,-4.3811283625573045,-2.5225738309265533,-45.36845453032426,-8.042378031452941,163.10002874632633
1.2112499,1.7097643167891161,-4.842145478629791,-2.8441866853967817,-45.93386975390609,-4.852835128070977,176.98286677980892
1.2212499,1.5491681050138575,-5.4585427184976245,-3.1704804910075692,-45.834623187466086,-1.5623629582805791,192.13511566651871
1.2312499,1.628486468621371,-6.114505640658233,-3.4836912474201025,-45.619976667797104,2.6428655145276787,207.7636686005219
1.2412499,1.6220818062926448,-6.698204959777239,-3.8653153124337916,-45.96475934810063,7.385129945855292,223.0817222295162
1.2512499,1.5619311824049666,-7.392350664896789,-4.339258599085942,-47.771460042050634,12.22814949247001,238.62977216646004
1.2612499,1.6874527843985443,-8.170234156538939,-4.913926016443613,-52.385177404760206,18.073234430196084,254.5415516316765
1.2712499,1.901737536087031,-9.04688750167099,-5.422633906254156,-58.299956322868034,24.362973246295546,265.9453310052998
1.2812499,2.1073202537143105,-10.3217516449293,-5.756645326122125,-64.19651541918475,30.61288917862557,273.45781002308325
1.2912499,2.3167368581254846,-11.890046960835551,-5.992734214293971,-70.09288645527343,37.28669379104752,279.66603350782026
1.3012499,2.5725807837460177,-13.38657855720903,-6.070911986742715,-77.24962391561115,44.69000318380789,284.3995461325902
1.3112499,2.9206478651001495,-14.499808500392604,-5.9300535141571,-86.53552783757017,52.214851144475624,286.55196358831614
1.3212499,3.53177750054239,-15.523836257277171,-5.698144617128226,-97.71016635577524,59.1981741246906,286.1098550181112
1.3312499,4.262921627791796,-16.734965683009303,-5.495136057233586,-111.04125973066623,65.81026773145408,283.6524898360417
1.3412499,4.733198923815582,-17.69559695814523,-5.484079703878895,-125.69608506381171,70.8185637267683,278.62603494828403
1.3512499,5.149818944311526,-18.448689630206626,-5.686146590498979,-141.72142185766472,73.25851736193425,271.1238670932377
1.3612499,5.835198638729663,-19.36252143323837,-5.751736391081783,-159.81972656718335,74.43562689658098,260.67858604370537
1.3712499,6.471066562162103,-20.569562437679185,-5.403686599254997,-175.76563673343964,74.26315712649414,245.9548258413819
1.3812499,7.085455788781898,-21.764863048678723,-5.177561129718503,-186.15046399695402,70.91892756807154,227.21278977178773
1.3912499,8.09232693201718,-22.518335418310343,-5.440892331393958,-193.3866007460142,65.05937558301316,206.17029535700567
1.4012499,9.220139127732036,-22.884535196735225,-5.4823239764909175,-198.97819918345616,58.029919549275874,183.4324140061429
1.4112498999999998,10.135435068089738,-23.070127158517938,-5.215334934466526,-203.59904467771116,49.697591427103916,157.97644435454274
1.4212498999999998,11.159569176297271,-23.042640418712338,-5.124533702717485,-208.13712126690908,39.748421805048544,128.6799515152081
1.4312499,12.377892574019125,-22.83247297852746,-5.214186062311582,-211.12345669406577,28.172351911290598,95.58485786575243
1.4412499,13.88130188934759,-22.694582358730752,-5.31993637132617,-211.12274695204124,16.179997168066713,60.139026376464514
1.4512499,15.75936001122215,-22.78843383682095,-5.211466720137897,-209.94164318522144,6.205829588089559,25.097078762714734
1.4612499,18.00540953705746,-22.87895171468075,-5.078144178099539,-209.3413309036921,-3.59399550721273,-12.488716191915499
1.4712499,20.96268665334005,-22.055973596485718,-4.844081398060668,-215.1074625423783,-15.850748610307347,-59.50079107613749
1.4812499,23.66878615918396,-21.19270933024731,-3.112769213481135,-227.3356297271417,-29.415127259067173,-107.90509628840726
1.4912499,25.546222269084712,-21.19815324305466,-0.23037582280597158,-241.6875963562655,-45.43262615738843,-160.01975836837897
1.5012499,27.001682002460836,-21.90443874196347,2.8145051160111922,-254.54493000097725,-62.18008850286905,-218.6848013886095
1.5112499,28.32643201562144,-23.384676835397894,6.235005523970332,-262.572700280369,-78.78096886735288,-280.08612411146106
1.5212499,29.26388905387037,-25.922221060378288,10.428141259381114,-268.502994900004,-95.25720421661931,-342.0197286957067
1.5312499,28.836295508224026,-29.74082440737438,14.619750685124005,-276.9529772378561,-107.5904518125032,-406.96728219800406
1.5412499,25.88658109862295,-34.84774312386109,18.126700797511887,-287.56752375000616,-113.01440240084695,-472.5142800192538
1.5512499,21.04737300851057,-41.1159973107154,21.648301167839946,-292.57307855859517,-113.19141514726627,-502.0064201995603
1.5612499,14.777463903588975,-47.48297561290169,23.735034138547555,-284.0821309744626,-114.54487216409252,-499.8576553776223
1.5712499,6.200976340017852,-52.17550251276333,23.050433086191603,-259.4400003816577,-125.26267818588576,-499.68800722336204
1.5812499,-5.167465741944006,-54.33079732951827,20.484231102986133,-218.49841413281942,-154.83264414343873,-500.1411315916
1.5912499,-18.900553958210295,-52.09082888336708,15.652700717031218,-172.92300055026686,-209.50133988402405,-500.1112770347416
1.6012499,-32.326477926666,-42.25544756055736,9.518562022498076,-140.9844094858645,-274.52037524443125,-499.9140767832899
1.6112499,-44.16372386561963,-28.532234267712727,4.809991815471865,-132.89459216750834,-328.94617372361876,-499.2667219520808
1.6212499,-50.19839527782177,-15.099149384737538,0.034661139844988226,-149.64355071025372,-340.804884772427,-503.0868548615091
1.6312499,-48.71658747453654,-1.234774412754692,-2.3358977720700933,-184.3717391729404,-300.79157972070396,-479.0041402853003
1.6412499,-45.736284176387635,8.080890891565337,-1.9782988709631235,-199.55955999526304,-224.24829165158127,-404.83557459558534
1.6512499,-41.11072234378891,12.599778817907733,-2.590562797116843,-176.78373861284908,-131.0471956179752,-317.5927812312606
1.6612499,-36.24488876209878,15.394347201561189,-3.5133829747232297,-131.90620876765712,-45.637763991783316,-225.01541445508767
1.6712498999999998,-33.54125067445931,14.369587632393314,-4.631683847802604,-59.822724915784825,28.056777314077728,-117.90728267273671
1.6812499,-29.838776690648864,11.631560869206588,-5.951573060106115,34.86377588504851,88.49828459854301,0.9673363277291274
1.6912499,-24.94335255748978,10.11674695590965,-7.377688992581438,101.78225917593413,125.81814730316155,88.41131495472342
1.7012499,-21.69794018889723,7.573239211238487,-8.549854561326908,133.62282233082365,145.56413783639346,138.18396047183646
1.7112499,-19.62437421677738,4.4887122613479855,-9.995117156027106,141.9158475239226,156.42086078540362,162.62366641975197
1.7212499,-16.786721687190404,1.8140007981970878,-10.911416218650551,136.87311393877252,155.8944626022909,163.32220011726662
1.7312499,-12.702313153008392,-1.1495371707238062,-10.587360579638018,130.20254394945283,145.19655997763658,153.3180305250962
1.7412499,-8.04576981145059,-4.167592341155148,-10.17726683868757,127.71472625693399,130.8596470517577,145.66943681545195
1.7512499,-3.2571058763191214,-6.352384603447394,-10.519858101003676,130.86885374243732,117.40007948912574,142.3479590303451
1.7612499,1.2690670966455913,-7.425476310195668,-10.97728975518132,136.58604267736337,106.3755783614374,140.23000124387121
1.7712499,4.592387737691748,-7.728009115610659,-11.001486323541352,140.8656505812164,98.897603665755,136.5412892434669
1.7812499,6.065009054032948,-7.930616804278431,-10.93247709973142,142.33473444454458,95.52008353289062,129.91775540309473
1.7912499,6.4834713155289805,-8.279916030917008,-11.033702610968346,140.19017119849758,95.4840483236219,120.69043293659136
1.8012499,6.873281009394838,-8.569721564000321,-11.252181823210345,136.80638959854693,98.63127348330264,109.16629894201303
1.8112499,7.232347996832697,-8.641420936670087,-11.318095235200252,132.1455647179837,104.09912014852986,95.5519606944425
1.8212499,7.286627015362725,-8.348389950882488,-10.903893595059847,123.69600895537145,110.0665670217867,80.53312747975339
1.8312499,7.362057572313666,-7.647309004197917,-10.189871858027125,111.52244332411371,116.04472786785044,64.36205227219446
1.8412499,7.7205835517581205,-7.15623893739089,-9.299427377791266,100.28450091448076,122.32624002591945,47.23968781359766
1.8512499,7.7945836079440305,-7.185885075418117,-8.047148343162524,92.54486353908679,127.73886828815941,30.881965025491528
1.8612499,7.3703427734116636,-7.306797472596967,-6.844044536486027,87.66408773860901,131.178955707126,17.25500486511496
1.8712499,6.787159764215097,-7.401808665558724,-6.144444711565864,87.2453311404223,131.49827949275598,7.027038515815523
1.8812499,6.218176062596006,-7.442855829632069,-5.846711490803381,89.76287865856966,128.52790972049172,-1.017176438820954
1.8912499,5.7987069132651765,-6.937148459269394,-6.051529552680398,91.16933965773103,123.97860722215394,-7.899254721799136
1.9012499,5.626597289637257,-6.331303186688138,-6.421664595645675,91.01696427980295,119.11918421812803,-13.17072668869992
1.9112499,5.643749560708752,-5.591229412145352,-6.183402763584731,86.39956584232635,115.90496012795583,-18.755679686531966
1.9212499,5.8614644716755135,-4.7752138026040925,-5.343802729468172,79.96570446706238,115.17491634655966,-25.17715186995655
1.9312499,6.472899936715632,-4.53807664894047,-4.62516884818686,76.70978764595105,115.75466743892234,-31.547182250779176
1.9412499,7.265067819739259,-4.362683389184322,-4.065671484369534,74.62021460116887,118.48422102250267,-37.46048645010242
1.9512499,7.544288465856868,-4.061602651056936,-3.3978659479362654,72.24482599960774,121.7915709002835,-41.82066749287806
1.9612499,7.5161250752504944,-4.011645084855032,-3.198448619305004,71.79243524971187,123.52555969559566,-44.07685450635357
1.9712499,7.467973466128405,-4.016015880840914,-3.553010749646532,72.62862625388244,123.43149832054888,-44.61099604562565
1.9812499,7.15614425158385,-3.9356885985514416,-3.707174259822076,72.85208170495251,121.75964451662578,-44.02176363092187
1.9912499,6.859309393460875,-3.880502049140217,-3.5451095893597104,73.1202403339129,119.83697599677048,-42.79215711536115
2.0012499,6.901872082341581,-3.8877871190601314,-3.3216483209454846,74.69994451432324,118.73060448176214,-41.396570943883184
2.0112499,7.021869907355195,-3.892727476334735,-2.941273245079072,77.65906380710463,118.58299062180974,-39.87283487612587
2.0212499,6.973189827136453,-4.010400041860064,-2.459878236019143,81.0871889152121,119.32037147006832,-37.76029813322682
2.0312499,6.939581103356033,-3.999280820952823,-2.3842076064501248,82.96138345879139,120.64652995752303,-35.10324928280381
2.0412499,7.069721289484832,-3.583088069263628,-2.665643121651571,82.10821610348795,121.54638108695536,-33.457105541672654
2.0512499,7.288583272064819,-3.21802194683642,-2.6121713052769038,79.87865599583148,121.52340329523375,-33.107702620871414
2.0612499,7.451854546446398,-3.2027757888987702,-2.2152303097798733,77.66794260139346,121.29222252531757,-32.95248787727485
2.0712499,7.4659596581128405,-3.4760607220035356,-2.0451150897410173,76.5366675988265,120.24704899058017,-32.1930080600816
2.0812499,7.435586905451034,-3.691221852037363,-2.176906132385744,76.49411774754608,118.27926831770927,-30.766537756068463
2.0912499,7.4193388324043035,-3.7343193184456163,-2.4228875624954775,75.68071408521246,115.89151830544618,-28.30708539364939
2.1012499,7.142957623481313,-3.4294722025362145,-2.6734564932530565,70.68889047128849,111.71891998140259,-25.336052271234568
2.1112499,7.1196399721913375,-2.7678841500602824,-2.8770918203277587,61.537341241137696,108.31805033941663,-24.034986552951764
2.1212499,7.911833331551044,-2.3710264238415606,-3.0594148155297853,51.83426083034309,109.24056207574304,-24.253236200963638
2.1312499,8.410221835706679,-2.5495970920184248,-3.0568888588568606,44.76124110423135,110.60229716599123,-24.376066124720985
2.1412499,8.28311750472277,-3.4114893224139813,-2.9486048242240077,43.08091186406243,109.44613840679554,-21.388593651420173
2.1512499,8.259444321064729,-4.606482487793134,-2.8976783392047856,47.819335646992236,105.68781393591838,-14.62803510632888
2.1612499,8.293106560814852,-4.917040532537908,-3.0430287861972314,53.188865833798125,99.09152901396514,-6.797771361439318
2.1712499,8.633357200955476,-4.72176100864761,-3.374916907245111,59.90088025221622,92.5424679723257,-0.23928134859302946
2.1812499,8.811467121192235,-4.448316538025986,-3.5063572047582583,65.27149237227412,85.3228296426593,4.0298539679284175
2.1912499,8.849349419979172,-4.234983081595511,-3.4879645618102764,66.7513103353224,77.85229382584724,6.785007094296396
2.2012499,9.243035725267259,-4.504943870254573,-3.4920256857632426,68.60695399124435,71.11428110113766,8.966077909032892
2.2112499,9.552646581091517,-4.846485596074739,-3.47231117112658,70.1429323291747,63.86170439490376,11.063353289112635
2.2212499,9.594319878940192,-5.03884667668824,-3.3915146858420857,69.98544465362795,56.23076360638978,13.511850401822969
2.2312499,9.634842801368032,-5.131924946280554,-3.3493968310801483,67.71028663489614,49.10613664860699,15.94606241986685
2.2412499,9.754017494902046,-5.025925899852516,-3.442921018099865,61.92972748575576,42.65957142547125,17.61677726841575
2.2512499,9.927513032095513,-4.728902378519066,-3.4934721913718585,52.23587888884497,36.91833805668335,17.723202934217976
2.2612499,10.078031310761828,-4.555588182409767,-3.29699552180532,39.8602193576497,32.07920625281789,16.521578323679194
2.2712499,10.209735728405596,-4.586090466743595,-2.865377421581725,25.585039705484867,28.770666272566046,14.87657752931511
2.2812499,10.353051869505133,-4.853345879116907,-2.255477419272558,11.905802242981977,26.861022178680557,13.374560781905364
2.2912499,10.389299971827379,-5.280350882928786,-1.64624250991552,1.0125853957442534,25.94770728204934,12.238550464560852
2.3012499,10.041062990714142,-5.61300671093967,-1.1793623428774558,-8.551492502596618,25.287663835948194,10.958984560440442
2.3112499,9.495430176826794,-5.9135440558149055,-0.9293134304978425,-16.31475691409574,24.054651257119442,9.3005806016393
2.3212499,9.076770007497935,-6.195338637704467,-0.796870700588053,-20.364376927527427,22.218516823743457,7.461439839610012
2.3312499,8.74591152069916,-6.285058397858336,-0.5758074745988091,-22.545822300537093,20.202487597555134,4.776164870689244
2.3412499,8.510538433470714,-6.380213524385978,-0.4060102621658602,-21.877441670360234,17.950645829946563,1.3575393006154775
2.3512499,8.284284521454929,-6.515263989135822,-0.3245814619561863,-18.376116207875906,15.04961105374927,-1.4277067034655595
2.3612499,8.033349973854998,-6.4081717685246655,-0.2756918810753902,-14.047486841065481,11.878374280841493,-2.8299933739053635
2.3712499,7.863411193345139,-6.077953828902903,-0.21018449964648045,-9.633377291472144,8.853132180674082,-3.53769768994439
2.3812499,7.925383580860211,-5.732752717225923,-0.1397270728830418,-5.868881125080161,6.7062313868346575,-3.755301595058206
2.3912499,8.149066150423875,-5.387881406353993,-0.022617377756865457,-3.360715768680839,5.294634364348205,-3.1602861504077566
2.4012499,8.366459124099071,-5.075663657390816,0.13893561740211854,-1.7515993850319893,4.2905433115971165,-2.1401218316113977
2.4112499,8.468908108275354,-4.867118192826896,0.16723293082158275,-1.5554607489124086,3.6843891588857502,-0.8816459997572059
2.4212499,8.484501926958792,-4.7042599472358475,0.05384815879549719,-3.020316923331153,3.667301445685679,0.6756304629882998
2.4312499,8.486836230436674,-4.548395481171029,-0.04371669123483105,-5.4053376170076985,4.085756566744873,2.172866226590331
2.4412499,8.507119027388933,-4.471551283623179,-0.10071540487429156,-8.5810441587843,4.42426359499187,2.865835748345382
2.4512499,8.54081998094844,-4.503772108756379,-0.13324411649682968,-11.823455921905767,4.774859440014862,2.5520540980728006
2.4612499,8.526625012855492,-4.5921924464757815,-0.1339805784219396,-14.500974877718066,5.044655193784043,1.6483701596267726
2.4712499,8.510424802919456,-4.796626534413173,-0.08389822485525586,-15.578113374482466,5.4476241453066505,0.769164730894955
2.4812499,8.515268032203112,-5.0882798681802885,0.001336455093359029,-14.63568549695479,5.680627846485496,0.15241553176900474
2.4912499,8.485127692505696,-5.367145790366349,0.04338680935616899,-11.911385731183948,5.748974390570303,-0.03844976288404374
2.5012499,8.381350202324171,-5.567368270940589,-0.011108743699532872,-8.15766263645086,5.5133248623014826,-0.020012832956215948
2.5112499,8.259527798207172,-5.606097980228537,-0.14720426492568509,-4.211970241687893,4.421276362061027,0.08014863467790384
2.5212499,8.23236187236923,-5.480031347325409,-0.23587233893896323,-1.2242297063721996,2.9145167326239685,0.023467809411823304
2.5312499,8.302764536991333,-5.335071527261368,-0.21479882834839997,0.0814033682700267,1.8611321329153223,-0.24022761087292321
2.5412499,8.307228506482167,-5.22302922270812,-0.22338010993142293,0.04571703120862122,0.9027315310484451,-0.0593477513869286
2.5512499,8.266092247823126,-5.146574260852466,-0.27371755399638836,-0.9717942114856674,-0.056257113547212245,0.536615181179948
2.5612499,8.204602926538183,-5.019390986065825,-0.3368724720585919,-2.8382168414445776,-1.0692393639316795,0.9051238881443694
2.5712499,8.094635724727668,-4.939374271042529,-0.4413618676182443,-4.666259515986495,-2.40082620428472,1.2929215427223117
2.5812499,8.008930312247703,-4.970404553602047,-0.5249748587703766,-6.331487931367132,-3.911268845382716,1.956522285344578
2.5912499,8.027142425781616,-5.005643140327364,-0.5744074546533076,-8.110427215693248,-5.276573307419399,2.721563960387033
2.6012499,8.18587417886194,-5.100155038268674,-0.5675641403417874,-9.137331130277312,-6.179419094671559,3.254544201769379
2.6112499,8.332194194483922,-5.256126763505471,-0.46621081002301673,-9.22345122377693,-6.54204273590702,3.5975610567797736
2.6212499,8.361898903965969,-5.42813918705243,-0.3734009134602327,-8.196484906413191,-6.240528778902921,3.875135494733082
2.6312499,8.369734794085572,-5.5560820394488175,-0.3619324425229207,-6.346812657153342,-5.516731866939625,3.8059900367425357
2.6412499,8.397304278230441,-5.6474514796702096,-0.4070562827938946,-3.8317595131815794,-4.7565631914063875,3.660310227683425
2.6512499,8.327693928897704,-5.701292232011904,-0.4797195698509695,-0.6647125493695224,-4.296963841872125,3.487121702061901
2.6612499,8.252818118244054,-5.6740996134991155,-0.4885854600380864,2.0540568869584765,-3.8551800665927245,3.1475160868868244
2.6712499,8.278250516129285,-5.539665371638499,-0.5065148900719945,3.4594833794036606,-3.057510940886535,2.6967017422605233
2.6812499,8.308477595511157,-5.354083541997792,-0.5807886957640436,3.4138096413053987,-2.1692183637009403,2.4293369588805542
2.6912499,8.283193239624204,-5.218108721653269,-0.6113238332816386,2.0229056700440324,-1.5067184529910518,2.2988123258679694
2.7012499,8.21156316143196,-5.118492985284981,-0.5877802581558228,-0.12149706923371502,-0.953980879598247,2.601847135126689
2.7112499,8.176246146741674,-5.07430004815484,-0.5544013584314404,-2.4979831771383685,-0.20440514357050474,2.9798948148414865
2.7212499,8.160034677509074,-5.09604272723141,-0.5203526499096742,-4.816996857542622,0.6288737339508628,3.3005022795184082
2.7312499,8.047347093997015,-5.166243378575464,-0.5255275516415742,-5.8863774461746186,0.6994060312765354,3.7203817197694757
2.7412499,7.852869983193211,-5.310335215392601,-0.5237439378416119,-5.478195458190858,0.24096604691723938,4.335457615452162
2.7512499,7.663699395397952,-5.405362338745053,-0.5019298261199643,-4.923962582366659,0.017824522721344608,5.143460386448262
2.7612499,7.517802355709729,-5.384537100200197,-0.6014159676029632,-4.408446390334834,-0.5856729309201263,6.008706955743158
2.7712499,7.464263003713016,-5.398480431306163,-0.7145196469787576,-3.6395281345507344,-1.6884386421830104,7.128872506028572
2.7812499,7.510079193208511,-5.491001368781685,-0.7278912974563059,-3.3096500340335973,-2.576988639631682,8.340616978842087
2.7912499,7.550627689912063,-5.524086772952394,-0.7345493812324185,-3.463255335909093,-3.248793960360706,9.439161751040567
2.8012499,7.606729308765331,-5.502388106871431,-0.6892199372414598,-3.6817695090123617,-3.5681750540354784,10.62157138306278
2.8112499,7.666766977696067,-5.497368838907366,-0.6207377970271242,-3.9428188144352205,-3.4904920615090087,11.718989413516496
2.8212499,7.600054259246068,-5.511770746865164,-0.6172556586846337,-4.150255390717846,-3.4153516662860723,12.620338123614244
2.8312499,7.484203072716271,-5.540360833793105,-0.6963261114973214,-3.973039660863502,-3.5773955443604875,13.896721831275663
2.8412499,7.373065944027407,-5.4881790175327385,-0.7945704399711427,-3.5987386135950703,-4.088420731201148,15.427110068770281
2.8512499,7.247197187668791,-5.398192829538472,-0.7874231526878519,-3.017500055527941,-4.539196079396867,16.855333796050317
2.8612499,7.213964448785327,-5.346585419093492,-0.746792806038391,-2.563287496717582,-4.694816288551875,18.639554325959633
2.8712499,7.2864033759221725,-5.304580000398946,-0.7307246083607205,-2.3673504415068836,-4.599016712570642,21.072383153106227
2.8812499,7.358941325981603,-5.301616240654536,-0.7468297477798949,-1.8163668353155822,-4.195282125354135,23.67287090825419
2.8912499,7.350466010101251,-5.253333827702406,-0.8006940992662954,-1.8713215924225044,-3.4247045329304986,26.126858186899184
2.9012499,7.269271129366722,-5.18690168906397,-0.8234697306651327,-2.471352507500839,-2.525751533739608,28.517028788752484
2.9112499,7.1277251119143825,-5.1632259662801,-0.8635572533158442,-3.0787626540361903,-1.6929359321670234,30.592096011822683
2.9212499,6.927743131642037,-5.17831503650048,-0.9626944198344684,-3.474768453489494,-0.973880194211853,32.6852744061982
2.9312499,6.656318294892622,-5.200974344478403,-1.0467665296058892,-3.723049199730764,-0.4835628812089346,35.71877642330387
2.9412499,6.381519501080279,-5.203861943085577,-1.0519787517101513,-3.4283199375314313,-0.3698495344107302,39.231705049739695
2.9512499,6.041194707479726,-5.194771330096101,-1.0789604335092298,-2.291868712378437,-1.2212877576486556,43.00252577952946
2.9612499,5.6823882579782365,-5.196527631742949,-1.1264966787010897,-0.6260763749956222,-2.879782628311894,47.66161108679286
2.9712499,5.4185128312865585,-5.274360596272703,-1.0939342079423109,1.9646562700890335,-4.6079722492072035,53.31858400669982
2.9812499,5.163103513793638,-5.297910247880107,-1.0778118206240583,4.803483282890444,-6.794544287809744,60.03473591315141
2.9912499,4.966686574631682,-5.255176485231803,-1.1267471488224934,7.18990819988117,-9.067559938860404,67.37294347096322
3.0012499,4.790199965634102,-5.1485447238818285,-1.2399859143738292,8.153360087137933,-10.679869999335512,74.84833886333705
3.0112499,4.54898228279423,-5.0092168844872225,-1.4284332736584562,6.964227819503392,-11.840258056433433,82.327197794691
3.0212499,4.341196019312967,-4.9243910556919985,-1.6846724365017156,3.5950619880351753,-12.484227171775698,89.57823285746589
3.0312499,4.12841601279649,-4.792464101203269,-1.950021487514458,-3.1908461751142108,-12.471475836431816,96.57194667511126
3.0412499,3.7910181769431084,-4.655634176300924,-2.2745088037108903,-12.85946681216576,-12.354671164509758,102.84945116604214
3.0512499,3.4426852805972032,-4.780506611113968,-2.672843239175663,-23.49821959722706,-12.241655466298887,108.82606405846933
3.0612499,3.113479363411008,-4.995495039078196,-3.0888483446069492,-35.19968261989605,-12.272545551267319,115.07541579789793
3.0712499,2.7214254852896103,-5.186408680036155,-3.587019200302956,-47.31261006251639,-12.712583686401086,121.69140486975198
3.0812499,2.3710547856642443,-5.556722069418245,-4.065901329618997,-58.9375734855999,-13.360884440587258,128.74909475533147
3.0912499,2.023403222735435,-5.944589238624127,-4.4546274692059145,-70.96266875484973,-13.967547225176963,135.78322462691145
3.1012499,1.5885375205973633,-6.332245344357746,-4.941391145555966,-82.31433030158554,-14.419348257101744,142.8336927585781
3.1112499,1.2786726637519323,-6.921613303734419,-5.50739338692315,-92.16629130826546,-14.331397694682668,150.4550815608627
3.1212499,1.1941376375721744,-7.413405986796428,-5.988761813662641,-101.40291429537656,-13.425617046962826,158.1017879481406
3.1312499,1.1176735515738538,-7.768626213033145,-6.367535504282792,-108.27814075093013,-12.135565935776826,164.94960897984126
3.1412499,1.028772994384473,-8.495573768843771,-6.7108244640161585,-111.47661002159049,-10.246219725164131,173.26435242626212
3.1512499,1.151134244132025,-9.290695565145242,-7.0687206968891045,-111.36553709653354,-7.638120886959674,182.45800667460426
3.1612499,1.4192991448802663,-9.72095191807863,-7.50506154485371,-109.51031889326433,-4.93514716034292,190.98208677794423
3.1712499,1.7483037882527064,-10.132938214649062,-7.871385237543141,-107.70336170067783,-2.017684625440913,199.70031538081406
3.1812499,2.1968960801910193,-10.734795253577582,-8.035318267397125,-106.09291736758719,1.406623250793348,208.14999159882282
3.1912499,2.6763381683880785,-11.564374733166556,-8.14853648381337,-104.75530624679568,5.055446093432023,216.12272591843595
3.2012499,3.1169213020066295,-12.509658104320174,-8.28353028832185,-104.90178594222895,8.580112049391321,223.53396676255312
3.2112499,3.656831937105369,-13.544120199498353,-8.407409399607264,-106.50791102678836,11.900246734157054,229.9475795764452
3.2212499,4.294496219506507,-14.779972417821147,-8.464205326182793,-109.36725446975211,15.28535795271395,234.16631769928327
3.2312499,4.905490389175169,-15.898482090400092,-8.51368387224374,-115.51836024273418,18.75634230529833,234.29435107206535
3.2412499,5.598600485188954,-16.70206284612815,-8.741026617936505,-125.2375418348096,21.294845131339418,228.91125627265157
3.2512499,6.553101942070843,-17.47794181862356,-9.062445871259364,-136.4792659241432,22.33274715564061,218.04544383900642
3.2612499,7.741512185350772,-18.28784651585552,-9.283528071973969,-150.03339314312706,22.60734146456836,203.02483115664623
3.2712499,9.002848694861735,-19.077761635302114,-9.287614965333312,-165.366518601241,23.19061410039661,185.39020302331286
3.2812499,10.454591074370073,-20.119519897421142,-9.087549264893036,-179.35548767623698,23.787316979484164,165.12250237529017
3.2912499,12.247058683468758,-21.439207890140743,-8.875850230020756,-190.07710066297884,23.617707943282902,141.90691892367042
3.3012499,14.326192935978247,-22.600662728843112,-8.81435736142193,-197.553680968906,22.757250032364748,116.14260378060933
3.3112499,16.554662042281667,-23.229295302095597,-8.42588731390606,-204.38776200485952,20.62556085288631,86.86802726205464
3.3212499,19.02252969184636,-23.72280538830845,-6.917094530473222,-209.48907333120468,16.54302915156397,50.762807256053705
3.3312499,22.08548946813005,-24.629634263590106,-4.5497104592897815,-209.3354856116413,9.118416229070524,8.111696795011415
3.3412499,26.411321228330674,-25.6269744612798,-1.351371740076304,-202.98503002393127,-4.804340390786202,-47.25860643603998
3.3512499,31.896308774807665,-26.56268316215646,4.257350958958972,-193.81138140708677,-26.35249611980418,-125.28933564486701
3.3612499,36.65792600239091,-27.807339813365235,9.78664372867517,-195.52702764961808,-50.05323933929276,-209.81062164067947
3.3712499,39.16609479370696,-30.097987843824892,13.695646861123429,-215.14048801306836,-69.0689572760505,-294.81720304516284
3.3812499,36.70884817533243,-33.5859603042497,17.660679459509957,-263.7946846270625,-77.15904934747454,-381.3161171481822
3.3912499,29.64775240012512,-39.18993185426758,20.74888790173477,-328.4309161176776,-77.94966862407901,-465.63253988308134
3.4012499,21.109922820540163,-45.950587856619364,20.7373694239467,-368.38807191898763,-82.79987445898406,-502.83314753924685
3.4112499,10.482411606322701,-53.4479317876424,17.521261963770485,-365.40805948146834,-101.19398967476968,-499.77529511774776
3.4212499,-2.795355748981664,-59.241946048945756,11.986555624129519,-310.54668584236265,-136.5870608309779,-499.50064390058566
3.4312499,-16.084769903054507,-57.16906045420923,7.271945036703994,-219.22503466136249,-184.4368732869592,-500.3541755004995
3.4412499,-28.7604385429822,-46.76143102830531,5.029897204961434,-127.79376071125358,-231.93650137850597,-500.2772688926106
3.4512499,-38.980586499699065,-31.52900661649724,2.7349521474508647,-62.70335546025712,-257.8418636909024,-498.3946040221396
3.4612499,-42.15008923569308,-14.943045419210971,0.6020445231693144,-24.93697901726001,-245.89503179835097,-503.61644584887256
3.4712499,-41.11291373831135,-1.5162443699122758,-0.8857440594348015,-11.302927121408596,-200.07684274973005,-489.05278422602504
3.4812499,-41.80698322664306,9.041581268193536,-3.382734727960519,-27.358084703136868,-125.43316248644521,-398.2503631600167
3.4912499,-40.25409303632257,18.288106182812445,-6.1317287566766705,-57.73403333766393,-45.5203299500579,-292.119155033086
3.5012499,-34.47789749349797,21.532230627734283,-8.350607716114062,-74.39162722120372,21.331835890429737,-203.18960015790864
3.5112499,-31.569524218620753,17.79041695131824,-8.549001781642895,-67.80813242762534,67.02007002614602,-107.06910899248066
3.5212499,-30.08962786665981,11.660172243634745,-6.276106125943705,-36.07321278853718,91.4806813401806,-17.832789071456112
3.5312499,-26.66435727568356,5.963091147692398,-5.1021433399811595,5.349359759248242,105.27835171650744,46.87703386382346
3.5412499,-23.546390048384513,1.0184932154620874,-5.166729256532329,41.66686938969763,111.44638748062461,85.39466472617403
3.5512499,-21.542683875106388,-2.987781351658492,-6.028379613089004,70.8140983741388,106.52690046850924,102.14864577257826
3.5612499,-17.753351798596164,-5.358002434160968,-7.968510614329654,92.9493465485352,87.78900262466244,105.04387098850253
3.5712499,-12.139022269044807,-5.711242644310395,-9.268438733981908,106.30068664020135,64.19572679355625,101.23595087896938
3.5812499,-6.54975184613696,-5.099023741833832,-9.700726973089502,112.29580478122683,42.940315626675925,95.86294227754955
3.5912499,-1.839755085023406,-4.364396018460777,-9.85448054871518,112.42470051741824,27.53825167422665,90.3982136345684
3.6012499,1.9343463233209708,-4.1339478110973324,-10.128276319428458,108.25242078768471,18.40014713691683,85.50396117574277
3.6112499,4.699288678733854,-4.392254243992897,-10.556585851359864,100.1640077544599,15.131357439506774,81.18191659978214
3.6212499,6.215356608544566,-4.489404060909935,-10.995419548138008,87.62337477251786,18.813548719881585,76.69759167494043
3.6312499,6.7561478664929275,-4.54226972938956,-11.363536593834382,71.28750959507927,28.09682496257482,71.31558177418128
3.6412499,7.126755089426045,-5.441537095529293,-11.538352595497914,57.70923695253852,40.32066929127213,64.80453566300888
3.6512499,7.475926276604378,-6.356289520337387,-11.431725294314035,48.396970059084964,54.192256230408304,57.70096999879678
3.6612499,7.5030821266774606,-6.77903060593342,-10.975925012888283,42.528979558999595,69.02886600363584,49.733314783201344
3.6712499,7.297032206349294,-7.413126505399747,-10.222692395198376,44.79405587145416,82.90737884016995,40.90554932150266
3.6812499,7.0549596696165935,-7.806556486225071,-9.435519371573758,54.752002909983624,93.74014640371524,32.48391715000838
3.6912499,6.776239317961789,-7.724228874727977,-8.780723748035005,69.52917299911611,101.51076553342561,25.396853669411588
3.7012499,6.296212083405552,-7.358431422487767,-8.303661146682865,85.89544600156331,106.67795280262045,19.66027250948578
3.7112499,5.652071425786326,-6.75611810137159,-8.013575943797587,100.30558230946336,109.96546664969325,15.24866731405132
3.7212499,5.203461178057394,-6.009942765327281,-7.897267242427128,110.53128193853033,113.06123001872825,11.979110926227547
3.7312499,4.945308501822625,-5.1156811462307985,-7.836429743468112,115.08554067705221,116.69312627012302,9.199008934880752
3.7412499,4.711565779270295,-4.197482470146213,-7.664535764859754,113.2775790855906,121.20796328630466,6.299200445461765
3.7512499,4.56350339688817,-3.45399143231772,-7.372520301751389,105.04755125548448,126.62987645263244,3.2415508471563217
3.7612499,4.824268906744884,-2.890717469083804,-6.98841542303183,90.29025795499417,133.60522371915334,-0.8740513890151581
3.7712499,5.440594842036377,-2.527486634644621,-6.490928437493095,72.50286023913068,141.97842718002767,-6.230533079783055
3.7812499,5.807846030259524,-2.4094241492863206,-5.8916551749873385,57.45226302732956,149.32354725868967,-10.529439970412913
3.7912499,5.888021311026599,-2.81212992042538,-5.338317840182721,47.53600758953861,156.21785485549933,-12.950703202608986
3.8012499,5.693520080758987,-3.6346390318552575,-4.988730416004322,44.46523155020292,162.40636696034753,-12.930165909822046
3.8112499,5.306452406092784,-4.055060864318459,-4.6576515450952645,44.76322196407332,167.79931848410817,-10.613741667639102
3.8212499,5.09513150969968,-4.117617525222252,-4.267149896753071,47.22521206672804,173.60510075147,-7.275710452827613
3.8312499,5.194922859551328,-4.274139037850701,-3.926725015674692,52.34746481140285,178.62583879035276,-3.7434016655965556
3.8412499,5.4260222459054575,-4.562321157538942,-3.5850077487760275,59.73831374675775,180.8602004963907,-0.3308684829462846
3.8512499,5.679315439222194,-4.711527513967248,-3.2097713176247105,68.63502405702526,180.4053534252794,2.7773766656228633
3.8612499,5.940396004302414,-4.736949945667114,-2.8564425044593746,78.47953390946327,178.32674296328904,5.279503237306004
3.8712499,6.110728219083209,-4.714510734919902,-2.7510011224822595,87.50085495885476,175.7656820745661,7.282067123310293
3.8812499,6.177495442441085,-4.627769147420053,-2.792879632312873,94.30618247953477,173.7143549219992,9.161288031807084
3.8912499,6.2177996250356555,-4.387753600274246,-2.599514667287576,97.00466495866532,172.49814000707178,10.649363170932274
3.9012499,6.347617181955955,-4.195267475601289,-2.369752608240763,96.49026092001672,171.46409212522434,10.674138330296914
3.9112499,6.527967267647981,-4.141311614195585,-2.250895714582254,94.14317650012144,169.9199557455707,9.246490607204066
3.9212499,6.794167281649401,-4.075008319120693,-2.1335058273933267,90.38949654952908,167.4595475172506,7.38630667908933
3.9312499,7.265202721500598,-4.129353562083152,-2.027453431386655,86.76005261854758,163.70261488814631,6.280513839551006
3.9412499,7.719108185125549,-4.3688915843175895,-1.889481079400769,84.46116278479776,159.04895548762335,6.828390625294791
3.9512499,7.9196283371487946,-4.638172743493683,-1.6885316762615568,82.60018879038888,153.9595978229973,9.011533865737773
3.9612499,7.984483816537407,-4.6416940910052125,-1.5886810251455776,79.87840617423215,148.36798170020157,11.775623761436718
3.9712499,8.139534034577267,-4.396143067104611,-1.6748709040986347,75.74689541922167,142.07232268620874,13.308227764810633
3.9812499,8.1958218495465,-4.007868920316167,-1.8191274938326218,68.70751984372916,134.5054161965993,13.126419092429218
3.9912499,7.870870064527699,-3.053648036562983,-1.899834874363608,54.57552789994737,124.2241968639116,10.52918108591694
4.0012499,8.39041581614408,-2.3779595814700474,-1.91569870574392,37.425191862472666,116.33069884124681,6.911844766134716
4.0112499,10.281419909759732,-3.8545469511544583,-2.045925118682369,33.28750727796466,117.57401195518487,6.898991909027772
4.021249900000001,10.461298354957238,-5.7407126251982765,-2.262671132388381,35.92136339248571,112.79298601222426,12.810425781764286
4.031249900000001,9.295350109822161,-6.3030552486574285,-2.409938902308596,34.65204523212694,98.48700263757293,22.33397667300836
4.0412499,9.387072795806846,-6.569278520481576,-2.32721792984465,36.940911387332484,85.5572243778292,29.871528511307677
4.0512499,9.913430916760303,-6.65909956462426,-2.163761723148616,44.76035107274938,73.31704905505046,31.80603110613334
4.061249900000001,10.076814610426345,-6.634584208224067,-2.1554689996468257,53.95346127620295,59.83523779815872,29.520949529996276
4.071249900000001,10.117809613369557,-6.743647156270362,-2.38538251480969,61.98474371955784,45.79296427298604,26.06675034507765
4.0812499,10.074241789348607,-6.924463656141953,-2.7235199720370686,67.83051680969763,31.946344574372162,23.22433624113194
4.0912499,9.991728917444535,-6.918174292460112,-2.8946659665981134,68.71882621295316,18.945053486287584,21.06791928378471
4.1012499,10.000389235556005,-6.5539191967812,-2.817660280606328,62.12416062722365,7.919767362608769,19.32337609025039
4.111249900000001,10.058966241950756,-6.057982562475884,-2.613099280096611,48.588348696845465,0.1838970640940191,16.675086738442253
4.1212499000000005,10.06453080445993,-5.691088700605454,-2.4028589720626243,30.450916457494944,-5.2792030823380545,12.285657891474761
4.1312499,10.01234641240821,-5.624587567193631,-2.2171133679038153,10.474118892420526,-8.962326592483258,7.624455786139789
4.1412499,9.828048379250905,-5.862644015790238,-2.1264554871196584,-8.02687325983719,-10.574014776789305,3.193410680543856
4.151249900000001,9.534543777919536,-6.312014830931677,-2.0187457235085873,-22.188262920042074,-11.346284846714509,-1.4549833834404837
4.1612499000000005,9.340255436919035,-6.779925450691593,-1.745310745583314,-30.61141934184394,-11.91466959213679,-6.004280324928642
4.1712499,9.211543251443313,-7.100982310497406,-1.3424563836380583,-33.85793559916368,-11.982846517905223,-10.291730898930584
4.1812499,9.047444380163164,-7.262738496920297,-0.8956420425518485,-31.58494165263755,-11.254972117236536,-14.78173244602556
4.191249900000001,8.851148113552592,-7.28120818459705,-0.518313829642689,-25.54595557984582,-10.555973871301115,-18.514441343179293
4.2012499000000005,8.671345740565377,-7.193484787977893,-0.2693890024614558,-18.387500555645495,-9.696387237779986,-20.765622382565233
4.2112499,8.424937030498869,-6.872335935815947,-0.2849334802930137,-11.612974512841713,-8.191016216748757,-22.097484928637186
4.2212499,8.138682490389787,-6.371252859887139,-0.4928113174604646,-6.709289643654752,-6.866079536049442,-23.23761240070877
4.231249900000001,8.007861010740962,-5.951821690334097,-0.5504545908417946,-4.100500193737408,-5.346746693659877,-24.4652147862717
4.241249900000001,7.859736875671257,-5.659547732163691,-0.48358879111247227,-2.8872538042593114,-3.637266882016876,-25.676239898479054
4.2512499,7.64091172589278,-5.394073858177291,-0.4433136846272942,-2.538614533334699,-2.1637460874534935,-26.954500288329136
4.2612499,7.638067868510604,-5.264236212509592,-0.36792233588037804,-1.611770566679189,-0.23897307881539265,-27.473979689969802
4.271249900000001,7.6310334837953135,-5.266880203337031,-0.2606569630159439,0.7457833726347399,1.1556400712822985,-26.944255774075987
4.281249900000001,7.515683291540717,-5.292648339122288,-0.09740939194336909,4.192497150056928,1.876710665523613,-25.21786755329206
4.2912499,7.432349558266269,-5.212304166911863,-0.0035269812917591153,7.801177486327585,2.4658047129190273,-22.712154762542962
4.3012499,7.347245903919357,-5.047388805740565,-0.09873420111285013,11.056060226703353,2.5384192042840827,-19.854319951792508
4.311249900000001,7.2627390878437215,-4.851922700125998,-0.2597849721821301,12.76138086516678,2.0667716275334405,-16.965364039582305
4.321249900000001,7.3002289543532415,-4.653950337608412,-0.2838251487465464,12.926119135747204,1.6548021984003891,-14.565136246560588
4.3312499,7.494124414257893,-4.577772723370665,-0.16410251777363816,12.971482502170494,1.2595507122819045,-12.589753531606963
4.3412499,7.622667887684226,-4.589855275912571,-0.034393825281959084,13.573522179901188,0.7024881307196275,-10.879401844950769
4.351249900000001,7.6830399738400486,-4.749024220632828,0.06745823299803148,15.247164928694264,0.8578980445436197,-9.482112782577735
4.361249900000001,7.770307339945865,-5.116221430048036,0.16809952462936137,19.206342877211593,1.084844932253754,-7.78450780425245
4.3712499000000005,7.850440259738465,-5.506433095878893,0.2106386561782883,25.274675142610555,0.8213835387510303,-5.59407144021989
4.3812499,7.93258202464181,-5.712702769977929,0.11735678149956671,31.416326421147634,0.622193794526114,-3.2355152503691036
4.3912499,8.067943341209695,-5.6494299864728905,0.022246943954150496,36.1160478632458,0.6938125642668584,-0.9768337534843111
4.401249900000001,8.207560496647403,-5.436811696472843,-0.00010461191898176443,38.05962351589369,0.745913983211015,0.2171225740372743
4.4112499000000005,8.305243196032809,-5.3305755452868855,0.01624127854626281,37.26920107970063,0.8837935079173449,0.016177017263323053
4.4212499,8.433974625991219,-5.419320985448257,0.03579803836270808,35.31456475847955,1.4072881080114559,-0.4515535809570023
4.4312499,8.527268278314311,-5.499108582296263,-0.010477900645322311,33.38737215655171,1.7011538034763964,-0.9387774139363363
4.441249900000001,8.519495681017515,-5.543850870984583,-0.039778400115577886,31.84882073504755,1.4772203931135044,-1.9713667424212622
4.4512499000000005,8.465635069031364,-5.592379498073868,-0.03978360270132734,30.858805396887664,1.0739680334091413,-3.371261444525921
4.4612499,8.413838217250413,-5.582553558523005,-0.16289438909467777,29.907866806279387,0.4162271360834113,-4.7566786537406935
4.4712499,8.336037343827956,-5.442666991918266,-0.4028396298423348,27.51093158869542,-0.5068674077399782,-5.884475988297046
4.481249900000001,8.3006336377032,-5.129894977264413,-0.5710259216707596,22.945669216898004,-1.2386828431197017,-6.811337113561519
4.491249900000001,8.375896143962017,-4.857708154195535,-0.5693920061543405,16.64779703620649,-1.4753042549204294,-7.674644243516096
4.5012499,8.444950846886629,-4.85577874024763,-0.49461055435527423,10.054550633505704,-1.4564029075710792,-8.0551169192861
4.5112499,8.408194407801828,-5.0117634947596885,-0.40750214107679694,4.830258163268324,-0.9952705254255614,-7.866246319395721
4.521249900000001,8.305767169995056,-5.146999549746751,-0.28359729697509456,1.2755518399803405,-0.41071455013359626,-6.643966660124539
4.531249900000001,8.135491809083723,-5.1793095755054415,-0.21869116014537482,-1.0725402810058142,-0.3446147095736788,-4.668010293452154
4.5412499,7.884291317473261,-5.1089189272328595,-0.26452520083686853,-2.565319344418661,-0.5709127993012943,-2.7499687049375177
4.5512499,7.667788996275056,-5.113389300769888,-0.2828427277573143,-3.139406166770338,-1.0506619539698119,-0.3412583396024704
4.561249900000001,7.5752259159712265,-5.258612439761004,-0.19848814821307847,-3.011340247904898,-1.4612235446440494,2.5427885386518634
4.571249900000001,7.5493748454495275,-5.358103576749905,-0.058491519153530874,-2.206473270784561,-1.7393532842430433,5.566609498318007
4.5812499,7.487577169659682,-5.357033491993589,0.1016890103486985,-0.956848303124861,-2.0603902355241495,8.418099181968284
4.5912499,7.34438994412409,-5.348308569910241,0.17224326309140886,0.5366800525438372,-2.7690288350911314,11.238228339130051
4.601249900000001,7.135962859706129,-5.268102009946281,0.13208935388908122,1.5737721209642237,-3.793456017904634,14.540875227739575
4.611249900000001,6.931745652700958,-5.04710609205679,0.010979062392309703,0.8421692584986195,-4.721001553305977,17.51889124639413
4.6212499000000005,6.8202603712318615,-4.7542362417684965,-0.23711709372201076,-1.7270010846302404,-5.333620446835987,20.02807427192837
4.6312499,6.81151454799759,-4.561348218836957,-0.3808311698361682,-5.8687417354422715,-5.427684965529151,22.295267862437864
4.6412499,6.840577439325923,-4.485678601789151,-0.309361018367919,-11.220063722747168,-4.6512503897075375,24.66454981440237
4.651249900000001,6.823099247477114,-4.432641070499043,-0.31353482189039283,-16.584332971422292,-2.831780845682755,27.135368826769476
4.6612499000000005,6.742071961717875,-4.424495053163879,-0.48651542440576717,-20.89238761614996,-0.44144347050693816,29.793054911239864
4.6712499,6.608124753357542,-4.42751216614065,-0.6580173615033739,-24.27835554003549,2.1005001813604336,33.174330671279336
4.6812499,6.429535622139728,-4.396462529866727,-0.7248984579994503,-26.414471906529197,4.613911712980263,37.119238926436275
4.691249900000001,6.260372602737401,-4.409753903771538,-0.7340188292943433,-26.712158315302304,7.159523029992476,41.53245326539093
4.7012499000000005,6.072279544355705,-4.5189075069997635,-0.723317907632619,-25.66063095921155,9.42394429779504,46.92551527705364
4.7112499,5.702246707038807,-4.620874213223216,-0.7276005112316156,-23.284133871357056,10.196923329399265,53.2959444756316
4.7212499,5.111120657912841,-4.661579450870299,-0.9107073516362815,-19.441965680566945,8.304141663448302,60.76344774044008
4.731249900000001,4.579523633326111,-4.645216850531794,-1.4078469815362082,-15.566893766523435,4.067713314306228,69.35269732183674
4.741249900000001,4.152900980916385,-4.398706441189464,-1.87278210096125,-13.9382363285219,-1.8266540664856274,78.52062285792685
4.7512499,3.74015329816651,-3.9866876305689445,-2.133736056782072,-15.345460425644806,-8.227200751617152,87.80162976266867
4.7612499,3.3375019714810907,-3.8087737449876795,-2.4322387920607142,-19.095664067264003,-14.377032841667043,97.24591220075109
4.771249900000001,2.9232069573578086,-3.8769386272239585,-2.7496944230488714,-25.123336487833214,-20.323145768367162,107.35569345203753
4.781249900000001,2.616191968387681,-4.030093254032538,-3.0581394446668786,-33.77323814443582,-25.483777325106907,118.44803813398225
4.7912499,2.4514497725060687,-4.303566630577347,-3.4822286037137946,-43.86368000654591,-29.770364044293995,130.02690725527825
4.8012499,2.306514183615277,-4.603611723826788,-4.012786451348201,-56.296399188531744,-33.81272375004036,142.12609656738874
4.811249900000001,2.1231919466290297,-5.02230399012004,-4.574427668879892,-72.40948004088187,-37.345422328885086,155.47942811215387
4.821249900000001,1.9247198771765237,-5.544895033468586,-5.1402464764773,-87.41795142377168,-39.792153975034154,167.03797340888318
4.8312499,1.7660164146874742,-6.157889810018407,-5.793400608021961,-100.21914913211823,-41.642497067038256,177.1176511480494
4.8412499,1.8262031275169472,-6.958931852566426,-6.434093995946295,-111.9044923497279,-42.82470722640257,187.71223840545602
4.851249900000001,1.9664778360291182,-7.788342468689714,-6.859262511068496,-122.91053654570875,-42.95293593045876,198.21329264610088
4.861249900000001,2.041565050200261,-8.577943647327144,-7.2243749284115895,-132.5593401020334,-41.84551688209692,208.0732004414769
4.8712499000000005,2.17412051004644,-9.445909206247624,-7.649123189593179,-140.24674333369728,-39.32587924330598,217.39753795065093
4.8812499,2.3791638503058943,-10.464723629511328,-7.924027452034938,-146.5940268723488,-35.86396972347279,226.08907951207433
4.8912499,2.54793696811038,-11.616868385114849,-8.102537111023546,-151.00206346755198,-32.32405380983543,233.97348118901016
4.901249900000001,2.7992232245617785,-12.749550103923,-8.463375960703184,-153.40509035285996,-28.97778968004504,241.0450921970037
4.9112499000000005,3.1438725122670665,-13.603434410417687,-9.005429537117182,-156.5335374631845,-26.005297648076233,246.87209102494967
4.9212499,3.480288892001966,-14.236663684924741,-9.560951442969454,-162.5529731283848,-23.019215204378998,251.02107157010033
4.9312499,3.954333778758644,-14.924002010892988,-10.00626803125327,-172.78154512428233,-19.100071025930646,252.9542663754891
4.941249900000001,4.584918447454639,-15.708625124263087,-10.254616187494246,-186.1355768712682,-13.902072024131634,251.08588740516277
4.9512499000000005,5.17960335091878,-16.682584389538093,-10.437006731780919,-198.82917905491593,-8.307097840008161,244.7543326828923
4.9612499,5.871462531225765,-17.842141629713353,-10.644718845839531,-208.87432131320065,-3.3561695865962267,235.03969123898048
4.9712499,6.953452635086774,-19.08125453577903,-10.964010450060552,-215.13192616909942,0.9554067926741849,223.1378590048415
4.981249900000001,8.5276635805774,-20.58674567723558,-11.245487569887317,-215.59693089957207,4.993152191617983,209.0939671992358
4.991249900000001,10.605098045727154,-22.196561650102137,-11.336017441485224,-211.2003741975423,8.32690791175251,191.69677646424347
5.0012499,13.042403981774209,-23.443700171618296,-11.562117399828097,-204.35317870637135,10.69029917051153,170.66502341266468
5.0112499,16.218706473914395,-24.354434460947065,-11.83919633805472,-199.45513649565376,14.369219304822588,139.524791317011
5.021249900000001,19.7682914035729,-25.178934979642673,-11.313313113694337,-201.51284848169814,19.90188924698691,94.18715384524381
5.031249900000001,22.455304650619144,-25.627505220247716,-9.650226890496405,-209.2390744510216,23.645189819220754,43.992853898460986
5.0412499,25.425851743956052,-26.02895004062267,-6.790853159837344,-216.68845783804346,24.747760894878308,-13.641892254062993
5.0512499,29.1819460864918,-27.007365946701356,-2.4254233676116588,-216.57866908353608,22.584723183303222,-80.65087419144703
5.061249900000001,32.86510526173041,-28.38093440138347,3.1659906613104916,-209.74322554659838,16.839761435999826,-155.37938242938935
5.071249900000001,34.95373500533364,-29.552400851668473,8.934649624989746,-207.47336793297697,5.194178848772224,-238.9791383366394
5.0812499,33.99871348164167,-30.504959325143872,13.454742130186906,-215.07457950046566,-12.401841290385391,-329.21122286228024
5.0912499,30.42711219044417,-32.50877021499121,16.08798681002211,-231.8484815989006,-30.92453272165755,-421.4861685124527
5.101249900000001,25.98083448869878,-37.22788483854671,17.48439316049068,-255.33489333861985,-45.88205724166031,-489.4236999315048
5.111249900000001,20.49310564478877,-43.619510577801485,18.646915915121212,-263.45331664473366,-55.08791280041119,-502.60479251157943
5.1212499000000005,12.850865521153839,-48.23629417941152,19.3291831602182,-247.1893819577242,-64.45254501736646,-498.9959596413324
5.1312499,4.614040272901368,-49.64400923053714,18.393877668109223,-220.63599031624145,-78.4336201186728,-500.05795449067915
5.1412499,-3.870207723690629,-49.44559881898256,15.634751497190859,-181.26037357147138,-105.37583741785942,-500.5034990121628
5.151249900000001,-14.803445148018255,-45.41359124653122,11.535096049300842,-134.42594332059153,-155.2288390396,-499.16156169429877
5.1612499000000005,-27.0104816526261,-35.976856325508464,7.029133116595516,-89.3241479403336,-214.14886253882503,-500.26697720052937
5.1712499,-38.77451032378115,-25.290999391344236,1.7415744115527527,-48.06752112507262,-259.5887302488065,-502.5575876598692
5.1812499,-46.7429566993266,-11.831421396652342,-4.720205295448359,-40.39303755769294,-268.25185402958584,-448.895716819169
5.191249900000001,-47.60225965794137,4.2055332847881255,-7.293141106529354,-68.92213664887781,-229.76085691113306,-352.98778100307646
5.2012499000000005,-43.845608339709706,14.879672484602336,-5.511062785599321,-98.35720788172462,-155.16348302381778,-283.4881294399884
5.2112499,-38.841393387136115,17.40429320590199,-4.643830426561115,-111.77469933771377,-74.17397786893909,-228.63454817517152
5.2212499,-34.90066861940908,14.499221048076095,-7.36944905150739,-87.5868250474706,6.633497978466349,-157.69097669817617
5.231249900000001,-33.459398154121494,8.635369401292715,-10.325208900866008,-15.288740700601732,69.90622520095798,-72.48797702101783
5.241249900000001,-30.844720590227162,4.528043492534699,-10.939279787613136,65.35004512227198,102.8139915634019,-6.94421922129831
5.2512499,-26.112902643256273,3.202252151575428,-10.498336458563205,132.03768663144555,124.20910459918423,34.01616756772948
5.2612499,-22.141932536597523,2.0545344540486674,-9.872776198682807,179.94233215550784,133.93944263990076,54.1582135523426
5.271249900000001,-18.67534110876524,0.5118964663505096,-10.17756552276495,206.6666158525954,128.56104692800776,59.9566990757875
5.281249900000001,-14.004788765391776,-0.8247520198202275,-11.10669966900812,214.91922277320302,113.12817703701766,62.62344339822151
5.2912499,-8.365090962053147,-1.1248417859625537,-11.24989981509194,202.11423878838326,94.67751716765292,66.00963093092001
5.3012499,-2.7774028017736305,-0.8979435988868226,-10.621892206130855,169.93216414872788,80.57291280463383,67.40620686649115
5.311249900000001,1.584264112860685,-1.586244511715567,-10.072269065588472,128.94563762876186,73.66321215267907,66.31004665727298
5.321249900000001,4.016587969021,-2.760438938580719,-10.106853999035774,87.27126704581929,72.5912607727075,62.833194003537244
5.3312499,5.057817117776553,-4.067662901606892,-10.46275826908203,52.956537974432884,75.03192908020024,56.79059369061211
5.3412499,5.753444991512096,-5.634005807327131,-10.323403725758801,32.64727327857423,78.07925671123526,49.985136511145946
5.351249900000001,6.633694723162977,-6.784622608792777,-9.500678982913254,24.754795589927397,81.92645185477443,44.04184269066143
5.361249900000001,7.0410194174020235,-7.7019700939380575,-8.613526249335012,27.40210979764525,86.95925848090003,38.385729662456896
5.3712499000000005,6.640606566878273,-8.503314605349587,-8.131734618329778,41.24125870380722,91.96440371683208,32.279061065253046
5.3812499,5.79633061031022,-8.541082406703758,-7.865510325124208,59.75829744238884,95.33667812605205,25.68486172800987
5.3912499,5.000409877109458,-8.101758806721065,-7.739227021686698,78.71673775270901,96.51095405164381,18.892723626705678
5.401249900000001,4.704655431429654,-7.3486931395902495,-8.047069333658218,96.67445106200181,96.49068148899765,12.107733447969133
5.4112499000000005,4.686221928616504,-6.319417303191016,-8.503873284009211,110.29027938984127,96.62996649520503,5.9016404712684905
5.4212499,4.556549450148173,-5.315569806575133,-8.767552244076887,117.06608442314442,97.52661461461858,0.9547033801749283
5.4312499,4.605815046037207,-4.330259869782415,-8.780759308242212,114.6379821945958,100.50661971605756,-3.5012616815916298
5.441249900000001,4.915512052474051,-3.662914976024557,-8.326558387755988,104.31840928692483,106.35901825941484,-8.029138524816107
5.4512499000000005,5.1780755834113625,-3.4537233540564456,-7.530824837661517,90.93280032393153,114.66300006318804,-12.308321431711564
5.4612499,5.450694202344851,-3.609623247140994,-6.788799614145496,78.4322151010673,125.35437687460693,-16.337905439195552
5.4712499,5.646189492875645,-3.9955331345970815,-6.222726248222323,68.62269175113406,136.54533935973245,-19.640287617587866
5.481249900000001,5.64430692342459,-4.342414440332551,-5.768823254303901,61.96673617487325,146.58145384313727,-21.614659895264825
5.491249900000001,5.496349221779479,-4.7569616474765475,-5.381651584696458,59.88852476363578,154.6895726078827,-21.780500055440886
5.5012499,5.311169001848616,-5.219661669174438,-5.130327485543925,61.99760677171664,160.87699780411114,-20.350147598062538
5.5112499,5.228129130211045,-5.22770984736043,-5.021997251720007,64.12096930985082,165.05911953817318,-18.47388048265947
5.521249900000001,5.195452982902156,-4.978747929307233,-4.831198529597278,66.38767597760797,166.4932106930809,-17.103051431117663
5.531249900000001,5.310035014393657,-4.8745284957447055,-4.508782450154657,70.59827362138935,165.58511816214303,-16.940581576410338
5.5412499,5.554496764731981,-4.692518621649246,-4.189712119354087,75.37004693237532,164.00987076309178,-17.64260806832865
5.5512499,5.753917600640777,-4.522430059810345,-3.836215935960529,80.63302275267827,162.7136866645098,-18.32695785996014
5.561249900000001,5.755984328625701,-4.590667969276878,-3.3721143962022024,86.5209162809256,162.3468619624981,-18.06607973908841
5.571249900000001,5.672852422217199,-4.60443111481036,-2.8299410857937315,91.11509068321052,163.51448236293845,-16.168171791180136
5.5812499,5.756882034840393,-4.3114324918674525,-2.3170179309524883,93.14810632239741,165.96943111700858,-13.197521586695467
5.5912499,6.037815755616573,-3.9605845433467213,-1.9491928988391658,93.35099112610821,168.2269229408973,-10.19624554107374
5.601249900000001,6.5327220600320866,-3.6735728018506704,-1.8214062697020532,91.86168578108611,168.450742123461,-7.588164192428873
5.611249900000001,7.085244357330946,-3.5536060801041027,-1.7723783580235437,89.52687926679961,166.28701540877205,-5.200101141199752
5.6212499000000005,7.510147407062523,-3.5902530172396823,-1.6363780132744297,86.74203639223813,162.33338767826206,-2.8083052026098625
5.6312499,7.824318663136671,-3.6499789150302053,-1.5853546627675656,84.00990780896062,156.51165611676387,-0.17928366680273003
5.6412499,8.025851839905688,-3.8952681159613354,-1.5150998501666721,81.84721674502804,149.0708105460552,2.9864834855354356
5.651249900000001,7.954152439205934,-4.099001718872145,-1.2980249389079024,79.25835603586253,142.41096253236103,5.891670097278913
5.6612499000000005,7.911232948004923,-4.048453270330821,-1.2097927454673674,75.8240137811791,135.5253877348685,7.7739504558477055
5.6712499,8.26578690975991,-4.074100970572382,-1.233270387868329,73.73001820422022,126.14428371618587,8.684495029511083
5.6812499,8.744166713627989,-4.149604833488095,-1.30519173591179,73.15771069838802,114.72204116876797,8.466558029563243
5.691249900000001,9.164735381972344,-4.069453627660869,-1.4877983213723356,71.96681697277334,102.26962795213443,7.633977303136163
5.7012499000000005,9.463082229879216,-3.8341856764271327,-1.6818477785417223,69.21168447518532,89.55606939546391,6.685062135674348
5.7112499,9.586226141984042,-3.7378608630725476,-1.8545281126900508,65.68496260104773,76.66948417453962,6.249244279864167
5.7212499,9.84498622062137,-3.89600899440557,-2.236761774285574,61.4779242818694,63.645227377319884,7.361715456182563
5.731249900000001,10.58249959433472,-4.129612243391012,-2.759891899699152,56.973328442902556,50.94110071734609,10.91909496153811
5.741249900000001,11.50138221609577,-4.24542444179106,-2.969913962884453,51.18289180153745,39.468585554811256,15.607376040214717
5.7512499,12.084581147162517,-4.361950534245128,-2.868314862142946,44.41137453858186,29.507442593135348,18.978985061598923
5.7612499,12.182132779446473,-4.507891291998097,-2.7714466755335065,37.41361394745361,21.216084397410757,20.481439917040763
5.771249900000001,11.976214582269925,-4.58237836544366,-2.8448299387838762,30.722613617182873,14.927518364111794,20.17253955195595
5.781249900000001,11.705069942983386,-4.615419195417298,-3.046183424730038,24.298503177578922,10.353634296973498,18.17455113761386
5.7912499,11.37675491522067,-4.580808034199904,-3.329655978552284,17.194312419026684,6.947670743633711,15.076718307841604
5.8012499,10.953389675786132,-4.7343556269764075,-3.576211865317112,10.58509354807497,4.083275273592693,11.364424467087263
5.811249900000001,10.573413661981443,-4.849063397440683,-3.620481495229998,3.023660231540415,2.423743998454314,7.989820909919151
5.821249900000001,10.253368556734479,-4.787874397152921,-3.3998593762404243,-6.356545513849608,2.7548679068155275,5.322710867840737
5.8312499,9.977972553412284,-4.918949189647383,-2.9371602422866583,-15.65044304253196,4.698127545936131,3.2314618401662343
5.8412499,9.699324577082882,-5.31496834673734,-2.378113870867268,-23.13686076623389,7.9522303393411535,2.154390900176918
5.851249900000001,9.268655437742119,-5.726491757571673,-1.899607255632746,-27.775494145297007,12.081124454752064,2.351123169305447
5.861249900000001,8.761617206052668,-5.9098462036469,-1.6388556096474978,-28.099260743069568,14.867225987100475,3.0829319827366835
5.8712499000000005,8.27447417997483,-6.006842757058734,-1.4377848945580078,-25.101884513045302,15.85947876388396,3.451923830344753
5.8812499,7.878116508754953,-5.997763739807091,-1.2598948481876997,-20.987271469998504,16.22360970679362,3.6506988745193154
5.8912499,7.550259535054404,-5.809665613951563,-1.0987092280062796,-17.33602027564096,16.112786306762757,3.5614469891630467
5.901249900000001,7.456565007046348,-5.687025600186476,-0.8448108284367112,-14.334763222642525,16.041315589523936,3.1069370248626793
5.9112499000000005,7.498874099016769,-5.689651729354051,-0.5620294541189951,-11.634666689657104,16.05825279730533,2.829093721515851
5.9212499,7.553359924477733,-5.660357520004581,-0.43497667602441253,-10.070377734700452,15.640860704012464,3.0600261091442693
5.9312499,7.659992614177047,-5.537627584614485,-0.4550521970935488,-9.708630369864123,14.919386326169656,3.881437603734989
5.941249900000001,7.7216887819117925,-5.390330656755644,-0.4849978143988233,-11.141513940075052,14.269195242798785,4.881182554178551
5.9512499000000005,7.686206187874716,-5.296070608862558,-0.5256456970990174,-14.008118838551944,13.41377389487607,5.529592082397998
5.9612499,7.68038211976846,-5.308827011322384,-0.5321803904690677,-16.710496214281026,12.077897660760302,5.809443670941233
5.9712499,7.697335552533371,-5.3891723501697015,-0.5728817855060018,-18.407826700996306,10.39865022287119,5.741507311474581
5.981249900000001,7.759082949861039,-5.422585954901655,-0.7226764174058387,-18.916916218621807,8.70715388316382,5.297983088694456
5.991249900000001,7.967204259053943,-5.48567429159696,-0.7713112531692526,-18.326171367064433,7.443157774758164,4.562359203848834
6.0012499,8.268290450185146,-5.597498829994169,-0.6159407840580807,-17.098540562951587,6.6711372525640895,3.925446640819862
6.0112499,8.482159559607306,-5.626033287257591,-0.4775365522374324,-15.337418881578056,6.582430357260231,3.274472413620514
6.021249900000001,8.522449185005721,-5.617997067463018,-0.5040137627536887,-13.110064847394513,6.725599912255061,2.7662161245916637
6.031249900000001,8.434373955738554,-5.665599159345827,-0.6888241298072508,-10.497278319014622,6.567331663906813,3.101329118493307
6.0412499,8.278966819009412,-5.672812342524426,-0.8387451316396339,-8.186633200543362,5.525001114533569,4.038934696345828
6.0512499,8.15585508462127,-5.567138753388243,-0.891750310899042,-7.0181587619050205,3.965516493013246,4.737256106480053
6.061249900000001,8.13247968652221,-5.451829413992013,-0.9695572962446586,-6.555858766359424,2.565745809130647,4.911991502604447
6.071249900000001,8.120045763434723,-5.415886909702475,-0.9875990017759605,-6.98458567298382,1.2995482093576758,4.682894681878463
6.0812499,8.05931961614439,-5.37700082038252,-0.9481388430134003,-8.237809420283495,0.3634688823420982,4.471459978081421
6.0912499,7.9419752761014255,-5.353155375433744,-0.9578604921383297,-9.72537848382863,-0.3541833701177306,4.405291340267538
6.101249900000001,7.800450385062515,-5.3961469653094465,-0.9650205575356868,-11.015540090082098,-0.9679239230442404,4.372320243350184
6.111249900000001,7.675642974028509,-5.48107155993239,-0.9513141616512778,-11.276558554491377,-1.3711056554882544,5.073488577187883
6.1212499000000005,7.666095812421722,-5.560346175905273,-0.9230490760891754,-10.353329125471712,-1.655018633280877,6.124861800915072
6.1312499,7.690357143391955,-5.5919622520672565,-0.8314245469302299,-8.899211332451463,-1.9537660591106236,7.234712309712368
6.141249900000001,7.610175406421292,-5.6255049141094595,-0.7244410022237745,-7.0425604875109,-2.163202342881025,8.550173818565112
6.151249900000001,7.489772531858751,-5.640059657263999,-0.7343622583080756,-5.1870015297516705,-2.255965772951675,9.930416989634686
6.1612499000000005,7.398070843360132,-5.63138971205353,-0.8054480996858628,-3.7849916405671267,-2.4226334953208757,11.238560203175975
6.1712499,7.292992130094512,-5.594556959586241,-0.8222473450710533,-2.8530308717637998,-2.594140041877701,12.41428607484745
6.1812499,7.158075206819645,-5.561888115602886,-0.8151231971124837,-2.3064764926976773,-2.9913508002394793,13.413007460529244
6.191249900000001,7.065853961775297,-5.554458801564413,-0.815540975132769,-1.6220684646249384,-3.4215577037963247,14.178494788850514
6.2012499000000005,6.978857088280085,-5.619322494679933,-0.7795155859226698,-0.46623081824773877,-3.766224667055094,15.041332105431476
6.2112499,6.855397078782124,-5.755298674704427,-0.6859998813072953,0.8697016937500266,-4.2211568689620735,16.530998103011473
6.2212499,6.71694365686094,-5.795330176544074,-0.713310626457952,2.3054175860195407,-4.811073730039371,18.376481817416803
6.231249900000001,6.545170246905341,-5.689398475771091,-0.8815318081921677,3.70091543046669,-5.744367363330493,20.211832784903812
6.241249900000001,6.4244872343937525,-5.538288314309122,-0.9693226794982136,4.213393775561008,-6.623106460528716,21.964162010174224
6.2512499,6.317985263774759,-5.323734910954784,-0.9979826631922114,3.5325897505542234,-7.274610044520256,23.6133158848682
6.2612499,6.271400832382317,-5.203351467323423,-1.0057568740274632,2.8805736571354963,-7.6656151090289555,25.76282434574171
6.271249900000001,6.287015615439884,-5.202158917983908,-0.9627926373855271,2.1031384931405355,-7.886357917192091,29.226378579357117
6.281249900000001,6.289715207284296,-5.193270625488289,-0.9317219398541225,1.841699680343874,-7.9319434055721,33.55393326054353
6.2912499,6.284738725763811,-5.190680017430987,-0.8380894365545815,2.6068847580089147,-7.6945474330747485,38.63654014789711
6.3012499,6.2454439360297656,-5.205006014591526,-0.7443658796600547,3.8619299772532605,-7.4614706581970465,44.384765264279736
6.311249900000001,6.1356433142005615,-5.148892883446182,-0.9544183066249426,5.143795869556347,-7.23706830208423,50.46438910447161
6.321249900000001,6.016407233612286,-4.951563413533078,-1.3061493195623104,5.749550389709506,-7.014688654945965,56.297736536511245
6.3312499,5.927710534885066,-4.6745387688114866,-1.4224729374433018,4.5675253531049655,-6.521046707886483,61.66683137145304
6.3412499,5.8014321877030515,-4.515955669627175,-1.5001694191227015,2.3775156638900268,-5.340628820184976,66.67608329074442
6.351249900000001,5.527838272903468,-4.533161824791859,-1.6682804402957732,-0.1713419687248251,-4.404796659174089,71.7916970625582
6.361249900000001,4.992380945650081,-4.655678073750785,-1.8323736062889542,-2.0045491399755226,-4.545875267194489,77.9094486627486
6.3712499000000005,4.347866876625255,-4.829752363867119,-2.1222323672978045,-2.8963983473967243,-5.845210364425518,85.35031036904012
6.3812499,3.89936355079436,-5.017554801915538,-2.556018401629689,-3.294136696524051,-8.292945862687121,93.77837267131615
6.391249900000001,3.6452163501733152,-5.089380782898618,-3.092149083017656,-4.395237988328771,-11.182841405137415,102.67590748223729
6.401249900000001,3.3708393801707945,-5.096256873088309,-3.566925738609681,-7.306192307970855,-14.154950447165678,111.90574328273166
6.4112499000000005,3.0832487928780314,-5.058285203446248,-3.9472449697798973,-13.477221916443959,-16.344292537508043,121.06805012268134
6.4212499,2.8863908246349794,-5.039504413354227,-4.347434934931247,-23.095678189095043,-17.503699968786318,129.4350158068668
6.4312499,2.7466984215487544,-5.19083807686107,-4.76758971227564,-35.121122144726264,-17.491682598215128,136.71641057990888
6.441249900000001,2.506958102619949,-5.449091223398507,-5.3283330379411336,-48.84501686474594,-16.445114120440596,143.24807768786047
6.4512499000000005,2.179949887977194,-5.950944984115434,-6.0089563959256616,-62.62681797762244,-14.847413905278797,149.71631514389298
6.4612499,1.9781196737617655,-6.6158315170761925,-6.596696661373993,-75.70998231506039,-12.875695121657248,156.7336425451495
6.4712499,1.8800278667220358,-7.243886734177932,-7.078256173657384,-89.58352348668194,-10.06707149075028,164.92946899940978
6.481249900000001,1.821927902489276,-7.980999866297855,-7.580742155634961,-104.06380390028934,-6.16821140618032,173.66400797864745
6.491249900000001,1.8187094625461815,-8.680155872803123,-8.078730339034106,-115.8548045866931,-2.0297003083203293,180.76943606453742
6.5012499,1.955234341416067,-9.356876640839653,-8.656663513889642,-125.55679690422535,2.051574812703829,187.18688945718412
6.5112499,2.256121669017732,-10.101064683525045,-9.144902580817055,-133.95189692839665,5.7194502869358015,193.1863935003012
6.521249900000001,2.6154560813585372,-10.795614158629238,-9.311696330422741,-140.95834284808822,9.410045020548662,198.3604220275179
6.531249900000001,2.98259401817968,-11.62656764983166,-9.288374760001618,-145.40148489032535,13.38751530403339,202.72504366085226
6.5412499,3.464844174394463,-12.664601860729263,-9.249242367220207,-146.50374518851106,17.101301858611997,206.0956591586892
6.5512499,4.04764196477035,-13.69204512140266,-9.16750365421672,-145.11043788297192,20.542221365110418,208.5725188067544
6.561249900000001,4.697693186077091,-14.764824734745241,-9.108625009083532,-142.7962276886797,24.07248009351204,210.32775538992666
6.571249900000001,5.4121134810247025,-15.652271247410077,-9.129256675080327,-142.961301263622,27.768645050120004,210.71292034182505
6.5812499,6.175563171424512,-16.009656651622567,-9.120116111065794,-147.32637564192524,31.470279368025697,207.90190378566516
6.5912499,6.9411104423169325,-16.35407469564508,-8.960639074779143,-155.1610345732589,34.59095455599339,200.9000263911208
6.601249900000001,7.648194186769139,-17.3236101514624,-8.481593791281885,-164.43916981432506,37.04126481600063,190.97217895951235
6.611249900000001,8.409080441029536,-18.63909287522792,-7.822190795802323,-172.30595611854514,39.18396171703012,179.16433745701025
6.6212499000000005,9.45230697104102,-19.970408591015904,-7.287644688308858,-176.2870782182852,40.28637814032388,164.08891255241497
6.6312499,10.867167678251532,-21.279070113594873,-6.832935913362259,-175.93915319912668,39.40696856992101,144.1250956845859
6.641249900000001,12.54462831753986,-22.361964397067194,-6.4895763669490085,-173.12385755614758,36.49544248012904,119.18461735452681
6.651249900000001,14.517250704761397,-23.04157441108987,-6.385201684027805,-170.0484065445151,32.27330859693638,88.19935140229228
6.6612499000000005,16.84981119753693,-23.217479252202946,-5.961096154428701,-169.6149426440431,26.928057947501355,51.18085386009029
6.6712499,19.581511576316693,-23.15903533205668,-4.643728104491442,-171.28370936960778,18.6181772389189,7.62273228459739
6.6812499,23.499737766471544,-23.182523161074045,-2.308151322486504,-171.08487343909115,4.250648132477673,-51.21693464571184
6.691249900000001,28.402588658416157,-23.30933923860036,1.6966985421211684,-171.6808296459895,-14.4434125026935,-121.67626248596595
6.7012499000000005,32.80011041229358,-23.79698652592176,6.778940829371179,-176.07692090515732,-31.258425882567295,-193.82000763302872
6.7112499,35.64888328216222,-24.773062754467105,11.953588273577715,-186.07721907877865,-45.76559600358002,-272.4556906178604
6.7212499,35.54871738381573,-26.756964195836844,17.141902414829048,-204.68498494644967,-58.57932599369457,-356.4478726062798
6.731249900000001,32.40458903028133,-31.107302777885874,20.755190117471287,-220.87176961595253,-67.9607835782473,-441.4212275684745
6.741249900000001,27.375184572797437,-37.227808277017886,22.686147212203867,-226.0439678394656,-74.1956638658945,-495.77183877918674
6.7512499,20.14977591085867,-43.56031159789675,23.81687438716403,-206.96391466112917,-84.90876028531557,-501.5594785763986
6.7612499,10.627722484376077,-47.955425697325246,22.25007501876251,-162.25553347016137,-109.0831540398805,-499.09250530838744
6.771249900000001,0.9371902875194147,-49.05560402862482,17.5011308346199,-111.71851181409201,-144.61103400497578,-500.4621135887422
6.781249900000001,-8.313578527375297,-47.38757721448677,11.942244435808448,-62.463717102894876,-189.71989465788582,-499.67691372336634
6.7912499,-20.302104693930723,-41.9520196238411,7.33370693705716,-27.512797912116973,-252.068906580601,-499.90970477115616
6.8012499,-34.874432436970146,-32.250389814538,1.9805553348657505,-21.732664810768483,-315.69371887765664,-501.73974671822384
6.811249900000001,-45.07415218163453,-19.811716218047025,-4.261267422320611,-43.46602960460598,-345.76984759709615,-477.7324458044758
6.821249900000001,-46.749396218001316,-5.921046130757712,-7.867018995320624,-88.94436309082798,-333.9539219187636,-430.7231476397624
6.8312499,-44.683292837830315,3.219182071310656,-9.744343105298471,-145.5906674663701,-286.9557006705604,-384.0242697326003
6.8412499,-43.35729121350336,6.487305844643366,-10.382418561307622,-188.75354384023098,-209.43440566907836,-326.53015315488034
6.851249900000001,-41.395365776002485,9.134613031830703,-9.447745693636437,-196.96598861629192,-124.13478891440316,-265.7723072074905
6.861249900000001,-37.165430526314736,9.872358837355655,-9.287975664424401,-154.15239004780466,-52.088095150042804,-206.2559627985105
6.8712499000000005,-33.102319149246135,8.812389546035076,-8.610495342906177,-80.54311976996718,8.623063071784172,-138.59667952754046
6.8812499,-29.396652392327088,6.937663480922618,-7.055204870833586,2.3431481602096955,55.99962301479888,-65.82067652797566
6.891249900000001,-24.35237057720268,5.574707248266034,-6.424475517920756,83.03659926718099,87.3095263718793,6.409875955452039
6.901249900000001,-19.533634563051347,4.845548633153783,-7.158611125026079,141.32301903588038,107.91730043285105,65.66947065209166
6.9112499000000005,-16.23956122888272,3.674009026787878,-8.91570965109108,161.10182084100762,115.88321054832652,94.19873252859472
6.9212499,-12.704926676129789,2.3823701052474364,-10.542805214097609,157.5524466482548,113.22581296566192,102.04070362700014
6.9312499,-8.235454844458017,0.6983213175910876,-11.05695593185253,142.13736082848243,105.54720498925147,100.66098043442894
6.941249900000001,-3.540594853695038,-1.8380568519624507,-10.827592858887428,120.06333929442236,98.13532010197983,97.31825518510192
6.9512499000000005,0.7058693689960643,-4.494292264483684,-10.26250798636183,96.08666271695438,92.68429209641667,95.67116347454107
6.9612499,4.107911205886391,-6.513528889680465,-9.494142080231171,75.85577059852959,88.7686606549501,91.95660240585237
6.9712499,6.181036594033234,-7.488991325899616,-8.869693639551205,61.38774550558721,84.67595026583423,83.07889302104667
6.981249900000001,6.987195427712141,-7.730279250509047,-8.583870602962849,54.973502750478296,80.06178929720281,70.19651867553927
6.991249900000001,7.122418252709667,-7.94804183579574,-8.55403154224441,58.33202199270708,76.80747124606518,56.63448225657774
7.0012499,6.932808248467004,-8.096422082619231,-8.733820661134938,67.76679548620615,75.43352297294126,45.0632266579701
7.0112499,6.581426659012948,-7.655530085106472,-9.178026878465015,77.86850669579808,74.5097135640596,35.97328029696095
7.021249900000001,6.330753764308345,-6.788767769505524,-9.657059484581076,86.42345202369572,74.33476160387302,28.769756122481823
7.031249900000001,6.371382913383127,-5.8850239995208256,-9.887597681850025,92.0265130112439,75.91895005092394,22.387478672894748
7.0412499,6.444686476134939,-5.003492926205334,-9.78390222700395,91.46975844560482,78.80130916298582,16.45260335343515
7.0512499,6.439970065396651,-4.265044833101288,-9.468691892923662,84.98321851622663,83.38376316493961,10.839901069988581
7.061249900000001,6.407561957670435,-3.736493645660477,-9.166349861343356,74.80291258310918,89.98958395768963,5.019449749476621
7.071249900000001,6.318295254241187,-3.3409809478822488,-8.837202890976636,61.27113572658288,97.9508802588066,-0.782881371316658
7.0812499,6.02231046200641,-3.23964326113203,-8.38074799698433,47.547125820891154,106.52673054365793,-5.742807422803998
7.0912499,5.266586018896448,-3.527864779942157,-7.888194948792747,37.04734200304978,113.16204650081396,-9.283717464747534
7.101249900000001,4.406756868793836,-3.85038971061234,-7.67183379021809,29.71865471651488,117.27210394122521,-10.768271703614333
7.111249900000001,3.873918307202818,-3.9753046016009534,-7.702720143862322,26.496569933436508,119.39937876411683,-10.162747077401878
7.1212499000000005,3.587843550803418,-3.8062537010704864,-7.708521132581503,26.1206180380584,120.51277631971053,-9.135692831813524
7.1312499,3.555796928323111,-3.5686132647484734,-7.574244430889916,26.60542941570297,121.7768842669948,-8.288309924715152
7.141249900000001,3.7460188183146736,-3.5754095502324375,-7.181322288749878,29.695558979307997,123.1250996266924,-7.961776739680239
7.151249900000001,4.077192745160748,-3.555783501428575,-6.546857367226588,34.4891247076069,125.1377509900241,-7.940012765433118
7.1612499000000005,4.395414136029684,-3.3797035995747384,-5.823659424758333,39.21791160450057,127.98356020008895,-7.343919556447797
7.1712499,4.735186579878367,-3.5176793782966813,-5.124679762083244,46.070276219222364,132.1746699237486,-5.848346192786764
7.1812499,5.1416500441081165,-3.7146892272104264,-4.654458068905282,53.6842251257398,137.4782527786551,-3.1777229953403596
7.191249900000001,5.509182122788377,-3.775672857156177,-4.423718702667044,61.349385491036145,143.22549781539504,0.6027504306135406
7.2012499000000005,5.726473670934887,-3.9387185315196658,-4.223495882182325,69.54222916195349,148.7628419857146,4.5344977156957516
7.2112499,5.8433873053660115,-4.073561491690766,-4.068184499268641,77.17476367959331,153.68055084835657,7.7708096036055405
7.2212499,5.998179558174337,-4.282077444429189,-3.9510848304098922,84.63627779763304,157.4380018312725,10.04792535199015
7.231249900000001,6.170217829396602,-4.536762976374132,-3.7684836133842774,91.26882576507586,160.48740202911736,11.744058569664281
7.241249900000001,6.248397302107427,-4.656745516663675,-3.5373910749211057,96.42159003287834,163.27465038179514,12.876242213474912
7.2512499,6.310680012459793,-4.805771665320323,-3.3776642985408762,99.7253257461059,165.74626159049893,13.162885227200894
7.2612499,6.4138269111456365,-4.848890553930934,-3.180661327476392,99.50671873143466,167.77429142550054,12.243652960070683
7.271249900000001,6.593420107862536,-4.7598076048666895,-2.8305567502474696,96.46697410767804,169.69961212624915,10.05673083317399
7.281249900000001,6.743081791370687,-4.846808935305217,-2.5796610299407687,92.7435504080249,170.6362113097966,6.716604062007183
7.2912499,6.884805896103563,-4.864048837980228,-2.663771481671451,88.58668562439567,169.1975969616312,2.834917670767606
7.3012499,7.235693945153962,-4.626118590444519,-2.810962089925608,83.99216103357827,165.99161195394143,-1.3461860798221574
7.311249900000001,7.576908799309199,-4.5469420264818865,-2.6788446233567913,79.9134047638842,161.0622142246959,-5.328629698605107
7.321249900000001,7.877235741301327,-4.619006117119702,-2.5883861408331272,76.65751644863184,153.8699681889134,-7.832064181749192
7.3312499,8.394969981089636,-4.557733454870418,-2.568104710368275,74.48676004393288,146.8133204827988,-8.183604087748323
7.3412499,8.806198851329821,-4.459787374922775,-2.3339913918776536,72.3157377764525,140.3785585355287,-7.024354297025995
7.351249900000001,8.986492014343266,-4.230719759319562,-2.139300123824383,69.60650883105929,134.01988152662346,-5.02142121036149
7.361249900000001,9.448485587604747,-3.880823289851136,-2.20802174017293,66.87758872661105,126.94852095203387,-2.7948455521083857
7.3712499,10.145314374600352,-3.682334542067764,-2.268295531901377,64.15160626280755,118.42453234503095,-1.0280344726902684
7.3812499,10.600569876484048,-3.6265880564757564,-2.2230012088759454,60.918849472773175,108.94278342945232,0.3158932750137714
7.391249900000001,10.73763014604508,-3.698245635363628,-2.289326286992518,57.98673897148077,98.96435499093126,2.1698895372488134
7.401249900000001,10.689541701877598,-3.908297921619811,-2.3426410040382377,55.82550556914802,87.88981489850259,5.16060813925093
7.4112499,10.633298784321985,-3.9773881610505724,-2.3783226444879557,53.41855622713786,75.76606838831829,8.930476163734179
7.4212499,10.593481382793792,-3.9852918729762576,-2.4638290730782617,51.49252237267538,62.872474579224935,12.755548633278748
7.4312499,10.462214415603844,-4.019983942556159,-2.5212138915377085,49.388231173673866,49.39723176624801,16.259837351687562
7.441249900000001,10.34191696416589,-4.021649356412779,-2.464418315707697,45.859143469901205,36.44178829220158,18.761101093968524
7.4512499,10.407866299680313,-4.152166717494214,-2.243795662686781,41.255538287122086,25.075032420539074,20.35022285155369
7.4612499,10.491784729081422,-4.310915436666469,-1.9647504839333954,35.69263478249352,15.413823796281232,21.011112818410222
7.4712499,10.322260647029012,-4.331135451460039,-1.678556710462505,28.64964097259289,7.599373588066956,20.51272386871192
7.481249900000001,10.022693744943858,-4.3427154456606,-1.3992093410790454,20.336164190089317,1.8660826553891934,19.07500218340142
7.491249900000001,9.79404845912768,-4.317102049197986,-1.1576167361489187,10.639166865254134,-2.3315986968521387,16.620121866816966
7.5012499,9.588659409521302,-4.329865798160206,-0.9283135889936954,1.07896587496695,-5.657988975627529,13.382377562535563
7.5112499,9.29225766408548,-4.583332788778386,-0.6949957074227642,-7.4701032892477714,-8.406462772277012,10.350966446297093
7.521249900000001,8.914300148883543,-4.775363159431742,-0.5745527436425343,-16.685409257708002,-10.14760001948616,7.646612622931863
7.531249900000001,8.647241225222675,-4.865610552814873,-0.43902019059028047,-23.649161896036656,-10.859426921692448,5.518071561306695
7.5412499,8.517378199661316,-5.0717020151784835,-0.2460504514302872,-26.787949409242607,-10.999842193002383,4.078488945620677
7.5512499,8.301440762344383,-5.275145973873648,-0.2656369419452478,-27.677066055479564,-10.668366612285416,3.1093285787769593
7.561249900000001,8.11899232930613,-5.440207254082736,-0.3355584030698679,-26.787056790309773,-9.782272325310206,2.8065705298174874
7.571249900000001,8.172702194558672,-5.569381986578734,-0.23764441477628476,-24.273269695066798,-8.054582721368128,2.7746654579897077
7.5812499,8.241656170003031,-5.692697883175584,-0.12421442112038,-19.43603379645235,-6.119742935674239,2.964818904417765
7.5912499,8.200751985785224,-5.8181597297300405,-0.07809104707540998,-12.698912562595368,-4.104552518142494,3.5724399944530636
7.601249900000001,8.154257125846177,-5.923697135587832,-0.06693062776640761,-4.52032078363034,-2.4593972866250424,4.882001058298498
7.611249900000001,8.062789307490656,-6.000783859845854,-0.1127999555443778,4.203776290032656,-1.4580874195320197,6.673807391832898
7.6212499,7.980418878233689,-5.878990984765913,-0.31389925093980675,12.132263724217998,-0.9408235596071047,8.159955152691435
7.6312499,7.98810139648108,-5.588569665138029,-0.5367331575465666,17.610082658958305,-1.4250662727981365,8.784677834485304
7.641249900000001,7.994940085671868,-5.306492238845476,-0.6824393445113669,19.630457389591268,-2.2911625920715433,8.784378374823682
7.651249900000001,8.002973876068332,-5.027775831972154,-0.8639595326210517,18.107014420483804,-3.106617487956557,8.104223588074356
7.6612499,8.079472101329928,-4.820143215485273,-1.0962486776680804,13.710357728017762,-4.110874936994451,6.638163484233694
7.6712499,8.16421809730864,-4.798378143074129,-1.268563952333694,8.098450967148976,-4.982463332438664,4.96177247630548
7.6812499,8.213134259142482,-4.900553514917973,-1.3120534803490047,2.5480255870457564,-5.416398473971153,3.692161538619668
7.691249900000001,8.270204160735888,-5.077455014477298,-1.26204679912965,-1.9514602411624402,-5.635008532096788,2.947324251180025
7.7012499,8.30336028790564,-5.316359318478779,-1.1630016088589836,-4.3267294094428,-5.571239160454644,2.703329396732345
7.7112499,8.270585465256206,-5.559290576250941,-1.045408327777114,-4.566845391253415,-5.2208210759872955,2.939617246664287
7.7212499,8.219175989765883,-5.812656159766261,-0.9403699341562347,-2.5496756667311886,-4.839357652011015,3.649504605426652
7.731249900000001,8.141920612991823,-5.961614002430008,-0.9248777089138566,1.8086135899626805,-4.655826283740138,4.707816827821128
7.741249900000001,7.967985878567388,-5.922216294345824,-1.0173261839634513,6.622201734599326,-4.4175055410703585,5.591666508777201
7.7512499,7.818776415688936,-5.832255437688647,-1.0773815738691876,9.865943820121919,-4.273338351254082,6.165088890540231
7.7612499,7.743217217124835,-5.71683157808132,-1.0749566443552798,11.312681821732577,-3.9260599288596723,6.726514013021722
7.771249900000001,7.690456220759325,-5.62158178567788,-1.1121733131321554,11.759598235035643,-3.434821970836408,7.198206238044716
7.781249900000001,7.650531383042605,-5.508846771398073,-1.1402411643458732,11.38834350147067,-3.0321100018905436,7.9647333454358655
7.7912499,7.5953831801079055,-5.369600168548106,-1.0944905469253117,10.026451006817572,-2.373185621464679,8.8915763248549
7.8012499,7.49053480671033,-5.366111060412631,-0.9858215397371904,8.975063835046935,-1.590574909014695,9.896472014899597
7.811249900000001,7.395097478847763,-5.435086749737775,-0.8674603765549346,8.787566852417198,-1.1253252825325255,11.548534977303659
7.821249900000001,7.277634010966512,-5.431032750221602,-0.7822205447109221,9.40666419642797,-0.8765391633227565,13.51690542793821
7.8312499,7.113763646895384,-5.4635292959689306,-0.6947643738240411,10.704828136745332,-0.8455621161611427,15.59359390345495
7.8412499,6.958317459718654,-5.515952987010254,-0.6179096622368471,12.559549368284497,-1.0479711800015998,18.081182547391943
7.851249900000001,6.755529616253478,-5.521133985421869,-0.5517862778697288,14.817165377386205,-1.5526256619145862,20.832733701683786
7.861249900000001,6.543217756414611,-5.549471742121969,-0.4955318116798708,17.43744857267762,-2.386727089421385,23.904178694133982
7.8712499,6.433187661344982,-5.5656504542591865,-0.5142899814087905,20.13197495537368,-3.130520919135495,27.490884643002182
7.8812499,6.307401903071968,-5.451527048141804,-0.5482391628653424,21.909670834908535,-3.772258617332169,31.036339461123795
7.891249900000001,6.097869217991673,-5.335902295216526,-0.5487072543762301,22.705364457272225,-4.588061402384123,34.52310340046548
7.901249900000001,5.871252248787292,-5.359424512198712,-0.5440906574864994,22.68618340155749,-5.475550836937677,38.29755524296294
7.9112499,5.605174119763309,-5.389548430694251,-0.536708512688959,21.487953901427044,-6.186365046945906,42.45471380062943
7.9212499,5.344163310062394,-5.3646233775938805,-0.5894674918596035,19.904069791753518,-6.973171825506323,46.70308277752884
7.931249900000001,5.1328128929861006,-5.445280736573527,-0.7926985197896158,18.450067859859622,-8.023546059670107,50.89762569109832
7.941249900000001,4.956604534642253,-5.533772218829484,-1.146428197766969,16.25787183197103,-8.683968843663765,56.03332494222145
7.9512499,4.761827598364581,-5.452371239888385,-1.366611553218587,13.31696336350675,-8.882779616843012,61.66812552067215
7.9612499,4.509282116462846,-5.435671068351391,-1.378725197697955,11.177687239608957,-9.261910104553603,66.83553323384015
7.9712499,4.260098102328537,-5.553533039552249,-1.5026792369221371,9.59564598008085,-9.428817214464335,72.70272777128088
7.981249900000001,3.9012722382490352,-5.583952460994672,-1.7383675024212575,7.428336551007734,-9.638712309282974,79.70273419564258
7.991249900000001,3.3362249046159826,-5.547778603077648,-2.1226171917503884,4.959477593222314,-10.449026429385114,87.71122023037233
8.0012499,2.918048986583221,-5.560291868917554,-2.7917770124502512,1.705853782360765,-11.271662879917264,96.37604394011558
8.0112499,2.8128437584178503,-5.497978094852816,-3.2845021533235133,-4.115058958140066,-11.17878274121536,104.91195628563655
8.021249899999999,2.784530180741163,-5.317556741190837,-3.423860796513656,-12.630602440710145,-9.907179582232988,112.67334751027212
8.031249899999999,2.7159476587208937,-5.2590342498592575,-3.614786655452375,-22.99190916985975,-7.459461296776621,119.75651657855504
8.0412499,2.5595846376123332,-5.404993365169271,-3.8851504181345327,-34.73761806310413,-4.375009370567307,126.78577807633842
8.0512499,2.2189911970112566,-5.587445767228037,-4.275648642701553,-46.677464834206035,-1.2441326286678882,134.67589108957347
8.0612499,1.832612305428885,-5.7521811944535415,-4.853377557947275,-58.147347389637346,1.968621637764369,143.79020567570987
8.0712499,1.5658009842124765,-5.975424624083873,-5.232861636260608,-68.92455318795797,5.457648415883028,154.04861893071345
8.0812499,1.3558251773508307,-6.380952579180216,-5.457902104350504,-77.48395315658699,9.537312195798076,165.43401383441463
8.0912499,1.1533895505477814,-7.030987621462433,-5.651289368050725,-83.27668042934647,13.904084934728138,177.39641508210673
8.1012499,0.9807078673231686,-7.788240790964392,-5.662848808680831,-86.43010330716935,18.55576504437759,189.67680266898114
8.111249899999999,0.8059859852942091,-8.404644144440644,-5.7985367589670265,-87.5974736207526,23.71138238911626,202.00379152413285
8.1212499,0.749771166466106,-8.90380837014421,-6.312852892996335,-87.4929897768621,28.80003965588504,214.41256990116966
8.1312499,0.961548256472411,-9.374907100262133,-6.771093935056246,-87.3177589217828,33.07950765921254,226.2146197552406
8.1412499,1.2418310482243995,-9.665153115157084,-7.0343292884865525,-89.57526648465905,37.19847085112441,236.86459059042818
8.1512499,1.4561198657990133,-10.145570076463367,-7.3980341077409975,-96.4411288082242,42.64201227066866,247.71171988824213
8.1612499,1.7158112597044328,-11.01718453089288,-7.682110764500147,-107.24427570954252,48.80724389702178,256.2315206050112
8.1712499,1.9271476971199937,-11.84032416097601,-7.839840768087982,-119.13041218176816,53.852546904338055,259.9460012488739
8.1812499,2.243056115651608,-12.895378570597261,-8.151896131244053,-129.66942891348432,56.91446946615144,259.96220929769294
8.191249899999999,2.702795928309747,-14.43177851195942,-8.724290098566499,-138.56999226617074,57.77969196136826,257.6197905013779
8.201249899999999,3.2198222219635237,-15.85239147600038,-9.256158083169824,-147.69908605886533,57.07634172634275,253.40457264496789
8.2112499,4.061292416472315,-17.234008037481942,-9.264568324872915,-155.69577013390546,56.24340956661417,246.41896337161933
8.2212499,5.111988319666657,-18.64258531310617,-9.019039888595414,-162.78654700700122,56.74766095912636,236.42768716795766
8.2312499,6.023623940569165,-19.82956754902073,-8.977068418055245,-170.19423264503308,57.51170314773109,223.5730516706572
8.2412499,7.050701130220552,-21.02814461999324,-9.115730685913409,-176.6070033813394,58.28058192664884,208.00589766891477
8.2512499,8.494575017570611,-22.6353274736835,-9.277556625340207,-181.22081232152556,59.68660453091634,189.57645133168373
8.2612499,10.058524858814655,-24.54853566839415,-9.152469242714165,-183.74760349643185,60.220079170508065,167.50516131719579
8.271249899999999,11.64250660723371,-25.999370016508728,-8.929521458445283,-185.7639709183017,59.86527106306595,139.19181624979646
8.281249899999999,13.383565769118118,-26.840132800391164,-8.696230483866767,-188.79230511182354,58.90820154680211,102.14007362240099
8.2912499,15.443005054003265,-27.884535328147045,-7.842732751689935,-190.99704133233536,57.03637088510961,56.02397677794235
8.3012499,18.024910754610502,-29.151371677814527,-6.231062615373968,-189.50474683671516,52.797594031667266,0.3211196966077188
8.3112499,21.188038410176315,-30.12778592326172,-4.101183687037539,-184.94760434754488,44.03240144300988,-63.91433911641483
8.3212499,25.06108848628564,-30.872277284921875,-1.2516376481907472,-182.93646404031938,33.10384625826654,-132.75416467671025
8.3312499,28.593472822042372,-31.670446418136212,2.6558265965338475,-188.4969476433093,21.954636641640857,-205.12721165175623
8.3412499,30.564909057281575,-32.84671047864324,6.948728382575691,-203.006965175396,11.301268740442461,-277.9939865197898
8.3512499,30.63526953900047,-34.2634265162978,10.84833172865714,-232.86097886694074,5.24879780195122,-353.14559620026085
8.361249899999999,26.926903521377987,-37.27667623829081,14.6120974029555,-281.56527740641565,3.0902726241062117,-444.2249761303794
8.3712499,20.73082819091079,-42.484040043348095,17.073581948046343,-315.5759135995827,2.9132778668964683,-500.42021486795
8.3812499,13.692163879543893,-48.37577607284753,18.327205729991448,-310.1577347025176,1.311414065611262,-500.80810287317587
8.3912499,4.44571210051631,-54.268626040836594,19.498544110478353,-264.32365298821003,-13.19502598732621,-499.12923074682305
8.4012499,-6.830901632283147,-57.51860153669958,19.514212415683875,-187.2430466861688,-54.27426567715992,-500.3006488860111
8.4112499,-20.464636767339716,-53.16904579654078,17.58747818201937,-104.6779613169197,-129.4508658179272,-500.22385882667936
8.4212499,-35.72937300121186,-41.049789052400016,14.186386548804004,-36.395846175649645,-222.11012648316898,-499.56173900204436
8.4312499,-47.93133126150268,-25.155948691317047,9.16246864453235,4.0665819600768645,-302.54316909449363,-499.74953266925525
8.441249899999999,-49.322375686996054,-6.117320087955699,3.7443980316893257,3.7915567062635485,-343.703823717959,-502.8431878149156
8.451249899999999,-43.61411020130832,9.275567059468083,1.4665068729422244,-32.630901095442184,-340.41885667694277,-463.5192265044305
8.4612499,-40.14713675156177,16.415695640506364,0.3868053190716392,-76.63054374572695,-301.21875949910924,-374.6228923638554
8.4712499,-36.27950112009214,20.23353614771701,-2.8367415185325253,-108.51653049650781,-241.82776870973703,-289.50961147412755
8.4812499,-30.34386586759696,20.176455326499642,-6.428605904873876,-112.89691213790307,-169.53155613342298,-210.99474497539637
8.4912499,-26.392677234051142,15.139491928661876,-8.334274538157336,-81.91170670607794,-99.39430207010157,-131.53208639764594
8.5012499,-25.139941290298843,8.49377228883543,-9.372082629964941,-28.317055895840237,-43.68273151696789,-57.31627988816694
8.5112499,-23.63838665078936,3.8500181560942437,-11.392027909674672,19.104653632358055,3.269462360688218,-2.522773400708189
8.521249899999999,-20.567690290675987,0.9905743909309022,-13.035272697742771,48.52413996445159,43.585058417115675,23.226532634732685
8.531249899999999,-17.235229577076456,-1.0474736057935814,-13.215680868741376,61.68396172047987,74.23744904574143,25.888686479002036
8.5412499,-14.443186010626741,-2.625650882088253,-12.758148813238552,65.56274243678926,90.07418620498353,19.705616240259097
8.5512499,-11.665344160166853,-3.9732049425116234,-12.407415887876521,69.6059246705163,92.77341035069341,15.69046910146687
8.5612499,-8.50724774869023,-4.823584837893775,-12.053539070795079,81.76485387201514,87.27782860156132,16.93550449419978
8.5712499,-4.607821590400723,-4.50327878303848,-11.420616040297318,97.27740415373826,76.5240076949941,22.446196662298153
8.5812499,-1.172912989412177,-3.4186608123500455,-10.57762041973706,104.38180198614549,67.84482932589486,29.3018072530159
8.5912499,0.9912990416785682,-2.799581248805752,-9.845447435185664,104.34639933887487,64.93648643955972,36.37144163149154
8.6012499,2.6504795832615913,-2.2930304010684814,-9.346475262050154,97.70164714087389,65.70106923984609,43.46583564920582
8.611249899999999,4.050717831293505,-2.048179736261773,-8.795171948914751,89.0556356788116,70.13506075161138,49.3891307160675
8.6212499,4.67952549380892,-2.4052764326377276,-8.472114202708399,83.53742725714197,77.10591760337037,53.82205486388677
8.6312499,4.588833256834876,-2.8179968104065414,-8.57592760493787,77.61098323472541,83.75938863559693,56.793777354452544
8.6412499,4.418039125735953,-3.584613030180692,-8.79790220683505,74.6575774375111,88.70436670584238,58.00693020996788
8.6512499,4.327405390188109,-3.9414237817082687,-9.063996918645534,73.1947772906775,92.08268183286734,56.67941246807756
8.6612499,4.27571753812405,-3.6466008175743854,-9.194245112276073,69.27710330397369,94.32095887939337,52.395264328971464
8.6712499,4.314053987837175,-3.475131497893172,-8.886810475639082,64.85231935942959,95.39840060257362,46.12073827928432
8.6812499,4.206336180513241,-3.8000877041791594,-8.246658832154104,62.49705871405557,95.21206469008334,39.78772656060751
8.691249899999999,3.9934140034144656,-4.378496476498367,-7.5401733772571,61.31238488303145,94.49935270564508,34.9132294868311
8.7012499,3.8103810054839435,-4.718070637243737,-6.877163483290116,60.39559455754913,94.14416444791671,31.549406165997063
8.7112499,3.6962106652346267,-4.921545116385142,-6.481846036929961,60.616365744254416,94.582055697409,29.130251698522446
8.7212499,3.736280983532343,-5.054169696909354,-6.644441531840771,61.28957176781436,95.60571846214722,27.41777125487818
8.7312499,3.9536196080076422,-4.614748784599912,-7.044833142255364,58.823896173396804,98.52741353453082,25.54128922606193
8.7412499,4.1661056011279785,-3.754161578394008,-7.312717344502364,51.03145953295612,103.56571015564178,22.684845328340707
8.7512499,4.246194543416104,-3.3588345726361335,-7.317013615332877,42.12767751580135,107.93102107417094,18.318197184706317
8.7612499,4.63590342766899,-3.271184160248262,-7.059778459972414,34.5744724668908,111.40549904370201,12.559710284324744
8.771249899999999,5.201116779311734,-3.2910582076664996,-6.55783767565927,28.49066226424753,114.5297623844416,7.428042086978562
8.781249899999999,5.245909042854652,-3.6630848702203114,-5.997654421643009,26.296255544135438,116.2811934474109,5.850131420649769
8.7912499,4.901793156551427,-3.9730230132254434,-5.977350730027025,28.42418083024695,115.72783362839635,8.526942778026775
8.8012499,4.441559599401732,-4.114031241462308,-6.133573814603404,32.8166964500909,112.52408210744986,12.981957309563203
8.8112499,4.132173988777661,-4.017653550183975,-6.23931243372784,36.32616051928605,108.5320389174517,17.593708808688934
8.8212499,4.324941610436963,-3.813003964522819,-6.489157580915162,37.836010317657085,105.77409713521999,21.511828546311463
8.8312499,4.707879900731875,-3.793577138797351,-6.411719344919927,37.456546515435846,104.54221369487277,24.56239739553586
8.8412499,5.034066759236152,-3.961750030427437,-5.951091568927216,35.18048087627678,105.3863587585878,26.56446264293163
8.8512499,5.576790877135611,-4.37512388527252,-5.565792489470605,32.8555603092032,108.25364043898195,26.941857794740148
8.861249899999999,6.242934252260156,-4.801553259984933,-5.259395815602923,32.07070856553385,111.5774379930793,25.806494774104358
8.8712499,6.8276781044192445,-4.94430108604883,-4.919845810582252,31.729580590914544,114.75778921691804,23.360129774493878
8.8812499,7.3161937994261095,-5.120656290154576,-4.713041660998304,32.2999945994081,118.26057347847573,20.32955089096327
8.8912499,7.354583081484337,-5.384646423365814,-4.672325805417144,33.24340973848547,121.44316269903763,17.9018738229067
8.9012499,6.990536885374737,-5.439412514249547,-4.81079471641231,33.4135693574439,123.55055648023597,16.64914357359907
8.9112499,6.798139534035861,-5.382047020308849,-4.96608386947404,33.042947743379216,124.93639158870921,15.772416894365136
8.9212499,6.693880225994879,-5.0645507570031745,-4.755825075980037,29.394833139954383,126.41190952523537,14.432323389551598
8.9312499,6.654550201664448,-4.850959384784374,-4.155298367966834,25.984329299528966,129.2537737112033,12.576171456285946
8.941249899999999,7.044358192016634,-5.252740464870935,-3.5846731861269654,27.851410050078375,131.68358993790653,11.399217603477094
8.9512499,7.624869874050597,-5.953898672541502,-3.1595817362127874,35.45617926659095,132.38089793404316,12.220787007984738
8.9612499,8.042528717781801,-6.875135900146337,-2.8321458147524257,51.57622232942212,132.84034785997207,15.841785257426107
8.9712499,7.948324674565349,-7.20073041226753,-2.697461078980404,69.99163628303748,130.70678814030003,20.53833173570718
8.9812499,7.730287948779005,-6.554242032244039,-2.7543750935092346,86.00505550708894,124.71778347670099,23.615039466812675
8.9912499,8.230146141689232,-6.0203035624014305,-2.929265035501105,106.35719019506429,117.35687448295931,23.96611206020529
9.0012499,8.681797131003249,-5.6288505859186095,-3.084142112659598,123.8654010835227,109.85760870597407,22.22448054427881
9.0112499,8.571075855505622,-5.1988439831008,-3.217880488878912,134.86109116011178,102.3153769593997,20.065787628290966
9.0212499,8.54876185872324,-4.89897272930673,-3.223938481508741,143.6576298237834,94.99677359492425,18.379605588931543
9.0312499,8.993645127081058,-4.709065495128063,-3.1142383204217623,149.2533158756384,88.38843767130531,17.51477873743087
9.0412499,9.438066230631614,-4.647889485336846,-3.1476435304127084,151.3685974268743,81.63263408983035,17.46681123413489
9.0512499,9.388164596281534,-4.461733576936701,-3.359615518666549,148.5466826573058,73.3841309707816,17.335573322762784
9.0612499,9.400891340191164,-4.169536180522125,-3.5838156555694733,141.42629905836145,64.40687488658804,16.62150594439586
9.0712499,9.523268175047173,-4.138279052218713,-3.686273263609419,133.0598038176836,55.64439342923188,15.63896870488178
9.0812499,9.497810999553444,-3.8515957562792456,-3.8557145575777145,119.34518508035181,46.54380802401288,13.765658045614456
9.0912499,9.600962041719754,-3.679956993005545,-3.8680768636921012,104.61823763411613,37.4549686305406,11.105599906627901
9.1012499,9.66468170907207,-4.030089351948703,-3.670314059901496,92.47338667223212,29.307053927182245,8.490412253461837
9.1112499,9.470430106055973,-4.374965368608643,-3.406727141752963,80.07588355009625,21.69365676163053,7.026985150384778
9.1212499,9.467372187914581,-4.853091519865274,-2.9843888018065536,70.75668539988541,15.276778786376736,7.08027868585352
9.1312499,9.433600820334567,-5.148889652053942,-2.701214174076163,62.25067100087694,9.324793130697424,7.43697652851939
9.1412499,9.338745497611022,-5.386895559212226,-2.6023964061521454,55.3970859058425,4.35839893691159,7.7078722344293205
9.1512499,9.269313340153444,-5.70235700027139,-2.4504512307689144,50.75145837336499,0.23911573088209326,7.6791022177095645
9.1612499,9.045734240890681,-5.944616619829536,-2.256538656063256,47.34081577408419,-4.008332159335071,7.2492389830183726
9.1712499,8.796290182937655,-6.209639567081782,-2.1077646258497724,45.67326867108732,-7.802181245974711,6.300545596867553
9.1812499,8.61177341937555,-6.393384928350916,-2.0445900001538413,44.71580973046806,-10.660432158307941,5.048357892984652
9.1912499,8.55321248135137,-6.490051891958657,-1.9332724416076836,43.7589474680486,-12.99415236613292,3.5136542443411147
9.2012499,8.489835748446582,-6.62207036465004,-1.6896798742135841,43.5232662445034,-15.031762950256669,1.0105192086871861
9.2112499,8.294054526240076,-6.745499275749721,-1.5680432067893293,43.951321221963866,-16.160288006389077,-1.4163882445559537
9.2212499,7.96906088271961,-6.70378450062711,-1.7126767504418647,42.29263012620747,-16.932561781183566,-3.3257075201090336
9.2312499,7.728032639249777,-6.5436731963777905,-1.9022816975440309,37.424181272622185,-17.163752147182652,-5.624306978552487
9.2412499,7.596192835768531,-6.527809320104757,-2.0270231357158215,31.51441769188556,-16.463513219169457,-8.16615786724074
9.2512499,7.518000226273832,-6.802929516139814,-2.02349240847614,25.593437961497656,-15.395999020651255,-9.893686030807274
9.2612499,7.723849820352906,-7.184310651044728,-1.7894710166096723,19.650680880509686,-13.842589644901338,-10.0383071513963
9.2712499,8.074895699948614,-7.4476993273557675,-1.481660269788331,15.026588678663451,-11.88782743626947,-9.177665421386695
9.2812499,8.358444789166844,-7.62323448620447,-1.1404258141628207,12.348586960353346,-9.837143703539267,-7.858575466448022
9.2912499,8.476880269070374,-7.75575267409642,-0.7556594502525201,11.141289801410002,-7.646084517987977,-6.728495326200972
9.3012499,8.325798495607108,-7.6085091020973765,-0.5099638691583104,10.553372750748983,-5.316071131579253,-6.728016688193953
9.3112499,7.951933074985346,-7.106772332779144,-0.4977396576850147,9.183792169904452,-3.5028664299289423,-7.83404544134625
9.3212499,7.661245027344872,-6.63780974620396,-0.6100088262857521,6.899963156119215,-2.2158009739855213,-9.943959880283892
9.3312499,7.472011750502407,-6.28563589256012,-0.7792917109734293,4.547999535477663,-1.4489314756076426,-12.592131531198119
9.3412499,7.359497347230644,-6.0144031622731395,-0.8223061951037737,2.477803864503415,-1.1301351376137507,-14.788885365505932
9.3512499,7.538168912030816,-5.8191515990023,-0.620612525153178,0.17646768067303936,-0.4153822716294666,-16.463815230707517
9.3612499,7.844627977128064,-5.656300027071019,-0.36364046409337886,-1.8418609227677958,0.9096237504730332,-17.694484678114975
9.3712499,8.002297830688583,-5.6340111022595485,-0.17698069711187203,-3.026039395322114,2.399374833885275,-18.018062711678414
9.3812499,8.007307901072847,-5.695572716421433,-0.08831651415260881,-4.160144559565404,3.8860673980463547,-17.143548801617072
9.3912499,7.886308285449234,-5.705255160601766,-0.1352507125873493,-5.850714603853582,5.134772568391325,-15.31242019337196
9.4012499,7.683492767735299,-5.685227488177235,-0.30186212437491267,-8.305725318476819,6.018678038570572,-13.034193148035925
9.4112499,7.311249284853721,-5.729708822059037,-0.49038986741992824,-12.187590500796787,6.436255790734811,-10.511299076623871
9.4212499,6.9119281815393,-5.878024293091278,-0.6118469025354352,-16.93287455956537,6.504697275578157,-8.454448987419996
9.4312499,6.660047484045073,-6.034669365262246,-0.747687974461108,-21.44890412340703,6.8003699582172965,-6.760293066671798
9.4412499,6.5373393480816615,-6.205477028624955,-0.87838710434216,-24.718950108404485,6.916260907788973,-5.09116190780142
9.4512499,6.538389735414164,-6.4171057155222035,-0.8645141085805521,-26.249754672804585,7.11197469983295,-3.483504946478351
9.4612499,6.543648982463915,-6.5765284158429695,-0.8291801590029891,-25.32734490231192,7.469609459384296,-2.0292366961042476
9.4712499,6.5173061765041025,-6.63578953019168,-0.9420799401368973,-21.673314450803794,7.384546110121405,-0.5146309615202729
9.4812499,6.580549597233542,-6.6541150759000365,-1.1595624072809496,-15.8506699582533,7.158728119660542,1.4235574669942002
9.4912499,6.72668701687193,-6.638699003100052,-1.369580420861165,-8.617122726615294,6.788103426854654,3.8180028751176063
9.5012499,6.858845228227296,-6.528619263705482,-1.4692305136411694,-1.2554931036167893,6.083036308066438,6.265390548913184
9.5112499,6.9696455491133005,-6.329874452236492,-1.480579426661861,4.494590440221251,5.502675198597129,8.848703881494874
9.5212499,7.1338500447649595,-6.1196891412842565,-1.5763170008702794,7.76467605690345,5.337814640792344,11.479144930635135
9.5312499,7.2476349098393795,-5.926668095149079,-1.7528098778688088,8.7933655513703,4.756661692179646,13.375484832360819
9.5412499,7.249727526695649,-5.749256521282222,-1.8281318583856367,7.417449048716967,3.545001893271854,14.597174449521974
