# Time (seconds),Accel_X,Accel_Y,Accel_Z,Gyro_X,Gyro_Y,Gyro_Z
0.0012499,8.848969459533691,-1.3263877630233765,2.913743495941162,19.744873046875,-33.233642578125,-0.48828125
0.0037499,8.844181060791016,-1.3287819623947144,2.8778305053710938,18.61572265625,-33.2794189453125,-0.244140625
0.0062499,8.832210540771484,-1.3431471586227417,2.8419175148010254,17.333984375,-32.89794921875,0.2899169921875
0.0087499,8.810662269592285,-1.3694833517074585,2.808398485183716,16.204833984375,-32.806396484375,0.5950927734375
0.0112499,8.786720275878906,-1.4053963422775269,2.7772738933563232,14.892578125,-32.6995849609375,1.0833740234375
0.0137499,8.753201484680176,-1.4532804489135742,2.7437551021575928,13.885498046875,-32.9437255859375,1.556396484375
0.016249899999999998,8.7268648147583,-1.50355863571167,2.7126305103302,12.6953125,-32.684326171875,2.25830078125
0.0187499,8.700529098510742,-1.556231141090393,2.669534921646118,11.4593505859375,-32.6385498046875,2.9296875
0.021249900000000002,8.678980827331543,-1.601720929145813,2.6168625354766846,10.0555419921875,-32.5469970703125,3.5247802734375
0.023749899999999997,8.65982723236084,-1.644816517829895,2.5522189140319824,8.72802734375,-32.196044921875,4.119873046875
0.0262499,8.640673637390137,-1.680729627609253,2.473210334777832,7.5836181640625,-32.2265625,4.7607421875
0.028749900000000002,8.619126319885254,-1.7118542194366455,2.3989901542663574,5.9814453125,-32.2265625,5.3558349609375
0.031249899999999997,8.592789649963379,-1.745373010635376,2.315192937850952,4.730224609375,-32.0892333984375,5.9814453125
0.0337499,8.56884765625,-1.7764976024627686,2.2385785579681396,3.5552978515625,-31.982421875,6.4849853515625
0.0362499,8.547300338745117,-1.8100165128707886,2.169146776199341,2.1209716796875,-32.0892333984375,7.293701171875
0.0387499,8.530540466308594,-1.8483237028121948,2.1140801906585693,0.8544921875,-32.196044921875,8.0718994140625
0.0412499,8.513781547546387,-1.8842366933822632,2.070984363555908,-0.3204345703125,-32.1197509765625,8.392333984375
0.0437499,8.49941635131836,-1.9321208000183105,2.0470423698425293,-1.6021728515625,-32.0587158203125,8.7738037109375
0.0462499,8.489839553833008,-1.9800047874450684,2.0231003761291504,-2.9296875,-32.28759765625,9.552001953125
0.0487499,8.485051155090332,-2.032677173614502,2.006340980529785,-4.486083984375,-31.9976806640625,10.009765625
0.0512499,8.487444877624512,-2.0829553604125977,1.9800047874450684,-5.8441162109375,-32.073974609375,10.528564453125
0.053749899999999996,8.487444877624512,-2.1284453868865967,1.9536685943603516,-7.14111328125,-31.8756103515625,10.986328125
0.0562499,8.487444877624512,-2.1715409755706787,1.9177556037902832,-8.4075927734375,-31.6162109375,11.383056640625
0.0587499,8.470685958862305,-2.207453966140747,1.8842366933822632,-9.6893310546875,-31.43310546875,11.8408203125
0.061249899999999996,8.451532363891602,-2.233790159225464,1.8626888990402222,-10.68115234375,-31.06689453125,11.8408203125
0.0637499,8.425195693969727,-2.2601263523101807,1.843535304069519,-11.71875,-30.975341796875,11.9476318359375
0.0662499,8.406042098999023,-2.279279947280884,1.843535304069519,-12.8021240234375,-30.8380126953125,12.0849609375
0.0687499,8.396465301513672,-2.300827741622925,1.845929503440857,-13.7481689453125,-30.6854248046875,12.3291015625
0.0712499,8.396465301513672,-2.3271639347076416,1.8579005002975464,-14.4195556640625,-30.517578125,12.3443603515625
0.0737499,8.406042098999023,-2.3535003662109375,1.8722656965255737,-15.07568359375,-30.181884765625,12.359619140625
0.0762499,8.418013572692871,-2.389413356781006,1.889025092124939,-15.594482421875,-29.6630859375,12.3138427734375
0.0787499,8.425195693969727,-2.425326347351074,1.9153614044189453,-15.838623046875,-29.388427734375,12.39013671875
0.0812499,8.429984092712402,-2.4612393379211426,1.9297266006469727,-16.0064697265625,-29.205322265625,12.237548828125
0.0837499,8.42040729522705,-2.5019407272338867,1.946485996246338,-16.204833984375,-29.144287109375,12.054443359375
0.0862499,8.403648376464844,-2.540247917175293,1.9488801956176758,-16.3421630859375,-28.778076171875,12.02392578125
0.0887499,8.379706382751465,-2.580949544906616,1.941697597503662,-16.3421630859375,-28.228759765625,12.0697021484375
0.0912499,8.35097599029541,-2.6192567348480225,1.9153614044189453,-16.5557861328125,-27.862548828125,11.7645263671875
0.0937499,8.312667846679688,-2.655169725418091,1.8722656965255737,-16.41845703125,-27.52685546875,11.5203857421875
0.0962499,8.274360656738281,-2.693476915359497,1.8171991109848022,-16.0369873046875,-27.2216796875,11.566162109375
0.0987499,8.226476669311523,-2.734178304672241,1.7573440074920654,-16.0980224609375,-26.85546875,11.505126953125
0.1012499,8.180987358093262,-2.779668092727661,1.6974890232086182,-16.05224609375,-26.4129638671875,11.3677978515625
0.1037499,8.133103370666504,-2.832340717315674,1.644816517829895,-15.869140625,-26.0467529296875,11.04736328125
0.1062499,8.092401504516602,-2.8778305053710938,1.6041151285171509,-15.350341796875,-25.7110595703125,11.0931396484375
0.1087499,8.063671112060547,-2.920926094055176,1.5705963373184204,-14.923095703125,-25.20751953125,10.8642578125
0.1112499,8.044517517089844,-2.9520506858825684,1.5490485429763794,-14.7552490234375,-24.96337890625,10.7421875
0.1137499,8.042123794555664,-2.980781078338623,1.5394717454910278,-14.5416259765625,-24.5361328125,10.3302001953125
0.1162499,8.044517517089844,-3.00711727142334,1.5322890281677246,-13.9007568359375,-24.169921875,10.040283203125
0.1187499,8.051700592041016,-3.023876667022705,1.5275006294250488,-13.00048828125,-23.7579345703125,9.918212890625
0.1212499,8.054094314575195,-3.047818660736084,1.5179238319396973,-12.75634765625,-23.223876953125,9.6588134765625
0.1237499,8.04930591583252,-3.050212860107422,1.4939818382263184,-12.5274658203125,-22.6287841796875,9.2620849609375
0.1262499,8.030152320861816,-3.0526070594787598,1.460463047027588,-12.115478515625,-22.1099853515625,9.0789794921875
0.1287499,8.001421928405762,-3.0550012588500977,1.4221558570861816,-11.932373046875,-21.1944580078125,8.6669921875
0.1312499,7.965508937835693,-3.0550012588500977,1.3766659498214722,-11.4593505859375,-20.7366943359375,8.3770751953125
0.1337499,7.931990146636963,-3.066972494125366,1.3431471586227417,-11.04736328125,-20.1873779296875,8.056640625
0.1362499,7.898471355438232,-3.0837318897247314,1.314416766166687,-10.4217529296875,-19.5159912109375,7.8277587890625
0.1387499,7.8745293617248535,-3.1100680828094482,1.2976573705673218,-9.9334716796875,-18.9208984375,7.5836181640625
0.1412499,7.860164165496826,-3.138798475265503,1.2832920551300049,-9.4146728515625,-18.3258056640625,7.1868896484375
0.1437499,7.850587368011475,-3.162740468978882,1.2737152576446533,-8.5601806640625,-17.63916015625,6.7291259765625
0.1462499,7.843404769897461,-3.1866824626922607,1.2617442607879639,-8.1634521484375,-16.754150390625,6.3629150390625
0.1487499,7.833827972412109,-3.205836057662964,1.2449848651885986,-7.6141357421875,-15.7318115234375,6.0577392578125
0.1512499,7.826645374298096,-3.222595453262329,1.213860273361206,-7.01904296875,-14.9383544921875,5.7525634765625
0.1537499,7.812280178070068,-3.24414324760437,1.1827356815338135,-6.5460205078125,-14.0228271484375,5.5694580078125
0.1562499,7.800309181213379,-3.265691041946411,1.1420341730117798,-6.1187744140625,-13.336181640625,5.1727294921875
0.1587499,7.785943984985352,-3.28963303565979,1.0965443849563599,-5.5084228515625,-12.6495361328125,4.974365234375
0.1612499,7.766790390014648,-3.3207578659057617,1.05105459690094,-4.913330078125,-11.810302734375,4.82177734375
0.1637499,7.757213592529297,-3.3470940589904785,0.993593692779541,-4.6844482421875,-10.6658935546875,4.7454833984375
0.1662499,7.757213592529297,-3.3686418533325195,0.9409212470054626,-4.33349609375,-9.8114013671875,4.486083984375
0.1687499,7.771578788757324,-3.3854012489318848,0.8930372595787048,-3.936767578125,-8.6822509765625,4.4708251953125
0.1712499,7.790732383728027,-3.399766445159912,0.8547300100326538,-3.631591796875,-7.7056884765625,4.2877197265625
0.1737499,7.814674377441406,-3.4093432426452637,0.8331822156906128,-3.3416748046875,-6.591796875,4.39453125
0.17624990000000001,7.836222171783447,-3.4189200401306152,0.8259995579719543,-3.143310546875,-5.4779052734375,4.364013671875
0.1787499,7.860164165496826,-3.423708438873291,0.8355764150619507,-3.1280517578125,-4.3487548828125,4.119873046875
0.1812499,7.881711959838867,-3.4404678344726562,0.8547300100326538,-3.0059814453125,-3.2958984375,4.5166015625
0.1837499,7.905653953552246,-3.464409828186035,0.8810662031173706,-2.6702880859375,-1.9989013671875,4.5166015625
0.1862499,7.922413349151611,-3.5027170181274414,0.9026140570640564,-2.471923828125,-0.579833984375,4.3487548828125
0.1887499,7.934384346008301,-3.550601005554199,0.933738648891449,-2.349853515625,0.701904296875,4.486083984375
0.1912499,7.9415669441223145,-3.598485231399536,0.9624691009521484,-1.861572265625,1.8463134765625,4.7454833984375
0.1937499,7.94635534286499,-3.646369218826294,0.9911994934082031,-1.40380859375,3.3111572265625,5.0048828125
0.1962499,7.953537940979004,-3.6942532062530518,1.01753568649292,-1.3427734375,4.669189453125,5.37109375
0.1987499,7.960720539093018,-3.737348794937134,1.0342950820922852,-0.9765625,6.28662109375,5.889892578125
0.2012499,7.972691535949707,-3.7828385829925537,1.05105459690094,-0.8392333984375,7.7972412109375,6.2103271484375
0.2037499,7.989450931549072,-3.825934410095215,1.0582371950149536,-0.5035400390625,9.307861328125,6.805419921875
0.2062499,8.020575523376465,-3.869029998779297,1.0630255937576294,-0.0762939453125,10.8795166015625,7.659912109375
0.20874990000000002,8.070854187011719,-3.912125587463379,1.070208191871643,0.54931640625,12.603759765625,8.453369140625
0.2112499,8.145073890686035,-3.955221176147461,1.0773907899856567,1.2359619140625,13.916015625,9.2010498046875
0.2137499,8.236053466796875,-3.993528366088867,1.091755986213684,1.800537109375,15.4266357421875,10.25390625
0.2162499,8.343792915344238,-4.027047157287598,1.1061211824417114,2.50244140625,16.90673828125,11.16943359375
0.2187499,8.453926086425781,-4.050989151000977,1.1228805780410767,3.4027099609375,18.798828125,12.2528076171875
0.2212499,8.571242332458496,-4.07014274597168,1.139639973640442,4.1351318359375,20.2789306640625,13.5498046875
0.2237499,8.681375503540039,-4.084507942199707,1.161187767982483,4.7454833984375,21.78955078125,14.7857666015625
0.2262499,8.78193187713623,-4.098873138427734,1.1875240802764893,5.5999755859375,23.25439453125,16.1285400390625
0.2287499,8.882488250732422,-4.10366153717041,1.2234370708465576,6.3629150390625,25.115966796875,17.3492431640625
0.2312499,8.96389102935791,-4.106055736541748,1.2689268589019775,7.2784423828125,26.7486572265625,18.7835693359375
0.2337499,9.038111686706543,-4.089296340942383,1.3215993642807007,7.9193115234375,28.350830078125,20.294189453125
0.2362499,9.100360870361328,-4.065354347229004,1.3742717504501343,8.392333984375,30.059814453125,21.392822265625
0.23874990000000001,9.153033256530762,-4.022258758544922,1.4245500564575195,9.1552734375,31.524658203125,22.735595703125
0.2412499,9.198522567749023,-3.97916316986084,1.4724340438842773,9.8114013671875,33.0963134765625,24.0020751953125
0.2437499,9.23443603515625,-3.93367338180542,1.5155296325683594,10.2386474609375,34.8052978515625,25.2227783203125
0.2462499,9.260771751403809,-3.9001545906066895,1.5514427423477173,11.2152099609375,36.163330078125,26.7181396484375
0.2487499,9.277531623840332,-3.869029998779297,1.577778935432434,11.993408203125,37.689208984375,27.8167724609375
0.2512499,9.29189682006836,-3.847482204437256,1.5969325304031372,12.6800537109375,38.87939453125,28.74755859375
0.25374990000000003,9.301473617553711,-3.8283286094665527,1.6065093278884888,13.4124755859375,40.008544921875,29.72412109375
0.25624990000000003,9.315838813781738,-3.818751811981201,1.6184803247451782,14.007568359375,41.5496826171875,30.94482421875
0.25874990000000003,9.32541561126709,-3.8115692138671875,1.6208745241165161,14.556884765625,42.694091796875,31.92138671875
0.26124990000000003,9.334992408752441,-3.821146011352539,1.623268723487854,15.0909423828125,43.8690185546875,32.89794921875
0.26374990000000004,9.344569206237793,-3.840299606323242,1.6041151285171509,15.5181884765625,44.9371337890625,34.1339111328125
0.26624990000000004,9.346963882446289,-3.8786067962646484,1.5753847360610962,15.9454345703125,45.9136962890625,35.0799560546875
0.26874990000000004,9.339780807495117,-3.9240965843200684,1.5394717454910278,16.5863037109375,46.38671875,36.102294921875
0.27124990000000004,9.313444137573242,-3.9671921730041504,1.4987702369689941,17.1661376953125,46.69189453125,37.353515625
0.27374990000000005,9.275136947631836,-4.010287761688232,1.4652514457702637,17.333984375,47.3175048828125,38.421630859375
0.27624990000000005,9.222464561462402,-4.048594951629639,1.4413094520568848,17.7154541015625,47.4853515625,39.581298828125
0.27874990000000005,9.172186851501465,-4.094084739685059,1.4293384552001953,18.1427001953125,47.4090576171875,40.46630859375
0.28124990000000005,9.14345645904541,-4.120420932769775,1.403002142906189,18.49365234375,46.93603515625,41.7327880859375
0.28374990000000005,9.114726066589355,-4.156333923339844,1.3934253454208374,18.768310546875,47.271728515625,42.3583984375
0.28624990000000006,9.121908187866211,-4.1611223220825195,1.359906554222107,19.0277099609375,47.0428466796875,42.9229736328125
0.28874990000000006,9.121908187866211,-4.14915132522583,1.3287819623947144,19.317626953125,46.905517578125,43.8079833984375
0.2912499,9.129091262817383,-4.1180267333984375,1.290474772453308,18.9056396484375,46.966552734375,44.4183349609375
0.2937499,9.133879661560059,-4.07014274597168,1.259350061416626,18.4783935546875,46.630859375,44.9676513671875
0.2962499,9.129091262817383,-4.022258758544922,1.2258312702178955,18.0511474609375,45.7916259765625,45.684814453125
0.2987499,9.117119789123535,-3.9911341667175293,1.2066776752471924,17.669677734375,45.1812744140625,46.1883544921875
0.3012499,9.114726066589355,-3.9863457679748535,1.213860273361206,17.3797607421875,44.403076171875,46.38671875
0.3037499,9.124302864074707,-4.003105163574219,1.237802267074585,17.1661376953125,43.5333251953125,46.7529296875
0.3062499,9.155426979064941,-4.0294413566589355,1.2856862545013428,16.7999267578125,42.7093505859375,47.2259521484375
0.3087499,9.188945770263672,-4.0533833503723145,1.292868971824646,16.2811279296875,41.9464111328125,47.54638671875
0.3112499,9.244012832641602,-4.077325344085693,1.414973258972168,14.1448974609375,43.5333251953125,48.126220703125
0.3137499,9.294290542602539,-4.086902141571045,1.4844050407409668,13.916015625,43.212890625,48.583984375
0.31624990000000003,9.337387084960938,-4.098873138427734,1.6376339197158813,14.0533447265625,39.8712158203125,47.9278564453125
0.31874990000000003,9.373299598693848,-4.110844135284424,1.766920804977417,12.725830078125,39.520263671875,48.248291015625
0.32124990000000003,9.378087997436523,-4.122815132141113,1.8555063009262085,11.4288330078125,39.1387939453125,48.3551025390625
0.32374990000000003,9.378087997436523,-4.129997730255127,1.9153614044189453,10.5133056640625,38.3453369140625,48.3856201171875
0.32624990000000004,9.35893440246582,-4.141968727111816,1.965639591217041,9.307861328125,38.055419921875,48.583984375
0.32874990000000004,9.334992408752441,-4.163516521453857,2.011129379272461,8.2855224609375,37.4908447265625,48.4161376953125
0.33124990000000004,9.32302188873291,-4.189853191375732,2.0590133666992188,7.7362060546875,36.346435546875,48.2940673828125
0.33374990000000004,9.301473617553711,-4.220977783203125,2.1116859912872314,6.8359375,35.858154296875,48.1109619140625
0.33624990000000005,9.289502143859863,-4.240131378173828,2.164358377456665,5.767822265625,35.70556640625,47.7294921875
0.33874990000000005,9.27034854888916,-4.244919776916504,2.2170307636260986,4.7454833984375,34.8968505859375,47.5921630859375
0.34124990000000005,9.241618156433105,-4.247313976287842,2.276885747909546,3.5858154296875,33.905029296875,47.1954345703125
0.34374990000000005,9.21288776397705,-4.256890773773193,2.3319525718688965,2.471923828125,33.172607421875,46.6461181640625
0.34624990000000005,9.186552047729492,-4.28322696685791,2.4013843536376953,1.52587890625,32.40966796875,46.5850830078125
0.34874990000000006,9.167398452758789,-4.323928356170654,2.4803929328918457,0.5950927734375,31.5093994140625,46.38671875
0.35124990000000006,9.153033256530762,-4.378994941711426,2.5761611461639404,-0.8392333984375,30.5633544921875,46.1578369140625
0.3537499,9.14585018157959,-4.446032524108887,2.6862943172454834,-1.861572265625,29.6783447265625,46.0662841796875
0.3562499,9.148244857788086,-4.513070106506348,2.8107926845550537,-2.7618408203125,28.900146484375,45.8221435546875
0.3587499,9.14585018157959,-4.580107688903809,2.9281086921691895,-3.7994384765625,28.3050537109375,45.8221435546875
0.3612499,9.133879661560059,-4.63517427444458,3.0334534645080566,-4.5013427734375,27.618408203125,45.8831787109375
0.3637499,9.10993766784668,-4.675876140594482,3.1244332790374756,-5.5084228515625,27.1453857421875,45.623779296875
0.3662499,9.066842079162598,-4.702212333679199,3.1962592601776123,-6.3323974609375,26.55029296875,45.3338623046875
0.3687499,9.01895809173584,-4.7189717292785645,3.251325845718384,-7.01904296875,26.123046875,45.0897216796875
0.3712499,8.966285705566406,-4.73573112487793,3.2992098331451416,-8.0108642578125,25.7720947265625,45.013427734375
0.3737499,8.913613319396973,-4.747702121734619,3.3303346633911133,-9.0789794921875,25.2227783203125,44.708251953125
0.3762499,8.863334655761719,-4.76924991607666,3.354276657104492,-9.9639892578125,24.6124267578125,44.647216796875
0.37874990000000003,8.825027465820312,-4.793191909790039,3.3638534545898438,-10.8184814453125,24.1546630859375,44.6624755859375
0.38124990000000003,8.789113998413086,-4.829104900360107,3.3662476539611816,-11.2457275390625,23.37646484375,44.219970703125
0.38374990000000003,8.765172004699707,-4.874594688415527,3.359065055847168,-11.8255615234375,22.5372314453125,43.8690185546875
0.38624990000000003,8.75080680847168,-4.920084476470947,3.361459255218506,-12.26806640625,21.8658447265625,43.6553955078125
0.38874990000000004,8.741230010986328,-4.967968463897705,3.3686418533325195,-12.5885009765625,20.7977294921875,43.27392578125
0.39124990000000004,8.746018409729004,-5.006275653839111,3.380612850189209,-13.24462890625,20.0347900390625,42.78564453125
0.39374990000000004,8.755595207214355,-5.039794445037842,3.397372245788574,-14.007568359375,19.3328857421875,42.4957275390625
0.39624990000000004,8.779537200927734,-5.070919036865234,3.406949043273926,-14.739990234375,18.4326171875,41.9921875
0.39874990000000005,8.801085472106934,-5.109226226806641,3.4117374420166016,-15.3350830078125,17.5323486328125,41.5802001953125
0.40124990000000005,8.827422142028809,-5.157110691070557,3.4093432426452637,-16.05224609375,16.90673828125,41.259765625
0.40374990000000005,8.848969459533691,-5.20978307723999,3.399766445159912,-16.815185546875,15.9912109375,40.771484375
0.40624990000000005,8.87051773071289,-5.272032260894775,3.3877954483032227,-16.845703125,14.862060546875,40.4052734375
0.40874990000000005,8.89685344696045,-5.327098846435547,3.380612850189209,-17.242431640625,13.885498046875,40.0390625
0.41124990000000006,8.973467826843262,-5.4252610206604,3.375824451446533,-18.4173583984375,12.2528076171875,38.8031005859375
0.41374990000000006,8.973467826843262,-5.4252610206604,3.375824451446533,-18.4173583984375,12.2528076171875,38.8031005859375
0.41624990000000006,9.05247688293457,-5.497087001800537,3.361459255218506,-19.4244384765625,9.9945068359375,37.628173828125
0.4187499,9.05247688293457,-5.497087001800537,3.361459255218506,-19.4244384765625,9.9945068359375,37.628173828125
0.4212499,9.093177795410156,-5.540182590484619,3.313575267791748,-20.416259765625,8.1787109375,35.797119140625
0.4237499,9.093177795410156,-5.540182590484619,3.313575267791748,-20.416259765625,8.1787109375,35.797119140625
0.4262499,9.102754592895508,-5.568912982940674,3.2537200450897217,-21.2860107421875,5.8746337890625,33.7066650390625
0.4287499,9.102754592895508,-5.568912982940674,3.2537200450897217,-21.2860107421875,5.8746337890625,33.7066650390625
0.4312499,9.119514465332031,-5.600037574768066,3.181894063949585,-22.1405029296875,3.3721923828125,31.55517578125
0.4337499,9.119514465332031,-5.600037574768066,3.181894063949585,-22.1405029296875,3.3721923828125,31.55517578125
0.4362499,9.162610054016113,-5.626373767852783,3.095702886581421,-23.13232421875,1.64794921875,28.9154052734375
0.4387499,9.162610054016113,-5.626373767852783,3.095702886581421,-23.13232421875,1.64794921875,28.9154052734375
0.44124990000000003,9.229647636413574,-5.659893035888672,3.0119056701660156,-23.74267578125,-0.518798828125,26.2908935546875
0.44374990000000003,9.229647636413574,-5.659893035888672,3.0119056701660156,-23.74267578125,-0.518798828125,26.2908935546875
0.44624990000000003,9.306262016296387,-5.702988624572754,2.942473888397217,-23.956298828125,-2.655029296875,23.5443115234375
0.44874990000000003,9.306262016296387,-5.702988624572754,2.942473888397217,-23.956298828125,-2.655029296875,23.5443115234375
0.45124990000000004,9.378087997436523,-5.758055210113525,2.875436305999756,-23.7579345703125,-4.119873046875,20.6146240234375
0.45374990000000004,9.378087997436523,-5.758055210113525,2.875436305999756,-23.7579345703125,-4.119873046875,20.6146240234375
0.45624990000000004,9.433155059814453,-5.849034786224365,2.7892448902130127,-23.2696533203125,-6.16455078125,17.8375244140625
0.45874990000000004,9.433155059814453,-5.849034786224365,2.7892448902130127,-23.2696533203125,-6.16455078125,17.8375244140625
0.46124990000000005,9.481039047241211,-5.928043365478516,2.6791117191314697,-22.735595703125,-7.8277587890625,15.167236328125
0.46374990000000005,9.481039047241211,-5.928043365478516,2.6791117191314697,-22.735595703125,-7.8277587890625,15.167236328125
0.46624990000000005,9.550470352172852,-5.978321552276611,2.559401512145996,-22.0489501953125,-9.429931640625,12.2222900390625
0.46874990000000005,9.550470352172852,-5.978321552276611,2.559401512145996,-22.0489501953125,-9.429931640625,12.2222900390625
0.47124990000000005,9.634267807006836,-6.023811340332031,2.449268341064453,-21.087646484375,-10.80322265625,9.6893310546875
0.47374990000000006,9.634267807006836,-6.023811340332031,2.449268341064453,-21.087646484375,-10.80322265625,9.6893310546875
0.47624990000000006,9.715670585632324,-6.064512729644775,2.3558945655822754,-19.8822021484375,-12.237548828125,7.1563720703125
0.47874990000000006,9.715670585632324,-6.064512729644775,2.3558945655822754,-19.8822021484375,-12.237548828125,7.1563720703125
0.4812499,9.794678688049316,-6.071695327758789,2.2840683460235596,-18.5546875,-13.5040283203125,4.9896240234375
0.4837499,9.794678688049316,-6.071695327758789,2.2840683460235596,-18.5546875,-13.5040283203125,4.9896240234375
0.4862499,9.873687744140625,-6.074089527130127,2.2242133617401123,-17.181396484375,-14.312744140625,3.1585693359375
0.4887499,9.873687744140625,-6.074089527130127,2.2242133617401123,-17.181396484375,-14.312744140625,3.1585693359375
0.4912499,9.914389610290527,-6.110002517700195,2.145204782485962,-16.0369873046875,-14.9688720703125,1.15966796875
0.4937499,9.914389610290527,-6.110002517700195,2.145204782485962,-16.0369873046875,-14.9688720703125,1.15966796875
0.4962499,9.890447616577148,-6.145915985107422,2.049436569213867,-14.5721435546875,-15.9149169921875,-0.457763671875
0.4987499,9.890447616577148,-6.145915985107422,2.049436569213867,-14.5721435546875,-15.9149169921875,-0.457763671875
0.5012499,9.840168952941895,-6.145915985107422,1.9823989868164062,-13.397216796875,-16.7236328125,-2.38037109375
0.5037499000000001,9.840168952941895,-6.145915985107422,1.9823989868164062,-13.397216796875,-16.7236328125,-2.38037109375
0.5062499,9.804255485534668,-6.114790916442871,1.9704279899597168,-12.0086669921875,-17.4713134765625,-4.2877197265625
0.5087499000000001,9.804255485534668,-6.114790916442871,1.9704279899597168,-12.0086669921875,-17.4713134765625,-4.2877197265625
0.5112499,9.775525093078613,-6.0621185302734375,1.9919757843017578,-10.772705078125,-18.096923828125,-5.9814453125
0.5137499,9.775525093078613,-6.0621185302734375,1.9919757843017578,-10.772705078125,-18.096923828125,-5.9814453125
0.5162499,9.75637149810791,-5.995080947875977,2.0159177780151367,-9.246826171875,-18.5699462890625,-7.5531005859375
0.5187499,9.75637149810791,-5.995080947875977,2.0159177780151367,-9.246826171875,-18.5699462890625,-7.5531005859375
0.5212499,9.732429504394531,-5.928043365478516,2.0470423698425293,-7.8887939453125,-18.8446044921875,-9.9029541015625
0.5237499,9.732429504394531,-5.928043365478516,2.0470423698425293,-7.8887939453125,-18.8446044921875,-9.9029541015625
0.5262499,9.677363395690918,-5.884947776794434,2.056619167327881,-6.4849853515625,-19.3023681640625,-11.5966796875
0.5287499,9.677363395690918,-5.884947776794434,2.056619167327881,-6.4849853515625,-19.3023681640625,-11.5966796875
0.5312499,9.576807022094727,-5.8657941818237305,2.013523578643799,-5.279541015625,-19.7601318359375,-13.336181640625
0.5337499,9.576807022094727,-5.8657941818237305,2.013523578643799,-5.279541015625,-19.7601318359375,-13.336181640625
0.5362499000000001,9.442731857299805,-5.849034786224365,1.944091796875,-3.936767578125,-20.7061767578125,-14.9993896484375
0.5387499,9.442731857299805,-5.849034786224365,1.944091796875,-3.936767578125,-20.7061767578125,-14.9993896484375
0.5412499000000001,9.315838813781738,-5.817910194396973,1.8698714971542358,-2.716064453125,-21.7742919921875,-16.29638671875
0.5437499,9.315838813781738,-5.817910194396973,1.8698714971542358,-2.716064453125,-21.7742919921875,-16.29638671875
0.5462499000000001,9.21288776397705,-5.762843608856201,1.8148049116134644,-1.28173828125,-22.94921875,-18.035888671875
0.5487499,9.21288776397705,-5.762843608856201,1.8148049116134644,-1.28173828125,-22.94921875,-18.035888671875
0.5512499000000001,9.14585018157959,-5.686229228973389,1.7884687185287476,0.1983642578125,-24.0478515625,-18.951416015625
0.5537499,9.14585018157959,-5.686229228973389,1.7884687185287476,0.1983642578125,-24.0478515625,-18.951416015625
0.5562499000000001,9.100360870361328,-5.600037574768066,1.7908629179000854,0.7476806640625,-25.0396728515625,-20.263671875
0.5587499,9.100360870361328,-5.600037574768066,1.7908629179000854,0.7476806640625,-25.0396728515625,-20.263671875
0.5612499000000001,9.035717010498047,-5.509057998657227,1.802833914756775,1.7242431640625,-25.665283203125,-21.2249755859375
0.5637499,9.035717010498047,-5.509057998657227,1.802833914756775,1.7242431640625,-25.665283203125,-21.2249755859375
0.5662499000000001,8.937555313110352,-5.4252610206604,1.7860745191574097,1.7547607421875,-26.30615234375,-22.0794677734375
0.5687499,8.937555313110352,-5.4252610206604,1.7860745191574097,1.7547607421875,-26.30615234375,-22.0794677734375
0.5712499000000001,8.825027465820312,-5.322310447692871,1.7381904125213623,1.40380859375,-26.7486572265625,-23.0560302734375
0.5737499,8.825027465820312,-5.322310447692871,1.7381904125213623,1.40380859375,-26.7486572265625,-23.0560302734375
0.5762499000000001,8.736441612243652,-5.195417881011963,1.6663644313812256,0.79345703125,-27.3590087890625,-23.345947265625
0.5787499,8.736441612243652,-5.195417881011963,1.6663644313812256,0.79345703125,-27.3590087890625,-23.345947265625
0.5812499,8.69334602355957,-5.070919036865234,1.6065093278884888,-0.18310546875,-27.5726318359375,-24.261474609375
0.5837499,8.683769226074219,-5.018246650695801,1.5921441316604614,-1.068115234375,-27.8167724609375,-24.59716796875
0.5862499,8.686163902282715,-4.967968463897705,1.5849615335464478,-2.1209716796875,-27.6947021484375,-24.7039794921875
0.5887499,8.69334602355957,-4.924872875213623,1.5897499322891235,-3.021240234375,-27.587890625,-25.146484375
0.5912499,8.705317497253418,-4.881777286529541,1.5921441316604614,-3.7841796875,-27.5115966796875,-25.4974365234375
0.5937499,8.707711219787598,-4.836287498474121,1.6065093278884888,-4.69970703125,-27.496337890625,-25.543212890625
0.5962499,8.702922821044922,-4.795586109161377,1.6184803247451782,-5.67626953125,-27.4810791015625,-25.726318359375
0.5987499000000001,8.681375503540039,-4.745307922363281,1.6424223184585571,-6.5765380859375,-27.2979736328125,-26.1077880859375
0.6012499,8.650250434875488,-4.697423934936523,1.6639702320098877,-7.1868896484375,-27.008056640625,-26.2908935546875
0.6037499000000001,8.609549522399902,-4.644751071929932,1.6903064250946045,-7.9345703125,-26.8096923828125,-26.580810546875
0.6062499,8.559270858764648,-4.592078685760498,1.7190368175506592,-8.9569091796875,-26.55029296875,-27.03857421875
0.6087499000000001,8.508993148803711,-4.546588897705078,1.7477672100067139,-9.4757080078125,-26.42822265625,-27.28271484375
0.6112499,8.456320762634277,-4.51067590713501,1.7812861204147339,-9.9639892578125,-26.153564453125,-27.5421142578125
0.6137499000000001,8.4108304977417,-4.481945514678955,1.8076223134994507,-10.2386474609375,-26.0162353515625,-27.9083251953125
0.6162499,8.374917984008789,-4.46518611907959,1.8363527059555054,-10.4827880859375,-26.0467529296875,-28.1982421875
0.6187499000000001,8.348581314086914,-4.4508209228515625,1.8602946996688843,-10.6964111328125,-25.8941650390625,-28.4271240234375
0.6212499,8.336610794067383,-4.443638324737549,1.8842366933822632,-10.9405517578125,-25.634765625,-28.778076171875
0.6237499000000001,8.327033042907715,-4.436455726623535,1.8938134908676147,-11.322021484375,-25.3143310546875,-29.0679931640625
0.6262499,8.31985092163086,-4.436455726623535,1.9033904075622559,-11.4898681640625,-25.115966796875,-29.0679931640625
0.6287499000000001,8.303091049194336,-4.434061527252197,1.9057846069335938,-11.4593505859375,-24.993896484375,-28.9764404296875
0.6312499,8.274360656738281,-4.434061527252197,1.9057846069335938,-11.0321044921875,-24.9176025390625,-28.8543701171875
0.6337499000000001,8.233659744262695,-4.438849925994873,1.9057846069335938,-10.9100341796875,-24.7650146484375,-28.8543701171875
0.6362499,8.183381080627441,-4.441244125366211,1.9081788063049316,-10.650634765625,-24.6124267578125,-28.900146484375
0.6387499000000001,8.128314971923828,-4.443638324737549,1.9057846069335938,-9.918212890625,-24.4293212890625,-28.8543701171875
0.6412499,8.068459510803223,-4.443638324737549,1.9033904075622559,-9.1552734375,-24.35302734375,-28.7322998046875
0.6437499,8.015787124633789,-4.438849925994873,1.8914192914962769,-8.392333984375,-24.23095703125,-28.5797119140625
0.6462499,7.965508937835693,-4.431667327880859,1.8722656965255737,-7.50732421875,-24.2919921875,-28.4423828125
0.6487499,7.927201747894287,-4.424484729766846,1.8411411046981812,-6.7291259765625,-24.0020751953125,-28.3966064453125
0.6512499,7.90086555480957,-4.417302131652832,1.8076223134994507,-5.92041015625,-23.7579345703125,-28.167724609375
0.6537499,7.876923561096191,-4.410119533538818,1.7693150043487549,-5.218505859375,-23.7579345703125,-28.1524658203125
0.6562499,7.857769966125488,-4.402936935424805,1.7405846118927002,-4.5318603515625,-23.5748291015625,-27.8778076171875
0.6587499,7.8314337730407715,-4.400542736053467,1.7166426181793213,-3.90625,-23.3917236328125,-27.52685546875
0.6612499000000001,7.800309181213379,-4.400542736053467,1.699883222579956,-3.4027099609375,-23.1475830078125,-27.374267578125
0.6637499,7.7643961906433105,-4.4077253341674805,1.6903064250946045,-2.899169921875,-23.13232421875,-27.252197265625
0.6662499000000001,7.7213006019592285,-4.410119533538818,1.680729627609253,-2.50244140625,-23.0560302734375,-26.9012451171875
0.6687499,7.68538761138916,-4.417302131652832,1.6687586307525635,-1.9683837890625,-23.0255126953125,-26.55029296875
0.6712499000000001,7.644686222076416,-4.410119533538818,1.6615760326385498,-1.5411376953125,-22.6898193359375,-26.3214111328125
0.6737499,7.6111674308776855,-4.402936935424805,1.644816517829895,-1.40380859375,-22.5982666015625,-26.275634765625
0.6762499000000001,7.5848307609558105,-4.37420654296875,1.6280571222305298,-1.251220703125,-22.216796875,-25.970458984375
0.6787499,7.5632829666137695,-4.331110954284668,1.599326729774475,-1.03759765625,-22.064208984375,-25.7720947265625
0.6812499000000001,7.553706169128418,-4.2760443687438965,1.5682021379470825,-1.0223388671875,-21.881103515625,-25.909423828125
0.6837499,7.55131196975708,-4.206612586975098,1.5322890281677246,-0.9918212890625,-21.4691162109375,-25.970458984375
0.6862499000000001,7.560888767242432,-4.1395745277404785,1.5059528350830078,-1.0833740234375,-21.240234375,-25.81787109375
0.6887499,7.568071365356445,-4.07014274597168,1.4867992401123047,-1.15966796875,-21.209716796875,-26.1077880859375
0.6912499000000001,7.5848307609558105,-4.000710964202881,1.479616641998291,-1.3580322265625,-20.6451416015625,-26.336669921875
0.6937499,7.592013359069824,-3.9432501792907715,1.479616641998291,-1.3275146484375,-20.5535888671875,-26.4892578125
0.6962499000000001,7.601590633392334,-3.8977603912353516,1.4844050407409668,-1.556396484375,-20.477294921875,-26.6265869140625
0.6987499,7.599195957183838,-3.8714241981506348,1.4915876388549805,-1.6326904296875,-20.172119140625,-26.702880859375
0.7012499000000001,7.594407558441162,-3.8594532012939453,1.50355863571167,-1.5716552734375,-19.8974609375,-26.763916015625
0.7037499,7.582436561584473,-3.861847400665283,1.5203180313110352,-1.5411376953125,-19.6990966796875,-26.67236328125
0.7062499,7.572859764099121,-3.8762125968933105,1.5394717454910278,-1.40380859375,-19.1802978515625,-26.5655517578125
0.7087499,7.553706169128418,-3.9025487899780273,1.5538369417190552,-1.0986328125,-18.5089111328125,-26.5655517578125
0.7112499,7.532158374786377,-3.9408559799194336,1.5634137392044067,-0.8544921875,-18.0206298828125,-26.2298583984375
0.7137499,7.4986395835876465,-3.971980571746826,1.5634137392044067,-0.4425048828125,-17.7001953125,-25.9857177734375
0.7162499,7.462726593017578,-3.998316764831543,1.558625340461731,-0.0762939453125,-17.333984375,-25.9857177734375
0.7187499,7.42681360244751,-4.010287761688232,1.5442601442337036,0.3662109375,-16.754150390625,-25.5126953125
0.7212499,7.398083209991455,-4.0078935623168945,1.525106430053711,0.9613037109375,-16.3116455078125,-24.8260498046875
0.7237499000000001,7.376535415649414,-4.003105163574219,1.50355863571167,1.4190673828125,-16.05224609375,-24.23095703125
0.7262499,7.3669586181640625,-3.9863457679748535,1.479616641998291,1.8768310546875,-15.31982421875,-23.9410400390625
0.7287499000000001,7.364564418792725,-3.9624037742614746,1.4508862495422363,2.410888671875,-14.9688720703125,-23.4375
0.7312499,7.371747016906738,-3.931279182434082,1.414973258972168,2.7313232421875,-14.5416259765625,-22.857666015625
0.7337499000000001,7.376535415649414,-3.8953661918640137,1.381454348564148,2.9144287109375,-13.885498046875,-21.9879150390625
0.7362499,7.3885064125061035,-3.861847400665283,1.335964560508728,3.60107421875,-13.4735107421875,-21.209716796875
0.7387499000000001,7.38132381439209,-3.8307228088378906,1.2880805730819702,4.0740966796875,-13.1988525390625,-20.6298828125
0.7412499,7.3669586181640625,-3.804386615753174,1.2306196689605713,4.4708251953125,-12.786865234375,-19.8822021484375
0.7437499000000001,7.33583402633667,-3.778050184249878,1.1683704853057861,4.791259765625,-11.962890625,-18.9666748046875
0.7462499,7.295132637023926,-3.751713991165161,1.1037269830703735,5.3253173828125,-11.7340087890625,-18.0511474609375
0.7487499000000001,7.247248649597168,-3.7277719974517822,1.036689281463623,5.615234375,-11.260986328125,-17.27294921875
0.7512499,7.187393665313721,-3.7014358043670654,0.9720458984375,6.04248046875,-10.833740234375,-16.6473388671875
0.7537499000000001,7.132327079772949,-3.6727054119110107,0.9074024558067322,6.2713623046875,-10.6201171875,-15.7470703125
0.7562499,7.079654216766357,-3.6343982219696045,0.8475474119186401,6.40869140625,-10.162353515625,-14.678955078125
0.7587499000000001,7.0341644287109375,-3.600879430770874,0.7972691655158997,6.4849853515625,-9.6893310546875,-13.671875
0.7612499,7.000645637512207,-3.557783842086792,0.7541735172271729,6.439208984375,-9.185791015625,-12.7716064453125
0.7637499000000001,6.9695210456848145,-3.5218706130981445,0.7206547260284424,6.2103271484375,-8.5296630859375,-11.932373046875
0.7662499,6.94079065322876,-3.488351821899414,0.6871358752250671,6.3629150390625,-8.1787109375,-11.3067626953125
0.7687499000000001,6.912060260772705,-3.4572272300720215,0.6512228846549988,6.317138671875,-7.5225830078125,-10.5743408203125
0.7712499,6.868964672088623,-3.423708438873291,0.6057330369949341,6.2255859375,-6.9427490234375,-9.58251953125
0.7737499,6.818686485290527,-3.3925838470458984,0.5506663918495178,6.34765625,-6.1492919921875,-8.7127685546875
0.7762499,6.761225700378418,-3.3638534545898438,0.48602294921875,6.1798095703125,-5.55419921875,-7.8582763671875
0.7787499,6.701370716094971,-3.339911460876465,0.4141969084739685,5.9356689453125,-5.06591796875,-7.080078125
0.7812499,6.651092529296875,-3.31118106842041,0.33518823981285095,5.5999755859375,-4.547119140625,-6.561279296875
0.7837499,6.610390663146973,-3.2752678394317627,0.2561795711517334,5.523681640625,-3.8299560546875,-6.011962890625
0.7862499000000001,6.57926607131958,-3.2321722507476807,0.17956513166427612,5.7373046875,-3.3721923828125,-5.1422119140625
0.7887499,6.562506675720215,-3.1890766620635986,0.1173158809542656,5.8746337890625,-2.7313232421875,-4.608154296875
0.7912499000000001,6.555324077606201,-3.1675288677215576,0.07182604819536209,6.103515625,-2.1514892578125,-4.1656494140625
0.7937499,6.567295074462891,-3.1531636714935303,0.06224924325942993,6.9732666015625,-1.40380859375,-3.5552978515625
0.7962499000000001,6.596025466918945,-3.157952070236206,0.08619125932455063,7.8582763671875,-0.701904296875,-2.899169921875
0.7987499,6.63433313369751,-3.1699230670928955,0.12689268589019775,8.636474609375,0.091552734375,-2.3956298828125
0.8012499000000001,6.682217121124268,-3.179499864578247,0.17956513166427612,9.58251953125,1.2054443359375,-1.9683837890625
0.8037499,6.737283706665039,-3.203441858291626,0.21787235140800476,11.0321044921875,2.0294189453125,-1.220703125
0.8062499000000001,6.799532890319824,-3.246537446975708,0.24899697303771973,12.481689453125,2.899169921875,-0.2288818359375
0.8087499,6.878541469573975,-3.3207578659057617,0.26096799969673157,13.8397216796875,4.0130615234375,0.6103515625
0.8112499000000001,6.9695210456848145,-3.4332852363586426,0.2825157940387726,15.4571533203125,4.8370361328125,1.617431640625
0.8137499,7.06528902053833,-3.5745432376861572,0.3064578175544739,16.693115234375,5.767822265625,3.021240234375
0.8162499000000001,7.163451671600342,-3.7277719974517822,0.2753331959247589,17.8680419921875,6.9427490234375,4.4708251953125
0.8187499,7.254431247711182,-3.88818359375,0.3998316824436188,16.9677734375,11.138916015625,6.8817138671875
0.8212499000000001,7.359776020050049,-4.019864559173584,0.44532153010368347,18.9361572265625,13.519287109375,9.09423828125
0.8237499,7.4555439949035645,-4.129997730255127,0.6320692300796509,22.0947265625,11.53564453125,9.8876953125
0.8262499000000001,7.565677165985107,-4.199429988861084,0.790086567401886,22.857666015625,13.641357421875,11.444091796875
0.8287499,7.666234016418457,-4.220977783203125,0.9289502501487732,23.8800048828125,15.2130126953125,13.36669921875
0.8312499000000001,7.757213592529297,-4.20421838760376,1.0319008827209473,24.96337890625,17.1356201171875,15.1824951171875
0.8337499,7.841010570526123,-4.146757125854492,1.113303780555725,25.665283203125,19.4244384765625,16.7388916015625
0.8362499,7.927201747894287,-4.060565948486328,1.1635819673538208,26.1077880859375,21.4080810546875,18.0511474609375
0.8387499,8.01339340209961,-3.9480385780334473,1.1971008777618408,26.30615234375,23.193359375,19.10400390625
0.8412499,8.109161376953125,-3.823540210723877,1.216254472732544,26.580810546875,25.421142578125,19.6380615234375
0.8437499,8.212111473083496,-3.6966474056243896,1.2282254695892334,26.6571044921875,27.252197265625,20.0653076171875
0.8462499,8.300697326660156,-3.576937437057495,1.2330138683319092,26.7181396484375,28.961181640625,20.355224609375
0.8487499000000001,8.38688850402832,-3.4811692237854004,1.2497732639312744,26.6571044921875,30.45654296875,20.355224609375
0.8512499,8.451532363891602,-3.4141316413879395,1.2689268589019775,26.67236328125,31.4788818359375,20.20263671875
0.8537499000000001,8.51138687133789,-3.378218650817871,1.3096283674240112,26.5350341796875,32.470703125,19.866943359375
0.8562499,8.564059257507324,-3.3662476539611816,1.3670891523361206,26.2451171875,33.416748046875,19.7296142578125
0.8587499000000001,8.616731643676758,-3.3734302520751953,1.4413094520568848,26.1688232421875,34.1949462890625,19.5770263671875
0.8612499,8.674192428588867,-3.404554843902588,1.522712230682373,26.1688232421875,35.1104736328125,19.195556640625
0.8637499000000001,8.7268648147583,-3.445256233215332,1.6089035272598267,26.3519287109375,35.6597900390625,18.951416015625
0.8662499,8.772355079650879,-3.5003228187561035,1.6759412288665771,26.06201171875,36.2396240234375,18.524169921875
0.8687499000000001,8.81784439086914,-3.56017804145813,1.723825216293335,26.0467529296875,36.865234375,17.974853515625
0.8712499,8.858546257019043,-3.6104562282562256,1.7381904125213623,25.7415771484375,37.3687744140625,17.4407958984375
0.8737499000000001,8.901641845703125,-3.646369218826294,1.699883222579956,25.299072265625,37.750244140625,16.66259765625
0.8762499,8.944737434387207,-3.687070608139038,1.6496049165725708,24.810791015625,38.6199951171875,15.7928466796875
0.8787499000000001,8.990227699279785,-3.7158010005950928,1.5873557329177856,24.658203125,38.3758544921875,15.19775390625
0.8812499,9.062053680419922,-3.754108190536499,1.5298948287963867,24.7955322265625,37.9791259765625,14.4500732421875
0.8837499000000001,9.150638580322266,-3.7876269817352295,1.4891934394836426,24.7955322265625,37.6739501953125,13.48876953125
0.8862499,9.27034854888916,-3.8091750144958496,1.4460978507995605,25.0244140625,37.4908447265625,12.63427734375
0.8887499000000001,9.409213066101074,-3.825934410095215,1.4197616577148438,25.0091552734375,37.1246337890625,11.810302734375
0.8912499,9.552865028381348,-3.845088005065918,1.4101848602294922,24.810791015625,36.5753173828125,10.8795166015625
0.8937499000000001,9.696516990661621,-3.883395195007324,1.436521053314209,24.688720703125,36.3616943359375,10.284423828125
0.8962499,9.832986831665039,-3.931279182434082,1.4915876388549805,24.627685546875,35.7818603515625,9.857177734375
0.8987499,9.959878921508789,-3.993528366088867,1.580173134803772,24.47509765625,35.4766845703125,9.3841552734375
0.9012499,10.070012092590332,-4.055777549743652,1.6927006244659424,24.3988037109375,34.85107421875,8.758544921875
0.9037499,10.168174743652344,-4.108449935913086,1.8195933103561401,24.5819091796875,34.5458984375,8.026123046875
0.9062499,10.251971244812012,-4.153939723968506,1.9608511924743652,24.3988037109375,34.576416015625,7.4310302734375
0.9087499,10.32858657836914,-4.173093795776367,2.1092917919158936,24.71923828125,33.935546875,7.2784423828125
0.9112499000000001,10.402806282043457,-4.180276393890381,2.2577321529388428,25.360107421875,33.5540771484375,6.8817138671875
0.9137499,10.484209060668945,-4.177882194519043,2.3965959548950195,25.1312255859375,33.02001953125,6.28662109375
0.9162499000000001,10.560823440551758,-4.168305397033691,2.5282769203186035,25.299072265625,32.71484375,5.6915283203125
0.9187499,10.647014617919922,-4.153939723968506,2.63362193107605,25.9857177734375,32.3944091796875,5.18798828125
0.9212499000000001,10.723628997802734,-4.134786128997803,2.7246015071868896,26.6876220703125,31.890869140625,4.730224609375
0.9237499,10.802638053894043,-4.108449935913086,2.806004285812378,27.191162109375,31.463623046875,4.0283203125
0.9262499000000001,10.864887237548828,-4.07014274597168,2.8778305053710938,27.679443359375,30.731201171875,3.0670166015625
0.9287499,10.934319496154785,-4.027047157287598,2.9448680877685547,28.778076171875,29.8614501953125,2.3345947265625
0.9312499000000001,10.99656867980957,-3.9863457679748535,3.0142998695373535,30.1361083984375,29.0679931640625,1.5106201171875
0.9337499,11.05642318725586,-3.9480385780334473,3.071760892868042,31.0821533203125,28.411865234375,0.6866455078125
0.9362499000000001,11.106701850891113,-3.9193081855773926,3.1268274784088135,31.951904296875,27.5421142578125,-0.1373291015625
0.9387499,11.128249168395996,-3.907337188720703,3.177105665206909,32.6995849609375,26.519775390625,-1.1138916015625
0.9412499000000001,11.128249168395996,-3.8953661918640137,3.2297780513763428,33.5235595703125,25.421142578125,-1.89208984375
0.9437499,11.101913452148438,-3.8953661918640137,3.28963303565979,34.1796875,24.2156982421875,-2.7313232421875
0.9462499000000001,11.073183059692383,-3.883395195007324,3.35667085647583,34.8968505859375,22.979736328125,-3.6163330078125
0.9487499,11.034875869750977,-3.864241600036621,3.4332852363586426,35.5072021484375,22.0489501953125,-4.4403076171875
0.9512499000000001,11.001357078552246,-3.8379054069519043,3.5051112174987793,36.31591796875,20.843505859375,-5.126953125
0.9537499,10.970232009887695,-3.804386615753174,3.5625722408294678,36.9873046875,19.4244384765625,-5.9356689453125
0.9562499000000001,10.94150161743164,-3.7684733867645264,3.6104562282562256,37.506103515625,17.9595947265625,-6.9732666015625
0.9587499,10.90558910369873,-3.737348794937134,3.648763418197632,37.7960205078125,16.5252685546875,-7.7362060546875
0.9612499,10.864887237548828,-3.711012601852417,3.6750996112823486,37.7044677734375,15.533447265625,-8.5906982421875
0.9637499,10.809821128845215,-3.6822822093963623,3.711012601852417,37.7960205078125,14.007568359375,-9.2315673828125
0.9662499,10.747570991516113,-3.6559460163116455,3.734954595565796,37.78076171875,12.6953125,-10.2386474609375
0.9687499,10.673351287841797,-3.627215623855591,3.7612907886505127,37.567138671875,11.199951171875,-11.1846923828125
0.9712499,10.599130630493164,-3.5936968326568604,3.7828385829925537,37.2772216796875,9.58251953125,-11.9476318359375
0.9737499000000001,10.515334129333496,-3.557783842086792,3.7924153804779053,37.0025634765625,8.3160400390625,-12.8326416015625
0.9762499,10.433931350708008,-3.5194764137268066,3.794809579849243,36.8194580078125,6.89697265625,-13.6566162109375
0.9787499000000001,10.347740173339844,-3.4811692237854004,3.7924153804779053,36.407470703125,5.401611328125,-14.251708984375
0.9812499,10.268731117248535,-3.4404678344726562,3.7828385829925537,35.7513427734375,3.7994384765625,-14.9383544921875
0.9837499000000001,10.194510459899902,-3.40216064453125,3.7636849880218506,35.0341796875,2.1514892578125,-15.838623046875
0.9862499,10.129867553710938,-3.3710360527038574,3.7493197917938232,34.149169921875,0.579833984375,-16.5252685546875
0.9887499000000001,10.072406768798828,-3.3470940589904785,3.73016619682312,33.294677734375,-0.7476806640625,-17.27294921875
0.9912499,10.014945983886719,-3.335123062133789,3.7158010005950928,32.2418212890625,-1.9683837890625,-17.852783203125
0.9937499000000001,9.950302124023438,-3.332728862762451,3.706224203109741,31.25,-3.4027099609375,-18.4478759765625
0.9962499,9.876082420349121,-3.3303346633911133,3.7038300037384033,30.1666259765625,-5.0201416015625,-19.012451171875
0.9987499000000001,9.794678688049316,-3.332728862762451,3.706224203109741,29.0374755859375,-6.439208984375,-19.2108154296875
1.0012499,9.706093788146973,-3.3231520652770996,3.713406801223755,27.587890625,-7.62939453125,-19.71435546875
1.0037498999999999,9.622296333312988,-3.31118106842041,3.7253777980804443,26.1688232421875,-8.8653564453125,-19.927978515625
1.0062499,9.5408935546875,-3.28963303565979,3.732560396194458,24.9176025390625,-10.1165771484375,-20.355224609375
1.0087499,9.47146224975586,-3.2609026432037354,3.7445313930511475,23.86474609375,-11.444091796875,-20.5230712890625
1.0112499,9.411606788635254,-3.227383852005005,3.7421371936798096,22.39990234375,-12.7410888671875,-20.6451416015625
1.0137498999999999,9.354146003723145,-3.1938650608062744,3.7397429943084717,21.270751953125,-13.4429931640625,-20.7977294921875
1.0162499,9.294290542602539,-3.160346269607544,3.732560396194458,19.6533203125,-14.2822265625,-21.05712890625
1.0187499,9.23443603515625,-3.1292216777801514,3.7181951999664307,17.9901123046875,-15.07568359375,-21.1334228515625
1.0212499,9.17936897277832,-3.095702886581421,3.708618402481079,16.754150390625,-15.8843994140625,-21.392822265625
1.0237498999999999,9.124302864074707,-3.0573954582214355,3.689464807510376,15.5792236328125,-16.4794921875,-21.514892578125
1.0262498999999998,9.074024200439453,-3.028665065765381,3.6798880100250244,14.190673828125,-17.1661376953125,-21.514892578125
1.0287499,9.023746490478516,-3.002328872680664,3.6750996112823486,13.0462646484375,-17.7764892578125,-21.575927734375
1.0312499,8.968679428100586,-2.9903578758239746,3.6798880100250244,12.0391845703125,-18.24951171875,-21.697998046875
1.0337498999999999,8.908824920654297,-2.9903578758239746,3.6966474056243896,11.1083984375,-18.8140869140625,-21.7132568359375
1.0362498999999998,8.853757858276367,-3.0095114707946777,3.708618402481079,9.979248046875,-19.1497802734375,-21.4691162109375
1.0387499,8.803479194641113,-3.0382418632507324,3.7181951999664307,8.9569091796875,-19.4244384765625,-21.240234375
1.0412499,8.753201484680176,-3.0765492916107178,3.7181951999664307,7.9803466796875,-19.439697265625,-21.148681640625
1.0437499,8.705317497253418,-3.1076738834381104,3.713406801223755,7.2479248046875,-19.256591796875,-20.6756591796875
1.0462498999999998,8.655038833618164,-3.134010076522827,3.7038300037384033,6.591796875,-19.256591796875,-20.2178955078125
1.0487499,8.609549522399902,-3.1435868740081787,3.6942532062530518,5.8746337890625,-19.7906494140625,-19.6990966796875
1.0512499,8.56884765625,-3.141192674636841,3.691859006881714,5.2490234375,-19.9432373046875,-19.3634033203125
1.0537499,8.537723541259766,-3.1316158771514893,3.6822822093963623,4.4097900390625,-19.1192626953125,-18.73779296875
1.0562498999999999,8.513781547546387,-3.114856481552124,3.6774938106536865,3.9825439453125,-19.073486328125,-18.1427001953125
1.0587499,8.485051155090332,-3.1004912853240967,3.663128614425659,3.570556640625,-18.85986328125,-17.5933837890625
1.0612499,8.461109161376953,-3.0885202884674072,3.648763418197632,3.3111572265625,-18.6920166015625,-17.1356201171875
1.0637499,8.425195693969727,-3.0813376903533936,3.6296098232269287,3.2196044921875,-18.4783935546875,-16.4337158203125
1.0662498999999999,8.389283180236816,-3.07415509223938,3.603273630142212,3.2958984375,-18.280029296875,-15.7623291015625
1.0687499,8.348581314086914,-3.069366693496704,3.5673606395721436,3.3416748046875,-18.24951171875,-15.106201171875
1.0712499,8.305485725402832,-3.069366693496704,3.5266590118408203,3.23486328125,-17.88330078125,-14.6942138671875
1.0737499,8.257601737976074,-3.0765492916107178,3.4763808250427246,3.0364990234375,-17.6239013671875,-14.1448974609375
1.0762498999999999,8.212111473083496,-3.0885202884674072,3.428496837615967,3.35693359375,-17.486572265625,-13.48876953125
1.0787499,8.169015884399414,-3.1100680828094482,3.383007049560547,3.2196044921875,-17.0745849609375,-12.969970703125
1.0812499,8.123526573181152,-3.1268274784088135,3.3446998596191406,3.143310546875,-16.7083740234375,-12.3291015625
1.0837499,8.090007781982422,-3.138798475265503,3.3231520652770996,3.2501220703125,-16.6168212890625,-11.6424560546875
1.0862498999999999,8.063671112060547,-3.136404275894165,3.3039982318878174,3.1585693359375,-16.5252685546875,-11.199951171875
1.0887499,8.044517517089844,-3.1196448802948,3.3039982318878174,2.777099609375,-16.29638671875,-10.7574462890625
1.0912499,8.039729118347168,-3.0885202884674072,3.3063924312591553,2.9449462890625,-15.7623291015625,-10.19287109375
1.0937499,8.037335395812988,-3.0526070594787598,3.318363666534424,2.9296875,-15.44189453125,-9.9334716796875
1.0962498999999999,8.042123794555664,-3.0190882682800293,3.3255462646484375,2.74658203125,-14.9383544921875,-9.552001953125
1.0987498999999998,8.042123794555664,-2.9975404739379883,3.3303346633911133,2.685546875,-14.495849609375,-9.09423828125
1.1012499,8.037335395812988,-2.9927520751953125,3.3279404640197754,2.3956298828125,-13.8092041015625,-8.9111328125
1.1037499,8.032546997070312,-3.002328872680664,3.3231520652770996,2.227783203125,-13.12255859375,-8.636474609375
1.1062499,8.02536392211914,-3.023876667022705,3.315969467163086,2.227783203125,-12.847900390625,-8.2244873046875
1.1087498999999998,8.010998725891113,-3.045424461364746,3.313575267791748,2.2125244140625,-12.5732421875,-8.0108642578125
1.1112499,8.001421928405762,-3.0597896575927734,3.31118106842041,1.800537109375,-11.8255615234375,-7.75146484375
1.1137499,7.994239330291748,-3.066972494125366,3.3063924312591553,1.1749267578125,-11.1083984375,-7.232666015625
1.1162499,7.994239330291748,-3.0621838569641113,3.3063924312591553,0.8087158203125,-10.55908203125,-7.171630859375
1.1187498999999999,8.003816604614258,-3.0550012588500977,3.3016040325164795,0.579833984375,-9.857177734375,-6.9122314453125
1.1212499,8.020575523376465,-3.0334534645080566,3.3039982318878174,0.213623046875,-9.1552734375,-6.591796875
1.1237499,8.042123794555664,-3.004723072052002,3.31118106842041,-0.396728515625,-8.575439453125,-6.683349609375
1.1262499,8.061277389526367,-2.9712042808532715,3.3207578659057617,-0.8392333984375,-7.781982421875,-6.53076171875
1.1287498999999999,8.08282470703125,-2.935291290283203,3.339911460876465,-1.5716552734375,-7.0343017578125,-6.378173828125
1.1312499,8.101978302001953,-2.9017724990844727,3.3662476539611816,-2.0294189453125,-6.3323974609375,-6.3323974609375
1.1337499,8.11634349822998,-2.8778305053710938,3.3949780464172363,-2.50244140625,-5.92041015625,-6.1492919921875
1.1362499,8.14028549194336,-2.8634653091430664,3.428496837615967,-3.143310546875,-5.1422119140625,-6.072998046875
1.1387498999999999,8.164227485656738,-2.868253707885742,3.466804027557373,-3.631591796875,-4.4708251953125,-5.889892578125
1.1412499,8.192957878112793,-2.875436305999756,3.4955344200134277,-4.1351318359375,-3.570556640625,-5.889892578125
1.1437499,8.219294548034668,-2.8874073028564453,3.5242648124694824,-4.69970703125,-2.6397705078125,-5.828857421875
1.1462499,8.24084186553955,-2.894589900970459,3.5410242080688477,-5.218505859375,-1.953125,-5.462646484375
1.1487498999999999,8.255207061767578,-2.892195701599121,3.552995204925537,-5.9814453125,-1.129150390625,-5.2642822265625
1.1512499,8.26478385925293,-2.875436305999756,3.557783842086792,-6.591796875,-0.54931640625,-5.0048828125
1.1537499,8.274360656738281,-2.846705913543701,3.555389642715454,-7.537841796875,0.4425048828125,-5.0048828125
1.1562499,8.274360656738281,-2.8107926845550537,3.557783842086792,-7.9193115234375,1.129150390625,-4.9591064453125
1.1587498999999999,8.274360656738281,-2.7772738933563232,3.56017804145813,-8.4991455078125,1.7242431640625,-4.791259765625
1.1612498999999998,8.269572257995605,-2.7485435009002686,3.5673606395721436,-8.8043212890625,2.166748046875,-4.8370361328125
1.1637499,8.26239013671875,-2.7293899059295654,3.579331636428833,-9.3994140625,2.655029296875,-4.669189453125
1.1662499,8.26239013671875,-2.715024709701538,3.584120035171509,-10.101318359375,3.3111572265625,-4.39453125
1.1687499,8.26478385925293,-2.7054479122161865,3.581725835800171,-10.7269287109375,3.509521484375,-4.2572021484375
1.1712498999999998,8.276755332946777,-2.7078421115875244,3.5745432376861572,-10.9100341796875,3.8909912109375,-4.2724609375
1.1737499,8.291120529174805,-2.7126305103302,3.5625722408294678,-11.53564453125,4.150390625,-4.150390625
1.1762499,8.307879447937012,-2.717418909072876,3.552995204925537,-11.90185546875,4.5166015625,-4.0283203125
1.1787499,8.322244644165039,-2.7269957065582275,3.5482068061828613,-12.3138427734375,4.7760009765625,-3.90625
1.1812498999999999,8.339004516601562,-2.7317841053009033,3.5410242080688477,-12.5732421875,5.2337646484375,-3.7841796875
1.1837499,8.35097599029541,-2.7437551021575928,3.529053211212158,-12.7105712890625,5.7525634765625,-3.7994384765625
1.1862499,8.374917984008789,-2.760514497756958,3.5003228187561035,-12.847900390625,5.7830810546875,-3.6773681640625
1.1887499,8.401253700256348,-2.782062292098999,3.466804027557373,-13.12255859375,5.92041015625,-3.41796875
1.1912498999999999,8.437167167663574,-2.7988216876983643,3.423708438873291,-13.61083984375,6.40869140625,-3.2958984375
1.1937499,8.47786808013916,-2.8131868839263916,3.378218650817871,-13.641357421875,6.561279296875,-3.204345703125
1.1962499,8.525752067565918,-2.8155810832977295,3.335123062133789,-13.6260986328125,6.5155029296875,-3.021240234375
1.1987499,8.56645393371582,-2.8179752826690674,3.2968156337738037,-13.5650634765625,6.378173828125,-2.685546875
1.2012498999999999,8.614337921142578,-2.827552318572998,3.2632968425750732,-13.5345458984375,6.5765380859375,-2.288818359375
1.2037499,8.647856712341309,-2.8443117141723633,3.2345664501190186,-13.580322265625,6.9732666015625,-1.89208984375
1.2062499,8.678980827331543,-2.87064790725708,3.2130186557769775,-13.61083984375,6.744384765625,-1.4495849609375
1.2087499,8.700529098510742,-2.9041666984558105,3.1914708614349365,-13.7939453125,6.744384765625,-0.9307861328125
1.2112498999999999,8.71728801727295,-2.9328970909118652,3.177105665206909,-13.6871337890625,6.7291259765625,-0.0457763671875
1.2137499,8.729259490966797,-2.959233283996582,3.1675288677215576,-13.7481689453125,6.7138671875,0.5035400390625
1.2162499,8.741230010986328,-2.980781078338623,3.162740468978882,-13.5650634765625,6.7901611328125,1.0223388671875
1.2187499,8.753201484680176,-2.9927520751953125,3.155557870864868,-13.2293701171875,6.53076171875,1.6021728515625
1.2212498999999999,8.772355079650879,-3.004723072052002,3.1507694721221924,-12.7716064453125,6.500244140625,2.410888671875
1.2237498999999998,8.798690795898438,-3.021482467651367,3.136404275894165,-12.3291015625,6.40869140625,3.1890869140625
1.2262499,8.841787338256836,-3.045424461364746,3.117250680923462,-11.8408203125,6.011962890625,3.9825439453125
1.2287499,8.901641845703125,-3.071760892868042,3.095702886581421,-10.92529296875,5.5999755859375,4.5318603515625
1.2312499,8.975862503051758,-3.1004912853240967,3.0837318897247314,-9.9945068359375,5.4931640625,5.2490234375
1.2337498999999998,9.05247688293457,-3.1316158771514893,3.0837318897247314,-8.9111328125,5.43212890625,6.0577392578125
1.2362499,9.129091262817383,-3.1651346683502197,3.098097085952759,-7.7362060546875,4.852294921875,7.080078125
1.2387499,9.193734169006348,-3.2106244564056396,3.1316158771514893,-6.6375732421875,4.5623779296875,7.9193115234375
1.2412499,9.248801231384277,-3.2632968425750732,3.1675288677215576,-5.6304931640625,4.364013671875,8.758544921875
1.2437498999999999,9.287108421325684,-3.3255462646484375,3.2178070545196533,-4.730224609375,4.1351318359375,9.8876953125
1.2462499,9.315838813781738,-3.3854012489318848,3.2752678394317627,-3.814697265625,3.692626953125,10.8489990234375
1.2487499,9.330204010009766,-3.4356794357299805,3.335123062133789,-3.1280517578125,3.5858154296875,11.6424560546875
1.2512499,9.337387084960938,-3.464409828186035,3.3949780464172363,-2.44140625,3.6163330078125,12.5579833984375
1.2537498999999999,9.339780807495117,-3.4620156288146973,3.4308910369873047,-1.922607421875,3.4637451171875,13.214111328125
1.2562499,9.339780807495117,-3.421314239501953,3.4548330307006836,-1.556396484375,3.1585693359375,13.7786865234375
1.2587499,9.337387084960938,-3.35667085647583,3.4548330307006836,-1.3885498046875,3.0059814453125,14.22119140625
1.2612499,9.344569206237793,-3.265691041946411,3.44765043258667,-1.4801025390625,2.5482177734375,14.404296875
1.2637498999999999,9.354146003723145,-3.1651346683502197,3.4308910369873047,-2.044677734375,2.44140625,14.4500732421875
1.2662499,9.368511199951172,-3.0597896575927734,3.4093432426452637,-3.0975341796875,2.3193359375,14.3280029296875
1.2687499,9.366117477416992,-2.9544448852539062,3.3925838470458984,-4.08935546875,2.3193359375,13.9312744140625
1.2712499,9.318233489990234,-2.760514497756958,3.3638534545898438,-7.568359375,2.227783203125,12.87841796875
1.2737498999999999,9.318233489990234,-2.760514497756958,3.3638534545898438,-7.568359375,2.227783203125,12.87841796875
1.2762499,9.205705642700195,-2.612074136734009,3.3279404640197754,-11.8408203125,1.922607421875,11.138916015625
1.2787499,9.205705642700195,-2.612074136734009,3.3279404640197754,-11.8408203125,1.922607421875,11.138916015625
1.2812499,9.093177795410156,-2.5282769203186035,3.272873640060425,-16.11328125,1.129150390625,9.1552734375
1.2837498999999999,9.093177795410156,-2.5282769203186035,3.272873640060425,-16.11328125,1.129150390625,9.1552734375
1.2862498999999998,9.023746490478516,-2.494758129119873,3.179499864578247,-21.8353271484375,1.7852783203125,7.2021484375
1.2887499,9.023746490478516,-2.494758129119873,3.179499864578247,-21.8353271484375,1.7852783203125,7.2021484375
1.2912499,8.971074104309082,-2.4827871322631836,3.0861260890960693,-27.2064208984375,1.8157958984375,4.8828125
1.2937499,8.971074104309082,-2.4827871322631836,3.0861260890960693,-27.2064208984375,1.8157958984375,4.8828125
1.2962498999999998,8.889671325683594,-2.4660277366638184,3.00711727142334,-32.379150390625,1.89208984375,2.9449462890625
1.2987499,8.889671325683594,-2.4660277366638184,3.00711727142334,-32.379150390625,1.89208984375,2.9449462890625
1.3012499,8.78193187713623,-2.427720546722412,2.920926094055176,-37.4908447265625,2.2735595703125,1.129150390625
1.3037499,8.78193187713623,-2.427720546722412,2.920926094055176,-37.4908447265625,2.2735595703125,1.129150390625
1.3062498999999999,8.678980827331543,-2.367865562438965,2.8347349166870117,-41.961669921875,2.899169921875,-0.762939453125
1.3087499,8.678980827331543,-2.367865562438965,2.8347349166870117,-41.961669921875,2.899169921875,-0.762939453125
1.3112499,8.588001251220703,-2.296039342880249,2.779668092727661,-45.10498046875,3.204345703125,-2.471923828125
1.3137499,8.588001251220703,-2.296039342880249,2.779668092727661,-45.10498046875,3.204345703125,-2.471923828125
1.3162498999999999,8.506598472595215,-2.2361843585968018,2.7748796939849854,-47.3175048828125,3.8909912109375,-3.814697265625
1.3187499,8.506598472595215,-2.2361843585968018,2.7748796939849854,-47.3175048828125,3.8909912109375,-3.814697265625
1.3212499,8.453926086425781,-2.188300371170044,2.786850690841675,-48.2330322265625,5.126953125,-4.791259765625
1.3237499,8.453926086425781,-2.188300371170044,2.786850690841675,-48.2330322265625,5.126953125,-4.791259765625
1.3262498999999999,8.396465301513672,-2.2146365642547607,2.8179752826690674,-47.8515625,5.859375,-5.2032470703125
1.3287499,8.396465301513672,-2.2146365642547607,2.8179752826690674,-47.8515625,5.859375,-5.2032470703125
1.3312499,8.343792915344238,-2.2577321529388428,2.849100112915039,-46.0968017578125,6.7901611328125,-4.9896240234375
1.3337499,8.343792915344238,-2.2577321529388428,2.849100112915039,-46.0968017578125,6.7901611328125,-4.9896240234375
1.3362498999999999,8.303091049194336,-2.22660756111145,2.82515811920166,-44.036865234375,8.453369140625,-4.4708251953125
1.3387499,8.303091049194336,-2.22660756111145,2.82515811920166,-44.036865234375,8.453369140625,-4.4708251953125
1.3412499,8.202534675598145,-2.183511972427368,2.760514497756958,-41.3818359375,9.5062255859375,-3.0059814453125
1.3437499,8.202534675598145,-2.183511972427368,2.760514497756958,-41.3818359375,9.5062255859375,-3.0059814453125
1.3462498999999999,8.061277389526367,-2.145204782485962,2.6791117191314697,-37.6434326171875,11.016845703125,-1.40380859375
1.3487498999999998,8.061277389526367,-2.145204782485962,2.6791117191314697,-37.6434326171875,11.016845703125,-1.40380859375
1.3512499,7.915230751037598,-2.1068975925445557,2.58813214302063,-33.5845947265625,12.1612548828125,1.0223388671875
1.3537499,7.915230751037598,-2.1068975925445557,2.58813214302063,-33.5845947265625,12.1612548828125,1.0223388671875
1.3562499,7.785943984985352,-2.094926595687866,2.449268341064453,-29.266357421875,13.18359375,3.7384033203125
1.3587498999999998,7.785943984985352,-2.094926595687866,2.449268341064453,-29.266357421875,13.18359375,3.7384033203125
1.3612499,7.68538761138916,-2.075772762298584,2.250549554824829,-25.0244140625,13.6566162109375,7.0648193359375
1.3637499,7.68538761138916,-2.075772762298584,2.250549554824829,-25.0244140625,13.6566162109375,7.0648193359375
1.3662499,7.601590633392334,-2.0039467811584473,2.056619167327881,-21.4080810546875,14.5111083984375,10.589599609375
1.3687498999999999,7.601590633392334,-2.0039467811584473,2.056619167327881,-21.4080810546875,14.5111083984375,10.589599609375
1.3712499,7.501033782958984,-1.8722656965255737,1.9153614044189453,-17.4407958984375,14.95361328125,14.6331787109375
1.3737499,7.501033782958984,-1.8722656965255737,1.9153614044189453,-17.4407958984375,14.95361328125,14.6331787109375
1.3762499,7.378929615020752,-1.7286136150360107,1.8076223134994507,-13.641357421875,14.8773193359375,18.9056396484375
1.3787498999999999,7.378929615020752,-1.7286136150360107,1.8076223134994507,-13.641357421875,14.8773193359375,18.9056396484375
1.3812499,7.218518257141113,-1.6352397203445435,1.702277421951294,-10.31494140625,15.3350830078125,23.37646484375
1.3837499,7.218518257141113,-1.6352397203445435,1.702277421951294,-10.31494140625,15.3350830078125,23.37646484375
1.3862499,7.053318023681641,-1.6400281190872192,1.6112977266311646,-5.8441162109375,14.0380859375,28.9764404296875
1.3887498999999999,7.053318023681641,-1.6400281190872192,1.6112977266311646,-5.8441162109375,14.0380859375,28.9764404296875
1.3912499,6.98628044128418,-1.6496049165725708,1.5083470344543457,-2.3345947265625,13.8397216796875,34.7900390625
1.3937499,6.98628044128418,-1.6496049165725708,1.5083470344543457,-2.3345947265625,13.8397216796875,34.7900390625
1.3962499,7.000645637512207,-1.5873557329177856,1.3766659498214722,0.762939453125,13.48876953125,41.0003662109375
1.3987498999999999,7.000645637512207,-1.5873557329177856,1.3766659498214722,0.762939453125,13.48876953125,41.0003662109375
1.4012499,7.017405033111572,-1.4891934394836426,1.2330138683319092,3.2501220703125,13.0615234375,47.821044921875
1.4037499,7.017405033111572,-1.4891934394836426,1.2330138683319092,3.2501220703125,13.0615234375,47.821044921875
1.4062499,7.005434036254883,-1.359906554222107,1.094150185585022,5.18798828125,12.664794921875,55.0537109375
1.4087498999999999,7.005434036254883,-1.359906554222107,1.094150185585022,5.18798828125,12.664794921875,55.0537109375
1.4112498999999998,6.964732646942139,-1.2210428714752197,0.9696516990661621,6.1187744140625,12.3748779296875,62.530517578125
1.4137499,6.964732646942139,-1.2210428714752197,0.9696516990661621,6.1187744140625,12.3748779296875,62.530517578125
1.4162499,6.921637058258057,-1.0414776802062988,0.8212111592292786,5.37109375,11.871337890625,70.098876953125
1.4187499,6.921637058258057,-1.0414776802062988,0.8212111592292786,5.37109375,11.871337890625,70.098876953125
1.4212498999999998,6.864176273345947,-0.8475474119186401,0.6272808313369751,2.2125244140625,12.14599609375,76.9805908203125
1.4237499,6.864176273345947,-0.8475474119186401,0.6272808313369751,2.2125244140625,12.14599609375,76.9805908203125
1.4262499,6.806715488433838,-0.6919242739677429,0.4165911078453064,-1.5411376953125,11.077880859375,84.7015380859375
1.4287499,6.806715488433838,-0.6919242739677429,0.4165911078453064,-1.5411376953125,11.077880859375,84.7015380859375
1.4312498999999999,6.8043212890625,-0.5267243981361389,0.17956513166427612,-8.1634521484375,11.3372802734375,91.2628173828125
1.4337499,6.8043212890625,-0.5267243981361389,0.17956513166427612,-8.1634521484375,11.3372802734375,91.2628173828125
1.4362499,6.806715488433838,-0.38067805767059326,-0.09816227108240128,-17.2119140625,12.115478515625,98.114013671875
1.4387499,6.806715488433838,-0.38067805767059326,-0.09816227108240128,-17.2119140625,12.115478515625,98.114013671875
1.4412498999999999,6.789956092834473,-0.3447650372982025,-0.363918662071228,-27.7252197265625,12.2833251953125,104.9652099609375
1.4437499,6.789956092834473,-0.3447650372982025,-0.363918662071228,-27.7252197265625,12.2833251953125,104.9652099609375
1.4462499,6.780379295349121,-0.40940847992897034,-0.5889736413955688,-39.031982421875,12.75634765625,111.63330078125
1.4487499,6.7708024978637695,-0.4596867263317108,-0.6919242739677429,-45.013427734375,12.75634765625,114.8834228515625
1.4512498999999999,6.773196697235107,-0.5099649429321289,-0.7709329724311829,-51.2542724609375,12.8173828125,118.6981201171875
1.4537499,6.763619899749756,-0.5722141861915588,-0.849941611289978,-57.708740234375,13.1988525390625,122.314453125
1.4562499,6.761225700378418,-0.6560112833976746,-0.9097966551780701,-64.422607421875,13.6260986328125,125.5645751953125
1.4587499,6.754043102264404,-0.7541735172271729,-0.9744400978088379,-70.343017578125,13.3209228515625,129.2877197265625
1.4612498999999999,6.742072105407715,-0.8571242094039917,-1.0438719987869263,-76.202392578125,13.275146484375,132.75146484375
1.4637499,6.746860504150391,-0.9409212470054626,-1.137245774269104,-82.1075439453125,13.702392578125,136.3983154296875
1.4662499,6.7708024978637695,-0.993593692779541,-1.2473790645599365,-88.1500244140625,14.0533447265625,139.862060546875
1.4687499,6.813898086547852,-1.0295066833496094,-1.3694833517074585,-93.8262939453125,14.2364501953125,142.9443359375
1.4712498999999999,6.8809356689453125,-1.0606313943862915,-1.4844050407409668,-99.30419921875,14.2364501953125,146.209716796875
1.4737498999999998,6.964732646942139,-1.1180921792984009,-1.5825673341751099,-104.644775390625,14.1754150390625,149.59716796875
1.4762499,7.072471618652344,-1.235408067703247,-1.6543933153152466,-109.3292236328125,14.129638671875,152.83203125
1.4787499,7.216124057769775,-1.4101848602294922,-1.6974890232086182,-113.2659912109375,13.0615234375,156.463623046875
1.4812499,7.400477409362793,-1.644816517829895,-1.7118542194366455,-116.76025390625,12.1002197265625,160.797119140625
1.4837498999999998,7.625532627105713,-1.9129672050476074,-1.702277421951294,-120.1171875,11.3983154296875,164.520263671875
1.4862499,7.891288757324219,-2.188300371170044,-1.7046716213226318,-123.077392578125,10.6048583984375,168.8232421875
1.4887499,8.164227485656738,-2.4588451385498047,-1.7286136150360107,-125.79345703125,9.735107421875,173.6297607421875
1.4912499,8.429984092712402,-2.734178304672241,-1.7980455160140991,-128.35693359375,8.5601806640625,178.436279296875
1.4937498999999999,8.698134422302246,-2.999934673309326,-1.9105730056762695,-130.4931640625,6.9122314453125,183.6395263671875
1.4962499,8.995016098022461,-3.248931646347046,-2.0590133666992188,-132.4005126953125,5.2490234375,188.873291015625
1.4987499,9.361329078674316,-3.4739866256713867,-2.2242133617401123,-134.2010498046875,3.143310546875,194.488525390625
1.5012499,9.852140426635742,-3.6750996112823486,-2.38462495803833,-135.43701171875,0.8087158203125,200.0274658203125
1.5037498999999999,10.512939453125,-3.8570590019226074,-2.513911724090576,-136.90185546875,-1.495361328125,205.6732177734375
1.5062499,11.367670059204102,-4.019864559173584,-2.58813214302063,-138.18359375,-3.7841796875,211.273193359375
1.5087499,12.440272331237793,-4.14915132522583,-2.604891538619995,-139.46533203125,-6.4544677734375,216.583251953125
1.5112499,13.704410552978516,-4.242525577545166,-2.540247917175293,-140.8233642578125,-9.246826171875,222.10693359375
1.5137498999999999,15.126565933227539,-4.311957359313965,-2.425326347351074,-142.181396484375,-12.4969482421875,227.3101806640625
1.5162499,16.685192108154297,-4.343081951141357,-2.27209734916687,-143.0206298828125,-16.6015625,233.001708984375
1.5187499,18.322826385498047,-4.352658748626709,-2.1308395862579346,-143.6309814453125,-21.17919921875,238.6322021484375
1.5212499,19.979612350463867,-4.321534156799316,-2.032677173614502,-144.7296142578125,-25.87890625,243.9117431640625
1.5237498999999999,21.684284210205078,-4.247313976287842,-1.9608511924743652,-146.0113525390625,-30.70068359375,248.3978271484375
1.5262499,23.33149528503418,-4.146757125854492,-1.965639591217041,-146.6064453125,-35.70556640625,253.631591796875
1.5287499,24.954763412475586,-3.993528366088867,-1.968033790588379,-149.871826171875,-39.7491455078125,258.270263671875
1.5312499,26.522966384887695,-3.801992416381836,-2.0039467811584473,-153.0609130859375,-45.22705078125,262.725830078125
1.5337498999999999,28.033708572387695,-3.5458126068115234,-2.030282974243164,-156.219482421875,-50.3387451171875,266.6168212890625
1.5362499,29.53008460998535,-3.2178070545196533,-2.0590133666992188,-160.0799560546875,-55.755615234375,270.050048828125
1.5387499,31.03843116760254,-2.851494312286377,-2.070984363555908,-164.825439453125,-61.5081787109375,273.5443115234375
1.5412499,32.58747863769531,-2.449268341064453,-2.0685901641845703,-169.5404052734375,-67.474365234375,276.7486572265625
1.5437499,34.17723083496094,-2.056619167327881,-2.030282974243164,-174.041748046875,-73.944091796875,279.144287109375
1.5462498999999998,35.79810333251953,-1.659181833267212,-1.965639591217041,-179.351806640625,-80.8258056640625,281.0821533203125
1.5487499,37.42376708984375,-1.259350061416626,-1.8818424940109253,-184.661865234375,-88.0126953125,283.50830078125
1.5512499,39.02069854736328,-0.8451532125473022,-1.7884687185287476,-190.85693359375,-95.306396484375,285.0189208984375
1.5537499,40.557777404785156,-0.3998316824436188,-1.7142484188079834,-197.6470947265625,-103.1494140625,285.7208251953125
1.5562498999999999,42.003875732421875,0.08858546614646912,-1.625662922859192,-205.0323486328125,-110.4583740234375,287.017822265625
1.5587499,43.347023010253906,0.6033388376235962,-1.5155296325683594,-213.3636474609375,-118.2708740234375,287.3077392578125
1.5612499,44.53933334350586,1.1468225717544556,-1.3407529592514038,-222.1832275390625,-125.6256103515625,287.261962890625
1.5637499,45.62630081176758,1.6903064250946045,-1.0821791887283325,-231.2774658203125,-132.14111328125,287.2772216796875
1.5662498999999999,46.53609848022461,2.252943754196167,-0.7374141216278076,-241.424560546875,-138.5498046875,286.651611328125
1.5687499,47.28787612915039,2.8227639198303223,-0.3208230137825012,-252.3040771484375,-143.402099609375,285.491943359375
1.5712499,47.81938934326172,3.3710360527038574,0.12210428714752197,-263.5498046875,-147.8424072265625,284.1033935546875
1.5737499,48.085147857666016,3.825934410095215,0.6248866319656372,-277.496337890625,-150.5889892578125,282.073974609375
1.5762498999999999,48.04684066772461,4.2975921630859375,1.213860273361206,-294.1741943359375,-153.0303955078125,280.5938720703125
1.5787499,47.71165084838867,4.671087741851807,1.7717092037200928,-307.9376220703125,-156.1737060546875,278.6102294921875
1.5812499,47.091552734375,5.063736438751221,2.38462495803833,-322.479248046875,-157.196044921875,275.1312255859375
1.5837499,46.272735595703125,5.4252610206604,2.851494312286377,-337.4176025390625,-159.5916748046875,273.681640625
1.5862498999999999,45.32223892211914,5.679046630859375,3.205836057662964,-353.7139892578125,-158.5693359375,272.308349609375
1.5887499,44.1945686340332,5.784391403198242,3.529053211212158,-371.429443359375,-159.149169921875,270.81298828125
1.5912499,42.95676803588867,5.7341132164001465,3.773261785507202,-388.9617919921875,-158.75244140625,269.6075439453125
1.5937499,41.55376434326172,5.497087001800537,4.084507942199707,-408.1268310546875,-157.7911376953125,269.6990966796875
1.5962498999999999,40.016685485839844,5.104437828063965,4.4532151222229,-426.2542724609375,-157.0281982421875,270.233154296875
1.5987499,38.41257095336914,4.649539470672607,4.7836151123046875,-444.4580078125,-155.2734375,272.1710205078125
1.6012499,36.71268844604492,4.177882194519043,5.152322292327881,-464.7979736328125,-150.5584716796875,273.3154296875
1.6037499,34.9074592590332,3.756502389907837,5.396530628204346,-486.663818359375,-146.728515625,275.299072265625
1.6062499,32.93942642211914,3.421314239501953,5.547365188598633,-500,-143.402099609375,278.0914306640625
1.6087498999999998,30.782251358032227,3.1723172664642334,5.547365188598633,-500,-140.1519775390625,281.31103515625
1.6112499,28.402414321899414,2.9089550971984863,5.420472621917725,-500,-135.986328125,284.271240234375
1.6137499,25.852590560913086,2.6408045291900635,5.109226226806641,-500,-132.2479248046875,287.3687744140625
1.6162499,23.118412017822266,2.2409727573394775,4.692635536193848,-500,-130.4473876953125,291.1834716796875
1.6187498999999999,20.331560134887695,1.7405846118927002,4.175487995147705,-500,-128.0517578125,294.86083984375
1.6212499,17.49443244934082,1.1420341730117798,3.509899616241455,-500,-126.007080078125,298.6907958984375
1.6237499,14.688426971435547,0.5003881454467773,2.82515811920166,-500,-122.61962890625,302.3223876953125
1.6262499,11.87763500213623,-0.13168109953403473,2.0374655723571777,-500,-119.1864013671875,305.9844970703125
1.6287498999999999,9.042900085449219,-0.7852981686592102,1.2425906658172607,-500,-116.607666015625,309.326171875
1.6312499,6.150704383850098,-1.3934253454208374,0.4812345504760742,-500,-113.739013671875,313.1256103515625
1.6337499,3.112462282180786,-2.0877439975738525,-0.2849099934101105,-500,-109.2681884765625,316.58935546875
1.6362499,-0.08140286058187485,-2.8203697204589844,-0.9816226959228516,-500,-106.01806640625,320.770263671875
1.6387498999999999,-3.5003228187561035,-3.584120035171509,-1.6424223184585571,-500,-103.790283203125,326.446533203125
1.6412499,-7.196970462799072,-4.321534156799316,-2.1978771686553955,-500,-100.7080078125,333.0535888671875
1.6437499,-11.250353813171387,-4.8722004890441895,-2.691082715988159,-500,-97.0458984375,339.41650390625
1.6462499,-15.70117473602295,-5.240907669067383,-3.0526070594787598,-500,-96.0845947265625,346.86279296875
1.6487498999999999,-20.65238380432129,-5.365406036376953,-3.399766445159912,-500,-95.3369140625,356.5521240234375
1.6512499,-26.154258728027344,-5.365406036376953,-3.7876269817352295,-500,-95.0164794921875,367.0196533203125
1.6537499,-32.168495178222656,-5.3797712326049805,-4.367023944854736,-500,-99.6246337890625,378.72314453125
1.6562499,-38.48918533325195,-5.621585369110107,-5.25527286529541,-500,-107.940673828125,392.669677734375
1.6587498999999999,-44.850582122802734,-6.289567947387695,-6.6630635261535645,-500,-114.3035888671875,406.036376953125
1.6612499,-50.80735397338867,-7.4986395835876465,-8.506598472595215,-500,-118.8812255859375,418.02978515625
1.6637499,-56.098541259765625,-9.244012832641602,-10.773907661437988,-500,-119.7662353515625,427.9937744140625
1.6662499,-60.551753997802734,-11.353304862976074,-13.139378547668457,-500,-116.851806640625,435.2264404296875
1.6687499,-64.25798034667969,-13.55357551574707,-15.236700057983398,-500,-110.260009765625,440.5517578125
1.6712498999999998,-67.15735626220703,-15.442601203918457,-16.95094871520996,-500,-106.0333251953125,441.9403076171875
1.6737499,-69.41987609863281,-16.82645034790039,-17.86553382873535,-500,-91.644287109375,440.7806396484375
1.6762499,-70.85160827636719,-17.475278854370117,-18.04270362854004,-500,-76.5380859375,436.0198974609375
1.6787499,-71.3232650756836,-17.422605514526367,-17.30289649963379,-486.51123046875,-61.3555908203125,426.025390625
1.6812498999999999,-70.63134765625,-16.687585830688477,-15.619771957397461,-457.0465087890625,-44.464111328125,411.224365234375
1.6837499,-68.63458251953125,-15.22472858428955,-13.15613842010498,-428.16162109375,-23.3306884765625,391.0675048828125
1.6862499,-65.35452270507812,-12.995726585388184,-10.086771965026855,-402.4505615234375,0.5645751953125,365.264892578125
1.6887499,-60.975528717041016,-9.86650562286377,-6.744466304779053,-379.8370361328125,24.261474609375,333.0841064453125
1.6912498999999999,-55.77771759033203,-5.7772088050842285,-3.4404678344726562,-360.3668212890625,47.943115234375,294.2962646484375
1.6937499,-50.2064094543457,-1.015141487121582,-0.42616790533065796,-344.42138671875,72.3724365234375,248.291015625
1.6962499,-44.740447998046875,3.8379054069519043,2.1811177730560303,-326.507568359375,94.6197509765625,196.563720703125
1.6987499,-39.84669876098633,7.977479934692383,4.252102375030518,-302.9632568359375,113.5406494140625,142.4713134765625
1.7012498999999999,-35.795711517333984,10.706870079040527,5.7556610107421875,-272.5677490234375,126.5106201171875,89.7216796875
1.7037499,-32.642547607421875,11.78665542602539,6.643909931182861,-236.724853515625,134.4146728515625,38.6505126953125
1.7062499,-30.176517486572266,11.446678161621094,6.912060260772705,-196.868896484375,139.3585205078125,-10.8642578125
1.7087499,-28.19890785217285,10.14902114868164,6.648698329925537,-153.4881591796875,140.56396484375,-58.837890625
1.7112498999999999,-26.558879852294922,8.279149055480957,5.999869346618652,-107.2235107421875,138.18359375,-103.94287109375
1.7137499,-25.196578979492188,6.042964935302734,5.097255229949951,-56.2591552734375,130.584716796875,-144.3328857421875
1.7162499,-24.145524978637695,3.4524388313293457,4.043806552886963,0.518798828125,118.2403564453125,-179.1534423828125
1.7187499,-23.39853286743164,0.524330198764801,2.853888511657715,61.767578125,103.5614013671875,-208.038330078125
1.7212498999999999,-22.89814567565918,-2.6791117191314697,1.6424223184585571,124.1607666015625,87.2650146484375,-231.689453125
1.7237499,-22.73055076599121,-5.901707172393799,0.35434186458587646,184.8297119140625,70.6329345703125,-250.732421875
1.7262499,-22.809558868408203,-8.846575736999512,-0.9361328482627869,243.6981201171875,55.96923828125,-264.2822265625
1.7287499,-23.245304107666016,-11.219228744506836,-2.231395959854126,299.62158203125,43.1365966796875,-273.406982421875
1.7312499,-23.970746994018555,-12.813767433166504,-3.5482068061828613,352.11181640625,30.0750732421875,-278.656005859375
1.7337498999999998,-24.945186614990234,-13.555970191955566,-4.841075897216797,399.4140625,17.6544189453125,-280.76171875
1.7362499,-26.092010498046875,-13.455413818359375,-6.081272125244141,440.8416748046875,7.0953369140625,-280.487060546875
1.7387499,-27.3346004486084,-12.607866287231445,-7.216124057769775,475.5096435546875,-1.3427734375,-277.3895263671875
1.7412499,-28.598739624023438,-11.142614364624023,-8.178592681884766,499.9847412109375,-9.5672607421875,-271.484375
1.7437498999999999,-29.791051864624023,-9.251194953918457,-8.937555313110352,499.9847412109375,-18.1121826171875,-264.4500732421875
1.7462499,-30.712820053100586,-7.129932880401611,-9.466673851013184,499.9847412109375,-26.611328125,-256.683349609375
1.7487499,-31.16771697998047,-4.965574264526367,-9.715670585632324,499.9847412109375,-33.99658203125,-248.4588623046875
1.7512499,-30.99533462524414,-2.8443117141723633,-10.017339706420898,499.9847412109375,-43.914794921875,-241.0430908203125
1.7537498999999999,-30.12384605407715,-0.8259995579719543,-10.163386344909668,499.9847412109375,-50.811767578125,-234.31396484375
1.7562499,-28.6226806640625,1.1085153818130493,-10.500968933105469,499.9847412109375,-50.262451171875,-226.348876953125
1.7587499,-26.66183090209961,2.9065608978271484,-10.855310440063477,499.9847412109375,-54.01611328125,-221.5576171875
1.7612499,-24.42325210571289,4.522646903991699,-11.262324333190918,488.006591796875,-55.9234619140625,-218.231201171875
1.7637498999999999,-22.146366119384766,5.880159378051758,-11.674127578735352,464.53857421875,-55.8624267578125,-216.3543701171875
1.7662499,-19.99397850036621,6.914454460144043,-12.073959350585938,439.239501953125,-54.4586181640625,-215.301513671875
1.7687499,-18.083404541015625,7.589619159698486,-12.389993667602539,412.139892578125,-52.3681640625,-215.2557373046875
1.7712499,-16.4625301361084,7.876923561096191,-12.564770698547363,384.0789794921875,-49.4232177734375,-216.2933349609375
1.7737498999999999,-15.112200736999512,7.805097579956055,-12.562376022338867,355.438232421875,-45.1507568359375,-217.34619140625
1.7762499,-13.974955558776855,7.405265808105469,-12.380416870117188,326.385498046875,-40.0848388671875,-217.9718017578125
1.7787499,-12.938265800476074,6.773196697235107,-12.050017356872559,297.18017578125,-34.7137451171875,-218.536376953125
1.7812499,-11.923124313354492,5.9735331535339355,-11.626243591308594,268.85986328125,-28.9764404296875,-218.3380126953125
1.7837498999999999,-10.836156845092773,5.099649429321289,-11.159374237060547,241.02783203125,-22.3388671875,-218.0633544921875
1.7862499,-9.636661529541016,4.177882194519043,-10.704475402832031,214.508056640625,-15.8538818359375,-217.7581787109375
1.7887499,-8.312667846679688,3.2345664501190186,-10.295066833496094,188.9801025390625,-8.636474609375,-217.3309326171875
1.7912499,-6.89530086517334,2.27209734916687,-9.95748519897461,164.9017333984375,-0.6256103515625,-217.0257568359375
1.7937499,-5.442020416259766,1.259350061416626,-9.706093788146973,142.578125,7.9193115234375,-216.1712646484375
1.7962498999999998,-4.022258758544922,0.17956513166427612,-9.521739959716797,122.25341796875,16.7694091796875,-214.813232421875
1.7987499,-2.674323320388794,-0.9385270476341248,-9.404424667358398,104.1259765625,25.5889892578125,-212.249755859375
1.8012499,-1.41257905960083,-2.049436569213867,-9.351752281188965,88.226318359375,34.3170166015625,-208.770751953125
1.8037499,-0.22026655077934265,-3.0813376903533936,-9.375694274902344,73.944091796875,43.5638427734375,-205.169677734375
1.8062498999999999,0.9145850539207458,-4.003105163574219,-9.493009567260742,61.46240234375,52.032470703125,-201.0650634765625
1.8087499,2.030282974243164,-4.809951305389404,-9.6989107131958,51.4373779296875,59.6160888671875,-196.6094970703125
1.8112499,3.1292216777801514,-5.537788391113281,-9.955090522766113,43.792724609375,66.253662109375,-191.89453125
1.8137499,4.2544965744018555,-6.1985883712768555,-10.196905136108398,38.1317138671875,71.868896484375,-186.6912841796875
1.8162498999999999,5.413290023803711,-6.763619899749756,-10.409989356994629,34.9884033203125,77.362060546875,-181.1676025390625
1.8187499,6.593631267547607,-7.261613845825195,-10.541669845581055,33.75244140625,82.427978515625,-176.2847900390625
1.8212499,7.745242595672607,-7.671022415161133,-10.60391902923584,34.48486328125,86.456298828125,-171.8292236328125
1.8237499,8.81784439086914,-8.042123794555664,-10.577583312988281,37.6739501953125,90.423583984375,-167.66357421875
1.8262498999999999,9.75397777557373,-8.437167167663574,-10.465055465698242,42.8619384765625,93.7042236328125,-163.3758544921875
1.8287499,10.5344877243042,-8.882488250732422,-10.247182846069336,49.9114990234375,96.86279296875,-158.99658203125
1.8312499,11.15697956085205,-9.397241592407227,-9.940725326538086,58.4564208984375,99.5635986328125,-154.4647216796875
1.8337499,11.650185585021973,-9.940725326538086,-9.548076629638672,69.1375732421875,102.35595703125,-149.59716796875
1.8362498999999999,12.126631736755371,-10.381258964538574,-9.385271072387695,80.9173583984375,105.2703857421875,-144.5465087890625
1.8387499,12.389993667602539,-10.884040832519531,-8.736441612243652,89.447021484375,120.208740234375,-138.3209228515625
1.8412499,12.753912925720215,-11.216835021972656,-8.415618896484375,109.9395751953125,116.1651611328125,-132.415771484375
1.8437499,12.928689002990723,-11.604695320129395,-7.711723804473877,125.8544921875,115.9820556640625,-127.13623046875
1.8462498999999999,13.132196426391602,-11.915942192077637,-7.105990409851074,140.594482421875,120.635986328125,-121.6888427734375
1.8487499,13.263877868652344,-12.126631736755371,-6.600813865661621,154.84619140625,123.6572265625,-116.790771484375
1.8512499,13.35964584350586,-12.224793434143066,-6.179434776306152,169.6929931640625,126.1138916015625,-111.9384765625
1.8537499,13.409923553466797,-12.18648624420166,-5.839457988739014,184.3719482421875,128.875732421875,-107.269287109375
1.8562499,13.52005672454834,-12.016498565673828,-5.621585369110107,199.0509033203125,131.6680908203125,-103.02734375
1.8587498999999998,13.589488983154297,-11.784260749816895,-5.446808815002441,213.0126953125,136.5203857421875,-98.9990234375
1.8612499,13.79060173034668,-11.563994407653809,-5.406107425689697,227.8900146484375,136.65771484375,-95.9014892578125
1.8637499,14.010868072509766,-11.396400451660156,-5.377377033233643,242.431640625,137.1917724609375,-92.8192138671875
1.8662499,14.312538146972656,-11.322179794311523,-5.4228668212890625,255.4473876953125,139.0380859375,-89.8895263671875
1.8687498999999999,14.693215370178223,-11.298237800598145,-5.48272180557251,267.8375244140625,139.923095703125,-86.8682861328125
1.8712499,15.085865020751953,-11.298237800598145,-5.549759387969971,279.9224853515625,140.5487060546875,-84.228515625
1.8737499,15.433024406433105,-11.276689529418945,-5.578489780426025,291.3665771484375,140.6097412109375,-81.8328857421875
1.8762499,15.682021141052246,-11.21444034576416,-5.568912982940674,301.1016845703125,140.960693359375,-80.2459716796875
1.8787498999999999,15.782577514648438,-11.092336654663086,-5.530605792999268,309.967041015625,140.7318115234375,-79.0252685546875
1.8812499,15.725116729736328,-10.898406028747559,-5.47075080871582,317.68798828125,140.6402587890625,-78.1097412109375
1.8837499,15.528792381286621,-10.632649421691895,-5.415684223175049,324.4476318359375,140.1824951171875,-78.0029296875
1.8862499,15.231911659240723,-10.314221382141113,-5.367800235748291,329.58984375,139.739990234375,-78.2623291015625
1.8887498999999999,14.882357597351074,-9.952696800231934,-5.327098846435547,333.49609375,139.0838623046875,-78.8421630859375
1.8912499,14.52562141418457,-9.583989143371582,-5.288791656494141,335.784912109375,138.824462890625,-79.8797607421875
1.8937499,14.209587097167969,-9.23443603515625,-5.2480902671813965,336.9903564453125,138.5955810546875,-81.23779296875
1.8962499,13.951013565063477,-8.916007041931152,-5.193023681640625,337.005615234375,138.1072998046875,-82.8399658203125
1.8987498999999999,13.761871337890625,-8.635885238647461,-5.118803024291992,335.8917236328125,137.542724609375,-84.686279296875
1.9012499,13.623007774353027,-8.377311706542969,-5.020640850067139,333.7554931640625,137.0697021484375,-86.883544921875
1.9037499,13.510479927062988,-8.133103370666504,-4.898536682128906,330.62744140625,136.77978515625,-89.4012451171875
1.9062499,13.405135154724121,-7.872135162353516,-4.752490520477295,325.927734375,136.1083984375,-92.46826171875
1.9087498999999999,13.273454666137695,-7.592013359069824,-4.60165548324585,320.4345703125,135.0860595703125,-96.038818359375
1.9112499,13.113042831420898,-7.275979042053223,-4.448426723480225,313.9190673828125,134.1552734375,-99.8077392578125
1.9137499,12.916718482971191,-6.931213855743408,-4.311957359313965,306.884765625,132.9193115234375,-104.3243408203125
1.9162499,12.70602798461914,-6.572083473205566,-4.182670593261719,299.591064453125,131.5460205078125,-109.19189453125
1.9187499,12.492944717407227,-6.22731876373291,-4.065354347229004,291.839599609375,129.8370361328125,-114.7003173828125
1.9212498999999998,12.2990140914917,-5.9088897705078125,-3.9456443786621094,283.905029296875,128.0975341796875,-120.208740234375
1.9237499,12.138602256774902,-5.6455278396606445,-3.821146011352539,275.848388671875,125.762939453125,-126.0528564453125
1.9262499,12.02607536315918,-5.451597213745117,-3.687070608139038,267.9901123046875,123.321533203125,-131.8359375
1.9287499,11.959037780761719,-5.336675643920898,-3.5410242080688477,260.101318359375,120.6512451171875,-137.63427734375
1.9312498999999999,11.93748950958252,-5.2911858558654785,-3.3710360527038574,252.6092529296875,117.706298828125,-143.218994140625
1.9337499,11.93509578704834,-5.293580055236816,-3.184288263320923,245.42236328125,114.654541015625,-148.7579345703125
1.9362499,11.930307388305664,-5.307945251464844,-2.9759926795959473,238.311767578125,112.1063232421875,-154.0679931640625
1.9387499,11.911153793334961,-5.3127336502075195,-2.762908697128296,231.8115234375,109.1461181640625,-159.1644287109375
1.9412498999999999,11.858481407165527,-5.295974254608154,-2.5450363159179688,225.9521484375,106.170654296875,-163.87939453125
1.9437499,11.769895553588867,-5.272032260894775,-2.3295583724975586,219.90966796875,103.179931640625,-168.0908203125
1.9462499,11.657367706298828,-5.2696380615234375,-2.1068975925445557,214.691162109375,99.884033203125,-171.9970703125
1.9487499,11.513715744018555,-5.319916248321533,-1.8770540952682495,210.174560546875,96.98486328125,-175.4608154296875
1.9512498999999999,11.35809326171875,-5.446808815002441,-1.6304513216018677,206.1004638671875,93.8720703125,-178.497314453125
1.9537499,11.17852783203125,-5.640739440917969,-1.3646949529647827,202.81982421875,91.0797119140625,-180.7403564453125
1.9562499,10.970232009887695,-5.875370979309082,-1.0965443849563599,200.13427734375,88.134765625,-182.4951171875
1.9587499,10.72841739654541,-6.110002517700195,-0.8475474119186401,197.7996826171875,85.4034423828125,-184.173583984375
1.9612498999999999,10.441113471984863,-6.303933143615723,-0.6512228846549988,196.044921875,82.6568603515625,-185.546875
1.9637499,10.129867553710938,-6.449979305267334,-0.5267243981361389,194.5037841796875,80.13916015625,-186.70654296875
1.9662499,9.804255485534668,-6.543353080749512,-0.47165772318840027,193.084716796875,77.3162841796875,-187.225341796875
1.9687499,9.493009567260742,-6.603208065032959,-0.47165772318840027,192.3980712890625,74.9664306640625,-187.8204345703125
1.9712498999999999,9.224859237670898,-6.646304130554199,-0.4884171485900879,191.8487548828125,72.2198486328125,-188.1256103515625
1.9737499,9.009381294250488,-6.696582317352295,-0.4884171485900879,191.6046142578125,69.5953369140625,-188.17138671875
1.9762499,8.844181060791016,-6.763619899749756,-0.44532153010368347,191.925048828125,67.291259765625,-187.6678466796875
1.9787499,8.71728801727295,-6.854599475860596,-0.33039984107017517,192.626953125,64.6514892578125,-186.767578125
1.9812499,8.607154846191406,-6.92881965637207,-0.1628057211637497,193.4356689453125,62.3321533203125,-186.004638671875
1.9837499,8.47786808013916,-6.981492042541504,0.0933738648891449,193.7408447265625,59.1888427734375,-185.11962890625
1.9862499,8.35097599029541,-6.947973251342773,0.395043283700943,194.488525390625,57.2357177734375,-183.8836669921875
1.9887499,8.219294548034668,-6.845022678375244,0.7398083209991455,195.556640625,55.7403564453125,-182.3883056640625
1.9912499,8.1139497756958,-6.677428722381592,1.0893617868423462,196.2127685546875,53.7261962890625,-181.396484375
1.9937498999999999,8.051700592041016,-6.476315498352051,1.4077905416488647,196.2432861328125,52.3681640625,-180.5877685546875
1.9962499,8.018181800842285,-6.277596950531006,1.6663644313812256,196.6552734375,51.300048828125,-179.2449951171875
1.9987499,8.001421928405762,-6.102819919586182,1.843535304069519,197.0977783203125,50.59814453125,-178.0548095703125
2.0012499,7.9631147384643555,-5.928043365478516,1.9273324012756348,197.0672607421875,50.0335693359375,-176.8035888671875
2.0037499,7.884106159210205,-5.743690013885498,1.9177556037902832,196.7620849609375,49.3011474609375,-175.262451171875
2.0062499,7.759607791900635,-5.523423194885254,1.8076223134994507,195.9991455078125,47.943115234375,-173.9654541015625
2.0087498999999998,7.594407558441162,-5.260061264038086,1.6136919260025024,194.88525390625,46.630859375,-173.0194091796875
2.0112499,7.41484260559082,-4.9583916664123535,1.3551181554794312,193.6187744140625,45.0286865234375,-172.2869873046875
2.0137499,7.237671852111816,-4.63517427444458,1.0534487962722778,192.474365234375,42.816162109375,-171.7529296875
2.0162499,7.074865818023682,-4.309563159942627,0.7493851184844971,190.9637451171875,40.52734375,-170.989990234375
2.0187499,6.931213855743408,-3.993528366088867,0.44771572947502136,189.3157958984375,38.02490234375,-170.6390380859375
2.0212499,6.830657482147217,-3.6990416049957275,0.17956513166427612,187.56103515625,35.2020263671875,-170.41015625
2.0237499,6.742072105407715,-3.426102638244629,-0.047884032130241394,185.36376953125,32.71484375,-169.7998046875
2.0262499,6.682217121124268,-3.1914708614349365,-0.22026655077934265,182.9986572265625,29.9835205078125,-169.3115234375
2.0287498999999998,6.651092529296875,-3.004723072052002,-0.33039984107017517,180.72509765625,26.7791748046875,-168.182373046875
2.0312499,6.631938934326172,-2.8634653091430664,-0.363918662071228,178.0548095703125,24.0020751953125,-167.29736328125
2.0337499,6.658275127410889,-2.7772738933563232,-0.3423708379268646,175.3692626953125,21.331787109375,-166.3665771484375
2.0362499,6.698976516723633,-2.734178304672241,-0.26096799969673157,172.6226806640625,19.195556640625,-164.8712158203125
2.0387499,6.761225700378418,-2.7293899059295654,-0.14604631066322327,169.7235107421875,16.9219970703125,-163.0859375
2.0412499,6.821080684661865,-2.7557260990142822,-0.009576806798577309,166.8243408203125,14.6636962890625,-160.9344482421875
2.0437499,6.876147270202637,-2.801215887069702,0.1364694982767105,163.330078125,12.9852294921875,-158.782958984375
2.0462499,6.9024834632873535,-2.853888511657715,0.2801215946674347,159.515380859375,11.5966796875,-156.402587890625
2.0487499,6.9024834632873535,-2.892195701599121,0.4141969084739685,156.18896484375,10.009765625,-153.9459228515625
2.0512498999999997,6.866570472717285,-2.8993782997131348,0.5147533416748047,152.64892578125,8.5601806640625,-151.397705078125
2.0537499,6.789956092834473,-2.8586769104003906,0.5650315880775452,149.0325927734375,7.87353515625,-149.0936279296875
2.0562499,6.7061591148376465,-2.7557260990142822,0.5554547905921936,145.5230712890625,7.2021484375,-147.003173828125
2.0587499,6.615179061889648,-2.583343744277954,0.47165772318840027,141.78466796875,6.1492919921875,-145.172119140625
2.0612499,6.54574728012085,-2.3798365592956543,0.35913026332855225,137.7410888671875,5.7373046875,-143.37158203125
2.0637499,6.519411087036133,-2.1571757793426514,0.23942017555236816,133.6669921875,4.8065185546875,-141.8304443359375
2.0662499,6.531382083892822,-1.9512743949890137,0.1628057211637497,129.82177734375,3.936767578125,-140.19775390625
2.0687499,6.62236213684082,-1.766920804977417,0.17956513166427612,126.3275146484375,2.5177001953125,-138.61083984375
2.0712498999999998,6.768408298492432,-1.599326729774475,0.2777273952960968,122.6959228515625,1.3427734375,-137.054443359375
2.0737499,6.964732646942139,-1.455674648284912,0.47165772318840027,118.804931640625,1.3580322265625,-135.8489990234375
2.0762499,7.19936466217041,-1.314416766166687,0.7182605266571045,115.0665283203125,1.251220703125,-135.0250244140625
2.0787499,7.438784599304199,-1.2114660739898682,0.9911994934082031,111.8621826171875,0.6561279296875,-133.9874267578125
2.0812499,7.671022415161133,-1.1468225717544556,1.2713210582733154,108.154296875,1.0833740234375,-133.209228515625
2.0837499,7.903259754180908,-1.1468225717544556,1.534683346748352,104.7821044921875,0.9613037109375,-132.110595703125
2.0862499,8.130708694458008,-1.1994950771331787,1.7717092037200928,101.8218994140625,1.617431640625,-130.401611328125
2.0887499,8.343792915344238,-1.3048399686813354,1.9632453918457031,98.876953125,3.143310546875,-128.41796875
2.0912498999999998,8.530540466308594,-1.4269442558288574,2.0829553604125977,95.977783203125,5.096435546875,-126.0986328125
2.0937499,8.669404029846191,-1.5394717454910278,2.099714994430542,92.9107666015625,6.683349609375,-123.6572265625
2.0962499,8.741230010986328,-1.6065093278884888,2.011129379272461,89.78271484375,8.3465576171875,-121.7498779296875
2.0987499,8.75080680847168,-1.6208745241165161,1.8171991109848022,86.85302734375,10.25390625,-119.6746826171875
2.1012499,8.702922821044922,-1.577778935432434,1.5394717454910278,83.953857421875,12.1307373046875,-117.67578125
2.1037499,8.597578048706055,-1.4772224426269531,1.2090718746185303,81.024169921875,13.519287109375,-115.7989501953125
2.1062499,8.449137687683105,-1.335964560508728,0.8571242094039917,78.5369873046875,14.556884765625,-114.4256591796875
2.1087499,8.279149055480957,-1.1563993692398071,0.5147533416748047,76.66015625,15.2587890625,-113.3270263671875
2.1112499,8.109161376953125,-0.9361328482627869,0.2059013396501541,74.70703125,15.80810546875,-112.548828125
2.1137498999999997,7.970297336578369,-0.7182605266571045,-0.0454898327589035,72.4945068359375,16.265869140625,-112.1673583984375
2.1162499,7.879317760467529,-0.5099649429321289,-0.2298433631658554,70.709228515625,16.204833984375,-111.8316650390625
2.1187499,7.8314337730407715,-0.35913026332855225,-0.33039984107017517,68.817138671875,16.0980224609375,-112.0758056640625
2.1212499,7.838616371154785,-0.2777273952960968,-0.3471592366695404,67.2454833984375,15.9759521484375,-111.99951171875
2.1237499,7.881711959838867,-0.26575639843940735,-0.304063618183136,66.10107421875,15.6707763671875,-111.7706298828125
2.1262499,7.953537940979004,-0.3232172429561615,-0.21308395266532898,65.1092529296875,15.228271484375,-111.4959716796875
2.1287499,8.044517517089844,-0.4213795065879822,-0.10295066982507706,64.3310546875,14.8773193359375,-110.7635498046875
2.1312499,8.152256965637207,-0.5506663918495178,0.002394201699644327,63.629150390625,14.7247314453125,-110.53466796875
2.1337498999999998,8.267178535461426,-0.6799532771110535,0.10773907601833344,62.957763671875,14.2822265625,-109.6954345703125
2.1362499,8.492233276367188,-0.9385270476341248,0.2777273952960968,61.5234375,13.458251953125,-107.2540283203125
2.1387499,8.492233276367188,-0.9385270476341248,0.2777273952960968,61.5234375,13.458251953125,-107.2540283203125
2.1412499,8.65743350982666,-1.1683704853057861,0.35673606395721436,59.75341796875,12.63427734375,-104.5074462890625
2.1437499,8.65743350982666,-1.1683704853057861,0.35673606395721436,59.75341796875,12.63427734375,-104.5074462890625
2.1462499,8.753201484680176,-1.2306196689605713,0.33518823981285095,58.7310791015625,12.2833251953125,-101.9439697265625
2.1487499,8.753201484680176,-1.2306196689605713,0.33518823981285095,58.7310791015625,12.2833251953125,-101.9439697265625
2.1512499,8.78193187713623,-1.0749965906143188,0.2825157940387726,57.6171875,11.1541748046875,-99.6856689453125
2.1537498999999998,8.78193187713623,-1.0749965906143188,0.2825157940387726,57.6171875,11.1541748046875,-99.6856689453125
2.1562499,8.858546257019043,-0.811634361743927,0.3064578175544739,56.640625,9.8876953125,-97.7020263671875
2.1587499,8.858546257019043,-0.811634361743927,0.3064578175544739,56.640625,9.8876953125,-97.7020263671875
2.1612499,9.138668060302734,-0.6751648783683777,0.5554547905921936,55.8929443359375,8.392333984375,-96.0540771484375
2.1637499,9.138668060302734,-0.6751648783683777,0.5554547905921936,55.8929443359375,8.392333984375,-96.0540771484375
2.1662499,9.59596061706543,-0.8403648138046265,1.0797849893569946,55.419921875,7.3699951171875,-93.0938720703125
2.1687499,9.59596061706543,-0.8403648138046265,1.0797849893569946,55.419921875,7.3699951171875,-93.0938720703125
2.1712499,10.046070098876953,-1.192312479019165,1.6903064250946045,55.633544921875,6.9427490234375,-88.56201171875
2.1737499,10.046070098876953,-1.192312479019165,1.6903064250946045,55.633544921875,6.9427490234375,-88.56201171875
2.1762499,10.29746150970459,-1.4987702369689941,2.161964178085327,56.304931640625,7.110595703125,-83.9385986328125
2.1787499,10.29746150970459,-1.4987702369689941,2.161964178085327,56.304931640625,7.110595703125,-83.9385986328125
2.1812499,10.335768699645996,-1.5969325304031372,2.4612393379211426,57.0068359375,6.7291259765625,-79.04052734375
2.1837499,10.335768699645996,-1.5969325304031372,2.4612393379211426,57.0068359375,6.7291259765625,-79.04052734375
2.1862499,10.259154319763184,-1.5155296325683594,2.7006595134735107,57.2509765625,6.7138671875,-74.27978515625
2.1887499,10.259154319763184,-1.5155296325683594,2.7006595134735107,57.2509765625,6.7138671875,-74.27978515625
2.1912499,10.125079154968262,-1.4389152526855469,2.913743495941162,57.891845703125,6.7291259765625,-69.82421875
2.1937499,10.125079154968262,-1.4389152526855469,2.913743495941162,57.891845703125,6.7291259765625,-69.82421875
2.1962498999999998,10.0580415725708,-1.4245500564575195,3.047818660736084,57.3883056640625,7.7972412109375,-65.216064453125
2.1987499,10.0580415725708,-1.4245500564575195,3.047818660736084,57.3883056640625,7.7972412109375,-65.216064453125
2.2012499,10.002974510192871,-1.6903064250946045,3.043030261993408,59.356689453125,7.75146484375,-59.6771240234375
2.2037499,10.002974510192871,-1.6903064250946045,3.043030261993408,59.356689453125,7.75146484375,-59.6771240234375
2.2062499,9.962273597717285,-2.1332337856292725,2.9233202934265137,57.6324462890625,6.7138671875,-55.17578125
2.2087499,9.962273597717285,-2.1332337856292725,2.9233202934265137,57.6324462890625,6.7138671875,-55.17578125
2.2112499,10.091560363769531,-2.406172752380371,2.806004285812378,56.1676025390625,6.378173828125,-49.285888671875
2.2137499,10.091560363769531,-2.406172752380371,2.806004285812378,56.1676025390625,6.378173828125,-49.285888671875
2.2162498999999998,10.278307914733887,-2.5498247146606445,2.7724854946136475,54.229736328125,5.55419921875,-43.5791015625
2.2187499,10.278307914733887,-2.5498247146606445,2.7724854946136475,54.229736328125,5.55419921875,-43.5791015625
2.2212499,10.400412559509277,-2.5737667083740234,2.8107926845550537,50.7965087890625,5.7830810546875,-38.1622314453125
2.2237499,10.400412559509277,-2.5737667083740234,2.8107926845550537,50.7965087890625,5.7830810546875,-38.1622314453125
2.2262499,10.431536674499512,-2.5067291259765625,2.8658595085144043,46.7529296875,5.1727294921875,-33.355712890625
2.2287499,10.431536674499512,-2.5067291259765625,2.8658595085144043,46.7529296875,5.1727294921875,-33.355712890625
2.2312499,10.433931350708008,-2.367865562438965,2.9161376953125,42.5567626953125,4.6844482421875,-28.839111328125
2.2337499,10.433931350708008,-2.367865562438965,2.9161376953125,42.5567626953125,4.6844482421875,-28.839111328125
2.2362499,10.460267066955566,-2.142810583114624,2.9879636764526367,38.39111328125,3.5247802734375,-25.6805419921875
2.2387499,10.460267066955566,-2.142810583114624,2.9879636764526367,38.39111328125,3.5247802734375,-25.6805419921875
2.2412499,10.491392135620117,-1.9105730056762695,3.095702886581421,33.3099365234375,2.349853515625,-23.040771484375
2.2437499,10.491392135620117,-1.9105730056762695,3.095702886581421,33.3099365234375,2.349853515625,-23.040771484375
2.2462499,10.512939453125,-1.7549498081207275,3.1962592601776123,28.045654296875,1.0986328125,-20.5841064453125
2.2487499,10.512939453125,-1.7549498081207275,3.1962592601776123,28.045654296875,1.0986328125,-20.5841064453125
2.2512499,10.532093048095703,-1.6352397203445435,3.224989652633667,22.491455078125,-0.244140625,-18.7225341796875
2.2537499,10.532093048095703,-1.6352397203445435,3.224989652633667,22.491455078125,-0.244140625,-18.7225341796875
2.2562499,10.5344877243042,-1.5442601442337036,3.157952070236206,16.17431640625,-1.4190673828125,-17.1661376953125
2.2587498999999998,10.5344877243042,-1.5442601442337036,3.157952070236206,16.17431640625,-1.4190673828125,-17.1661376953125
2.2612499,10.484209060668945,-1.5466543436050415,2.999934673309326,10.19287109375,-3.265380859375,-15.838623046875
2.2637499,10.484209060668945,-1.5466543436050415,2.999934673309326,10.19287109375,-3.265380859375,-15.838623046875
2.2662499,10.402806282043457,-1.5921441316604614,2.7557260990142822,4.058837890625,-4.974365234375,-14.404296875
2.2687499,10.402806282043457,-1.5921441316604614,2.7557260990142822,4.058837890625,-4.974365234375,-14.404296875
2.2712499,10.307038307189941,-1.5921441316604614,2.4660277366638184,-1.77001953125,-6.8511962890625,-13.153076171875
2.2737499,10.307038307189941,-1.5921441316604614,2.4660277366638184,-1.77001953125,-6.8511962890625,-13.153076171875
2.2762499,10.24000072479248,-1.5873557329177856,2.188300371170044,-8.3465576171875,-8.8043212890625,-12.4664306640625
2.2787498999999998,10.24000072479248,-1.5873557329177856,2.188300371170044,-8.3465576171875,-8.8043212890625,-12.4664306640625
2.2812499,10.225635528564453,-1.647210717201233,1.9776105880737305,-14.129638671875,-10.6658935546875,-11.23046875
2.2837499,10.225635528564453,-1.647210717201233,1.9776105880737305,-14.129638671875,-10.6658935546875,-11.23046875
2.2862499,10.261548042297363,-1.745373010635376,1.8746598958969116,-19.4244384765625,-12.2833251953125,-10.0860595703125
2.2887499,10.261548042297363,-1.745373010635376,1.8746598958969116,-19.4244384765625,-12.2833251953125,-10.0860595703125
2.2912499,10.32858657836914,-1.8195933103561401,1.8818424940109253,-24.1546630859375,-13.580322265625,-9.2620849609375
2.2937499,10.32858657836914,-1.8195933103561401,1.8818424940109253,-24.1546630859375,-13.580322265625,-9.2620849609375
2.2962499,10.381258964538574,-1.845929503440857,1.946485996246338,-28.7017822265625,-14.4805908203125,-8.8653564453125
2.2987499,10.381258964538574,-1.845929503440857,1.946485996246338,-28.7017822265625,-14.4805908203125,-8.8653564453125
2.3012499,10.374075889587402,-1.8602946996688843,1.9919757843017578,-31.951904296875,-15.1824951171875,-9.1400146484375
2.3037499,10.374075889587402,-1.8602946996688843,1.9919757843017578,-31.951904296875,-15.1824951171875,-9.1400146484375
2.3062499,10.307038307189941,-1.8914192914962769,1.9512743949890137,-33.63037109375,-15.7318115234375,-9.4757080078125
2.3087499,10.307038307189941,-1.8914192914962769,1.9512743949890137,-33.63037109375,-15.7318115234375,-9.4757080078125
2.3112499,10.228029251098633,-1.941697597503662,1.86508309841156,-34.9273681640625,-16.11328125,-10.2996826171875
2.3137499,10.201693534851074,-1.98958158493042,1.8291701078414917,-34.9578857421875,-16.4337158203125,-10.345458984375
2.3162499,10.189722061157227,-2.049436569213867,1.8124107122421265,-34.7900390625,-16.754150390625,-10.5133056640625
2.3187499,10.177751541137695,-2.126051187515259,1.8052281141281128,-34.1949462890625,-16.876220703125,-10.6048583984375
2.3212498999999998,10.168174743652344,-2.205059766769409,1.8124107122421265,-33.4320068359375,-17.02880859375,-10.528564453125
2.3237499,10.146626472473145,-2.279279947280884,1.8387469053268433,-32.65380859375,-17.1966552734375,-10.4827880859375
2.3262499,10.11550235748291,-2.3487119674682617,1.8770540952682495,-31.2347412109375,-17.333984375,-10.284423828125
2.3287499,10.074800491333008,-2.403778553009033,1.9321208000183105,-29.9530029296875,-17.5018310546875,-9.94873046875
2.3312499,10.017339706420898,-2.449268341064453,1.98958158493042,-29.022216796875,-17.2882080078125,-9.7503662109375
2.3337499,9.952696800231934,-2.4827871322631836,2.054224967956543,-27.4810791015625,-17.364501953125,-9.490966796875
2.3362499,9.880870819091797,-2.5043349266052246,2.1068975925445557,-25.6805419921875,-17.5933837890625,-8.941650390625
2.3387499,9.806650161743164,-2.516305923461914,2.161964178085327,-23.7884521484375,-17.8375244140625,-8.453369140625
2.3412498999999998,9.737217903137207,-2.516305923461914,2.205059766769409,-22.1710205078125,-17.5933837890625,-8.026123046875
2.3437499,9.672574996948242,-2.497152328491211,2.2457611560821533,-20.4620361328125,-17.5628662109375,-7.415771484375
2.3462499,9.612719535827637,-2.4684219360351562,2.27209734916687,-18.4783935546875,-17.6239013671875,-6.927490234375
2.3487499,9.560047149658203,-2.4181437492370605,2.276885747909546,-16.876220703125,-17.547607421875,-6.805419921875
2.3512499,9.514557838439941,-2.3582887649536133,2.27209734916687,-15.0604248046875,-17.547607421875,-6.34765625
2.3537499,9.464279174804688,-2.2888567447662354,2.2457611560821533,-13.3514404296875,-17.51708984375,-5.950927734375
2.3562499,9.418789863586426,-2.2002713680267334,2.2146365642547607,-11.932373046875,-17.6849365234375,-5.584716796875
2.3587499,9.368511199951172,-2.1045033931732178,2.188300371170044,-10.8795166015625,-17.8375244140625,-4.94384765625
2.3612499,9.318233489990234,-1.9967641830444336,2.1715409755706787,-9.7808837890625,-17.7154541015625,-4.7607421875
2.3637499,9.275136947631836,-1.8818424940109253,2.1739351749420166,-8.7738037109375,-17.9290771484375,-4.364013671875
2.3662499,9.23682975769043,-1.766920804977417,2.1930887699127197,-7.9498291015625,-17.7764892578125,-4.21142578125
2.3687499,9.205705642700195,-1.6543933153152466,2.22660756111145,-7.2784423828125,-17.8070068359375,-4.0130615234375
2.3712499,9.184157371520996,-1.5490485429763794,2.276885747909546,-7.01904296875,-17.8375244140625,-3.8909912109375
2.3737499,9.167398452758789,-1.4508862495422363,2.3295583724975586,-6.53076171875,-17.547607421875,-3.875732421875
2.3762499,9.153033256530762,-1.3694833517074585,2.389413356781006,-6.4849853515625,-17.3492431640625,-3.875732421875
2.3787499,9.138668060302734,-1.2976573705673218,2.449268341064453,-6.77490234375,-16.998291015625,-3.5552978515625
2.3812499,9.121908187866211,-1.2401964664459229,2.497152328491211,-7.0953369140625,-16.4337158203125,-3.41796875
2.3837498999999998,9.100360870361328,-1.1899182796478271,2.5306711196899414,-7.3089599609375,-15.7318115234375,-3.326416015625
2.3862499,9.057265281677246,-1.139639973640442,2.5450363159179688,-7.9498291015625,-15.1519775390625,-3.509521484375
2.3887499,9.009381294250488,-1.0821791887283325,2.535459518432617,-8.636474609375,-14.4500732421875,-3.4332275390625
2.3912499,8.944737434387207,-1.0199298858642578,2.5091233253479004,-9.307861328125,-13.9617919921875,-3.5552978515625
2.3937499,8.877699851989746,-0.9528923034667969,2.470816135406494,-10.223388671875,-13.336181640625,-3.631591796875
2.3962499,8.815450668334961,-0.8954314589500427,2.432508945465088,-10.8795166015625,-12.75634765625,-3.60107421875
2.3987499,8.765172004699707,-0.8595184087753296,2.387019157409668,-11.8255615234375,-12.3443603515625,-3.90625
2.4012499,8.724471092224121,-0.8451532125473022,2.343923568725586,-12.7410888671875,-11.7340087890625,-3.814697265625
2.4037498999999998,8.69334602355957,-0.8571242094039917,2.3104045391082764,-13.092041015625,-11.1236572265625,-3.7841796875
2.4062499,8.667010307312012,-0.8738836050033569,2.293645143508911,-13.9007568359375,-10.5743408203125,-3.7078857421875
2.4087499,8.635885238647461,-0.8930372595787048,2.298433542251587,-14.7705078125,-10.1318359375,-3.3416748046875
2.4112499,8.597578048706055,-0.9074024558067322,2.31758713722229,-15.7623291015625,-9.4146728515625,-3.448486328125
2.4137499,8.549694061279297,-0.9145850539207458,2.343923568725586,-16.815185546875,-8.8653564453125,-3.265380859375
2.4162499,8.492233276367188,-0.9241618514060974,2.3582887649536133,-17.4407958984375,-8.3160400390625,-3.143310546875
2.4187499,8.434772491455078,-0.9433154463768005,2.365471363067627,-18.24951171875,-7.50732421875,-2.960205078125
2.4212499,8.391676902770996,-0.9720458984375,2.3535003662109375,-18.6004638671875,-6.9732666015625,-2.4566650390625
2.4237499,8.360552787780762,-1.015141487121582,2.3271639347076416,-19.0582275390625,-6.561279296875,-2.0294189453125
2.4262499,8.35336971282959,-1.0630255937576294,2.2840683460235596,-19.7906494140625,-5.5694580078125,-1.7547607421875
2.4287499,8.360552787780762,-1.1252747774124146,2.2194249629974365,-20.355224609375,-4.8828125,-1.251220703125
2.4312499,8.370129585266113,-1.1803414821624756,2.145204782485962,-20.599365234375,-4.5013427734375,-0.9307861328125
2.4337499,8.382100105285645,-1.237802267074585,2.051830768585205,-21.026611328125,-3.5858154296875,-0.48828125
2.4362499,8.391676902770996,-1.2856862545013428,1.968033790588379,-21.54541015625,-2.9144287109375,-0.0762939453125
2.4387499,8.398859977722168,-1.316810965538025,1.8914192914962769,-21.9268798828125,-2.50244140625,0.457763671875
2.4412499,8.415618896484375,-1.3407529592514038,1.8339585065841675,-22.3388671875,-1.8463134765625,0.8087158203125
2.4437499,8.439560890197754,-1.3551181554794312,1.800439715385437,-22.7813720703125,-1.1749267578125,0.9307861328125
2.4462498999999998,8.470685958862305,-1.3670891523361206,1.7860745191574097,-23.193359375,-0.640869140625,1.4495849609375
2.4487499,8.513781547546387,-1.381454348564148,1.7908629179000854,-23.6663818359375,0.1678466796875,1.5106201171875
2.4512499,8.56645393371582,-1.403002142906189,1.8100165128707886,-23.8800048828125,0.885009765625,1.617431640625
2.4537499,8.62630844116211,-1.4293384552001953,1.843535304069519,-24.1546630859375,1.3427734375,2.01416015625
2.4562499,8.695740699768066,-1.4676456451416016,1.8818424940109253,-24.444580078125,2.01416015625,2.105712890625
2.4587499,8.765172004699707,-1.522712230682373,1.9321208000183105,-24.59716796875,2.716064453125,2.25830078125
2.4612499,8.834604263305664,-1.5945383310317993,1.9728221893310547,-24.2919921875,3.2196044921875,2.197265625
2.4637499,8.899248123168945,-1.6831238269805908,2.008735179901123,-24.139404296875,4.0435791015625,2.44140625
2.4662498999999998,8.951920509338379,-1.7932571172714233,2.03507137298584,-23.5443115234375,4.8828125,2.7008056640625
2.4687499,8.999804496765137,-1.9105730056762695,2.054224967956543,-22.6593017578125,5.4473876953125,2.9296875
2.4712499,9.028534889221191,-2.03507137298584,2.075772762298584,-22.003173828125,6.04248046875,3.2196044921875
2.4737499,9.059659004211426,-2.1595699787139893,2.0925323963165283,-21.0113525390625,6.8359375,3.3416748046875
2.4762499,9.074024200439453,-2.2816741466522217,2.1164743900299072,-19.683837890625,7.049560546875,4.0130615234375
2.4787499,9.097966194152832,-2.4013843536376953,2.1380221843719482,-18.341064453125,7.843017578125,4.57763671875
2.4812499,9.117119789123535,-2.5115175247192383,2.161964178085327,-16.6015625,8.514404296875,5.2032470703125
2.4837499,9.136273384094238,-2.626439332962036,2.1787235736846924,-14.7552490234375,8.8348388671875,5.6304931640625
2.4862499,9.153033256530762,-2.736572504043579,2.185906171798706,-12.75634765625,9.2926025390625,6.3323974609375
2.4887499,9.165003776550293,-2.8419175148010254,2.190694570541382,-10.6964111328125,9.6282958984375,7.2784423828125
2.4912499,9.174580574035645,-2.9496564865112305,2.183511972427368,-8.544921875,9.94873046875,7.9193115234375
2.4937499,9.184157371520996,-3.043030261993408,2.1763293743133545,-6.500244140625,10.3759765625,8.7127685546875
2.4962499,9.191340446472168,-3.1268274784088135,2.1547815799713135,-4.4097900390625,10.589599609375,9.3841552734375
2.4987499,9.193734169006348,-3.1914708614349365,2.123656988143921,-2.44140625,10.80322265625,10.040283203125
2.5012499,9.191340446472168,-3.2417490482330322,2.073378562927246,-0.640869140625,11.1083984375,10.80322265625
2.5037499,9.17936897277832,-3.2752678394317627,2.0207061767578125,1.2054443359375,11.199951171875,11.53564453125
2.5062499,9.155426979064941,-3.2968156337738037,1.9632453918457031,2.7008056640625,11.199951171875,12.359619140625
2.5087498999999998,9.124302864074707,-3.31118106842041,1.9177556037902832,4.1351318359375,11.1846923828125,12.7716064453125
2.5112499,9.0859956741333,-3.318363666534424,1.8794482946395874,5.2337646484375,11.260986328125,13.2598876953125
2.5137499,9.042900085449219,-3.3255462646484375,1.8411411046981812,6.2408447265625,11.3525390625,13.916015625
2.5162499,9.004592895507812,-3.332728862762451,1.7980455160140991,7.14111328125,11.16943359375,14.2822265625
2.5187499,8.971074104309082,-3.3446998596191406,1.7525556087493896,7.7362060546875,10.9100341796875,14.862060546875
2.5212499,8.937555313110352,-3.361459255218506,1.7094600200653076,8.148193359375,10.7574462890625,15.0604248046875
2.5237499,8.913613319396973,-3.375824451446533,1.6735470294952393,8.270263671875,10.6964111328125,15.045166015625
2.5262499,8.89685344696045,-3.3901896476745605,1.647210717201233,8.3465576171875,10.1776123046875,15.6097412109375
2.5287498999999998,8.882488250732422,-3.3901896476745605,1.625662922859192,8.1329345703125,9.8724365234375,15.7318115234375
2.5312499,8.875306129455566,-3.378218650817871,1.6160861253738403,7.7056884765625,9.7808837890625,15.80810546875
2.5337499,8.868123054504395,-3.354276657104492,1.599326729774475,7.50732421875,9.4451904296875,15.7623291015625
2.5362499,8.865729331970215,-3.3207578659057617,1.5825673341751099,6.805419921875,9.033203125,15.838623046875
2.5387499,8.863334655761719,-3.28963303565979,1.5490485429763794,6.3934326171875,8.6517333984375,15.8538818359375
2.5412499,8.868123054504395,-3.268085241317749,1.5107412338256836,5.3558349609375,8.331298828125,15.350341796875
2.5437499,8.884882926940918,-3.248931646347046,1.460463047027588,4.5166015625,8.0413818359375,14.862060546875
2.5462499,8.911218643188477,-3.2321722507476807,1.4221558570861816,3.2958984375,7.6904296875,14.7552490234375
2.5487499,8.947132110595703,-3.2178070545196533,1.3862427473068237,2.0904541015625,7.0343017578125,14.58740234375
