# Time (seconds),Accel_X,Accel_Y,Accel_Z,Gyro_X,Gyro_Y,Gyro_Z
0.0012499,8.59997272491455,-5.099649429321289,0.2346317619085312,15.93017578125,-8.85009765625,7.87353515625
0.0037499,8.638279914855957,-5.0900726318359375,0.23702596127986908,15.9759521484375,-8.85009765625,7.62939453125
0.0062499,8.674192428588867,-5.070919036865234,0.24420857429504395,15.869140625,-8.72802734375,7.62939453125
0.0087499,8.700529098510742,-5.04218864440918,0.24899697303771973,15.8233642578125,-8.7432861328125,7.5225830078125
0.0112499,8.7268648147583,-5.013458251953125,0.26336219906806946,15.625,-8.30078125,7.01904296875
0.0137499,8.757989883422852,-4.989516258239746,0.272938996553421,15.350341796875,-7.99560546875,6.8206787109375
0.016249899999999998,8.789113998413086,-4.972756862640381,0.2825157940387726,15.1214599609375,-7.5225830078125,6.7138671875
0.0187499,8.827422142028809,-4.960785865783691,0.2992752194404602,14.8468017578125,-7.537841796875,6.53076171875
0.021249900000000002,8.858546257019043,-4.95120906829834,0.304063618183136,14.5111083984375,-7.293701171875,6.0882568359375
0.023749899999999997,8.887276649475098,-4.93923807144165,0.31603461503982544,14.2974853515625,-7.0037841796875,5.55419921875
0.0262499,8.908824920654297,-4.922478675842285,0.3256114423274994,13.946533203125,-6.8206787109375,5.4931640625
0.028749900000000002,8.925583839416504,-4.910507678985596,0.33039984107017517,13.580322265625,-6.500244140625,5.2337646484375
0.031249899999999997,8.932766914367676,-4.90571928024292,0.33518823981285095,13.275146484375,-6.04248046875,5.157470703125
0.0337499,8.942343711853027,-4.90571928024292,0.33039984107017517,12.8173828125,-5.767822265625,4.5928955078125
0.0362499,8.947132110595703,-4.93923807144165,0.33039984107017517,12.5732421875,-5.157470703125,4.180908203125
0.0387499,8.944737434387207,-4.960785865783691,0.33039984107017517,12.3443603515625,-4.82177734375,3.7994384765625
0.0412499,8.942343711853027,-4.987122058868408,0.3423708379268646,12.176513671875,-4.4708251953125,3.692626953125
0.0437499,8.932766914367676,-5.013458251953125,0.3495534360408783,11.9781494140625,-4.21142578125,3.4332275390625
0.0462499,8.920795440673828,-5.044582843780518,0.35913026332855225,12.1307373046875,-4.058837890625,3.173828125
0.0487499,8.916007041931152,-5.070919036865234,0.3711012601852417,11.9781494140625,-3.8909912109375,2.899169921875
0.0512499,8.916007041931152,-5.094861030578613,0.38546648621559143,11.9171142578125,-3.7078857421875,2.8533935546875
0.053749899999999996,8.925583839416504,-5.114014625549316,0.3974374830722809,11.962890625,-3.4637451171875,2.38037109375
0.0562499,8.932766914367676,-5.137956619262695,0.4141969084739685,12.1307373046875,-3.0517578125,2.25830078125
0.0587499,8.932766914367676,-5.166687488555908,0.4213795065879822,12.39013671875,-3.0364990234375,2.0904541015625
0.061249899999999996,8.93037223815918,-5.202600479125977,0.43095630407333374,12.39013671875,-2.716064453125,2.0294189453125
0.0637499,8.923190116882324,-5.236119270324707,0.4429273009300232,12.4969482421875,-2.685546875,1.861572265625
0.0662499,8.923190116882324,-5.2672438621521,0.4620809257030487,12.9547119140625,-2.532958984375,1.617431640625
0.0687499,8.923190116882324,-5.2911858558654785,0.4836287498474121,13.1683349609375,-2.3040771484375,1.678466796875
0.0712499,8.932766914367676,-5.310339450836182,0.5147533416748047,13.5498046875,-2.288818359375,1.708984375
0.0737499,8.942343711853027,-5.324704647064209,0.5434837937355042,14.0838623046875,-2.288818359375,1.4190673828125
0.0762499,8.956708908081055,-5.341464042663574,0.5817909836769104,14.4500732421875,-2.1820068359375,1.3427734375
0.0787499,8.96389102935791,-5.353435039520264,0.6177040338516235,14.801025390625,-2.13623046875,1.1749267578125
0.0812499,8.966285705566406,-5.365406036376953,0.6488286852836609,15.1519775390625,-2.1820068359375,1.15966796875
0.0837499,8.956708908081055,-5.374982833862305,0.6751648783683777,15.6097412109375,-2.044677734375,1.15966796875
0.0862499,8.942343711853027,-5.3797712326049805,0.6967126727104187,15.960693359375,-1.9989013671875,0.8697509765625
0.0887499,8.920795440673828,-5.382165431976318,0.706289529800415,16.3116455078125,-1.8463134765625,0.91552734375
0.0912499,8.901641845703125,-5.382165431976318,0.7182605266571045,16.937255859375,-1.800537109375,0.885009765625
0.0937499,8.880094528198242,-5.372588634490967,0.7206547260284424,17.4407958984375,-1.8310546875,0.823974609375
0.0962499,8.860940933227539,-5.370194435119629,0.7230489253997803,17.7154541015625,-1.8768310546875,0.79345703125
0.0987499,8.844181060791016,-5.3582234382629395,0.7182605266571045,18.0511474609375,-2.0904541015625,0.640869140625
0.1012499,8.827422142028809,-5.355829238891602,0.7230489253997803,18.402099609375,-2.044677734375,0.518798828125
0.1037499,8.815450668334961,-5.343858242034912,0.7206547260284424,18.73779296875,-2.2125244140625,0.335693359375
0.1062499,8.808267593383789,-5.331887245178223,0.7230489253997803,18.890380859375,-2.2430419921875,0.457763671875
0.1087499,8.80587387084961,-5.319916248321533,0.7182605266571045,18.9666748046875,-2.50244140625,0.457763671875
0.1112499,8.801085472106934,-5.30076265335083,0.7182605266571045,18.9971923828125,-2.6702880859375,0.3204345703125
0.1137499,8.798690795898438,-5.286397457122803,0.7182605266571045,19.34814453125,-2.74658203125,-0.0457763671875
0.1162499,8.793902397155762,-5.2696380615234375,0.727837324142456,19.5159912109375,-2.99072265625,0.1373291015625
0.1187499,8.786720275878906,-5.252878665924072,0.7398083209991455,19.2108154296875,-3.1890869140625,-0.091552734375
0.1212499,8.78432559967041,-5.243301868438721,0.751779317855835,19.1497802734375,-3.35693359375,-0.1068115234375
0.1237499,8.774748802185059,-5.228936672210693,0.7637503147125244,19.012451171875,-3.7384033203125,-0.1068115234375
0.1262499,8.767566680908203,-5.212177276611328,0.768538773059845,19.04296875,-3.875732421875,-0.2288818359375
0.1287499,8.755595207214355,-5.190629482269287,0.7661445140838623,18.85986328125,-4.150390625,-0.396728515625
0.1312499,8.738836288452148,-5.1595048904418945,0.7637503147125244,18.463134765625,-4.2572021484375,-0.5645751953125
0.1337499,8.724471092224121,-5.1331682205200195,0.7589619159698486,18.096923828125,-4.7760009765625,-0.7781982421875
0.1362499,8.707711219787598,-5.1116204261779785,0.7541735172271729,17.5018310546875,-4.8980712890625,-0.91552734375
0.1387499,8.698134422302246,-5.097255229949951,0.7469909191131592,17.1356201171875,-4.9896240234375,-0.946044921875
0.1412499,8.683769226074219,-5.0900726318359375,0.7422025203704834,16.510009765625,-5.3253173828125,-1.3427734375
0.1437499,8.671798706054688,-5.0876784324646,0.7398083209991455,15.9454345703125,-5.5694580078125,-1.434326171875
0.1462499,8.655038833618164,-5.085284233093262,0.7398083209991455,15.3045654296875,-5.6610107421875,-1.3275146484375
0.1487499,8.640673637390137,-5.085284233093262,0.7469909191131592,14.7552490234375,-6.0882568359375,-1.8157958984375
0.1512499,8.62630844116211,-5.085284233093262,0.7541735172271729,14.2364501953125,-6.34765625,-1.9073486328125
0.1537499,8.614337921142578,-5.0876784324646,0.7637503147125244,13.641357421875,-6.4849853515625,-2.0294189453125
0.1562499,8.604761123657227,-5.0876784324646,0.768538773059845,13.12255859375,-6.8359375,-2.0904541015625
0.1587499,8.597578048706055,-5.085284233093262,0.7709329724311829,12.4053955078125,-6.89697265625,-2.471923828125
0.1612499,8.5903959274292,-5.078101634979248,0.7733271718025208,11.5814208984375,-7.0648193359375,-2.7618408203125
0.1637499,8.585607528686523,-5.0685248374938965,0.7757213711738586,10.9100341796875,-7.2784423828125,-2.6702880859375
0.1662499,8.573636054992676,-5.056553840637207,0.7829039692878723,10.1776123046875,-7.38525390625,-2.838134765625
0.1687499,8.552088737487793,-5.044582843780518,0.7876923680305481,9.5977783203125,-7.4462890625,-3.1585693359375
0.1712499,8.530540466308594,-5.039794445037842,0.7948749661445618,9.124755859375,-7.476806640625,-3.0670166015625
0.1737499,8.508993148803711,-5.037400245666504,0.7996633648872375,8.514404296875,-7.6446533203125,-3.3416748046875
0.17624990000000001,8.494627952575684,-5.037400245666504,0.8044517636299133,8.026123046875,-8.026123046875,-3.6468505859375
0.1787499,8.482656478881836,-5.044582843780518,0.8140285611152649,7.6751708984375,-8.2550048828125,-3.7384033203125
0.1812499,8.47786808013916,-5.051765441894531,0.8259995579719543,7.26318359375,-8.11767578125,-4.0740966796875
0.1837499,8.47786808013916,-5.063736438751221,0.8355764150619507,6.9122314453125,-8.331298828125,-4.180908203125
0.1862499,8.480262756347656,-5.080495834350586,0.8475474119186401,6.622314453125,-8.209228515625,-4.3487548828125
0.1887499,8.485051155090332,-5.094861030578613,0.8547300100326538,6.34765625,-8.1634521484375,-4.6234130859375
0.1912499,8.485051155090332,-5.109226226806641,0.8571242094039917,6.1492919921875,-8.514404296875,-4.8828125
0.1937499,8.480262756347656,-5.116408824920654,0.8547300100326538,6.195068359375,-8.36181640625,-4.8065185546875
0.1962499,8.473079681396484,-5.118803024291992,0.8523358106613159,5.9356689453125,-8.1024169921875,-5.0048828125
0.1987499,8.458714485168457,-5.116408824920654,0.849941611289978,6.1798095703125,-8.1329345703125,-5.0811767578125
0.2012499,8.44434928894043,-5.1116204261779785,0.849941611289978,6.134033203125,-8.1787109375,-5.126953125
0.2037499,8.427590370178223,-5.106832027435303,0.849941611289978,6.2713623046875,-8.11767578125,-5.340576171875
0.2062499,8.418013572692871,-5.092466831207275,0.8523358106613159,6.3934326171875,-7.87353515625,-5.4779052734375
0.20874990000000002,8.413225173950195,-5.082890033721924,0.8547300100326538,6.53076171875,-7.9193115234375,-5.4931640625
0.2112499,8.4108304977417,-5.063736438751221,0.8571242094039917,6.6375732421875,-7.781982421875,-5.4931640625
0.2137499,8.413225173950195,-5.044582843780518,0.849941611289978,6.8817138671875,-7.62939453125,-5.584716796875
0.2162499,8.413225173950195,-5.027823448181152,0.8475474119186401,7.1258544921875,-7.3699951171875,-5.5999755859375
0.2187499,8.40843677520752,-5.008669853210449,0.8451532125473022,7.4920654296875,-7.26318359375,-5.5694580078125
0.2212499,8.403648376464844,-4.994304656982422,0.8355764150619507,7.8125,-7.1868896484375,-5.615234375
0.2237499,8.394071578979492,-4.975151062011719,0.8307880163192749,8.087158203125,-7.049560546875,-5.706787109375
0.2262499,8.38688850402832,-4.955997467041016,0.8092401623725891,8.331298828125,-6.8359375,-5.5694580078125
0.2287499,8.374917984008789,-4.932055473327637,0.790086567401886,8.5296630859375,-6.7138671875,-5.7220458984375
0.2312499,8.365341186523438,-4.908113479614258,0.7733271718025208,8.941650390625,-6.40869140625,-5.7525634765625
0.2337499,8.358158111572266,-4.886565685272217,0.7541735172271729,9.307861328125,-6.134033203125,-5.5999755859375
0.2362499,8.346187591552734,-4.8722004890441895,0.7445967197418213,9.5062255859375,-5.9814453125,-5.4931640625
0.23874990000000001,8.341399192810059,-4.862623691558838,0.7374141216278076,9.7198486328125,-5.828857421875,-5.340576171875
0.2412499,8.339004516601562,-4.850652694702148,0.730231523513794,10.101318359375,-5.8441162109375,-5.1422119140625
0.2437499,8.341399192810059,-4.838681697845459,0.7326257228851318,10.07080078125,-5.31005859375,-5.18798828125
0.2462499,8.358158111572266,-4.812345504760742,0.7326257228851318,10.8795166015625,-4.8065185546875,-4.7607421875
0.2487499,8.370129585266113,-4.795586109161377,0.730231523513794,10.9710693359375,-4.7149658203125,-4.7454833984375
0.2512499,8.377311706542969,-4.778826713562012,0.7350199222564697,10.955810546875,-4.5318603515625,-4.730224609375
0.25374990000000003,8.382100105285645,-4.759673118591309,0.7326257228851318,11.0626220703125,-4.180908203125,-4.5623779296875
0.25624990000000003,8.382100105285645,-4.738125324249268,0.7350199222564697,11.1846923828125,-3.7994384765625,-4.08935546875
0.25874990000000003,8.379706382751465,-4.72376012802124,0.7422025203704834,11.199951171875,-3.448486328125,-4.1046142578125
0.26124990000000003,8.374917984008789,-4.707000732421875,0.7445967197418213,11.1083984375,-3.23486328125,-3.814697265625
0.26374990000000004,8.362946510314941,-4.69024133682251,0.7541735172271729,11.3067626953125,-3.021240234375,-3.5552978515625
0.26624990000000004,8.355764389038086,-4.675876140594482,0.7613561153411865,11.505126953125,-2.6702880859375,-3.4332275390625
0.26874990000000004,8.346187591552734,-4.659116744995117,0.7637503147125244,11.2152099609375,-2.4566650390625,-3.11279296875
0.27124990000000004,8.336610794067383,-4.649539470672607,0.7637503147125244,11.23046875,-2.3345947265625,-2.716064453125
0.27374990000000005,8.327033042907715,-4.644751071929932,0.7541735172271729,11.3677978515625,-1.89208984375,-2.3956298828125
0.27624990000000005,8.312667846679688,-4.642356872558594,0.7445967197418213,11.2152099609375,-1.7242431640625,-2.0904541015625
0.27874990000000005,8.29830265045166,-4.637568473815918,0.7350199222564697,11.1541748046875,-1.2969970703125,-1.739501953125
0.28124990000000005,8.283937454223633,-4.630385875701904,0.7182605266571045,11.3067626953125,-1.2359619140625,-1.52587890625
0.28374990000000005,8.274360656738281,-4.618414878845215,0.706289529800415,11.3525390625,-1.0986328125,-1.190185546875
0.28624990000000006,8.26478385925293,-4.608838081359863,0.6943184733390808,11.2152099609375,-0.8087158203125,-0.7781982421875
0.28874990000000006,8.252813339233398,-4.6040496826171875,0.6871358752250671,10.9100341796875,-0.6561279296875,-0.457763671875
0.2912499,8.250418663024902,-4.599261283874512,0.6871358752250671,10.8489990234375,-0.3662109375,-0.274658203125
0.2937499,8.245630264282227,-4.594472885131836,0.689530074596405,10.955810546875,-0.18310546875,0.06103515625
0.2962499,8.250418663024902,-4.599261283874512,0.6943184733390808,10.650634765625,-0.1373291015625,0.396728515625
0.2987499,8.255207061767578,-4.60165548324585,0.7015010714530945,10.467529296875,0.06103515625,0.762939453125
0.3012499,8.257601737976074,-4.608838081359863,0.706289529800415,10.589599609375,0.4425048828125,0.9765625
0.3037499,8.255207061767578,-4.618414878845215,0.7110779285430908,10.68115234375,0.5035400390625,1.312255859375
0.3062499,8.245630264282227,-4.620809078216553,0.7158663272857666,10.589599609375,0.8697509765625,1.800537109375
0.3087499,8.233659744262695,-4.618414878845215,0.7206547260284424,10.3759765625,1.03759765625,1.9378662109375
0.3112499,8.221688270568848,-4.616020679473877,0.7254431247711182,10.19287109375,0.9765625,2.25830078125
0.3137499,8.216899871826172,-4.608838081359863,0.7374141216278076,9.9639892578125,1.068115234375,2.532958984375
0.31624990000000003,8.219294548034668,-4.608838081359863,0.7398083209991455,9.9334716796875,1.1444091796875,2.7008056640625
0.31874990000000003,8.221688270568848,-4.608838081359863,0.7445967197418213,9.9029541015625,1.28173828125,3.2196044921875
0.32124990000000003,8.22887134552002,-4.618414878845215,0.7422025203704834,9.9639892578125,1.3427734375,3.47900390625
0.32374990000000003,8.2312650680542,-4.6255974769592285,0.7350199222564697,9.6893310546875,1.190185546875,3.814697265625
0.32624990000000004,8.24084186553955,-4.642356872558594,0.727837324142456,9.46044921875,1.3427734375,4.241943359375
0.32874990000000004,8.243236541748047,-4.656722068786621,0.7254431247711182,9.4757080078125,1.617431640625,4.5318603515625
0.33124990000000004,8.24084186553955,-4.671087741851807,0.7254431247711182,9.3994140625,1.7547607421875,4.82177734375
0.33374990000000004,8.24084186553955,-4.683058738708496,0.727837324142456,9.1552734375,1.6937255859375,5.3253173828125
0.33624990000000005,8.2312650680542,-4.685452938079834,0.730231523513794,8.941650390625,1.9683837890625,5.4931640625
0.33874990000000005,8.22887134552002,-4.685452938079834,0.730231523513794,8.6212158203125,2.3345947265625,5.9051513671875
0.34124990000000005,8.226476669311523,-4.69024133682251,0.7374141216278076,8.4686279296875,2.0599365234375,6.3934326171875
0.34374990000000005,8.233659744262695,-4.6950297355651855,0.7374141216278076,8.2244873046875,2.0751953125,6.6680908203125
0.34624990000000005,8.243236541748047,-4.711789131164551,0.7422025203704834,8.3770751953125,2.0904541015625,7.01904296875
0.34874990000000006,8.257601737976074,-4.738125324249268,0.7422025203704834,8.1024169921875,2.044677734375,7.4005126953125
0.35124990000000006,8.271966934204102,-4.759673118591309,0.7422025203704834,7.6446533203125,2.044677734375,7.6141357421875
0.3537499,8.281543731689453,-4.786009311676025,0.7350199222564697,7.62939453125,2.166748046875,7.965087890625
0.3562499,8.291120529174805,-4.797980308532715,0.7326257228851318,7.8125,2.105712890625,8.2855224609375
0.3587499,8.29590892791748,-4.809951305389404,0.7254431247711182,7.293701171875,2.1514892578125,8.3160400390625
0.3612499,8.29590892791748,-4.812345504760742,0.7254431247711182,6.9427490234375,2.3040771484375,8.697509765625
0.3637499,8.291120529174805,-4.817133903503418,0.727837324142456,6.7138671875,2.25830078125,8.9111328125
0.3662499,8.281543731689453,-4.8267107009887695,0.7398083209991455,6.6070556640625,2.1820068359375,9.1552734375
0.3687499,8.267178535461426,-4.841075897216797,0.7493851184844971,6.34765625,2.4566650390625,9.246826171875
0.3712499,8.250418663024902,-4.857835292816162,0.7637503147125244,6.072998046875,2.3193359375,9.429931640625
0.3737499,8.236053466796875,-4.874594688415527,0.7709329724311829,5.767822265625,2.471923828125,9.5062255859375
0.3762499,8.216899871826172,-4.896142482757568,0.7829039692878723,5.67626953125,2.593994140625,9.5672607421875
0.37874990000000003,8.20492935180664,-4.917690277099609,0.7852981686592102,5.4931640625,2.655029296875,9.674072265625
0.38124990000000003,8.185775756835938,-4.93923807144165,0.7829039692878723,5.3863525390625,2.4261474609375,9.6282958984375
0.38374990000000003,8.169015884399414,-4.955997467041016,0.768538773059845,5.4168701171875,2.6092529296875,9.674072265625
0.38624990000000003,8.157045364379883,-4.970362663269043,0.7541735172271729,5.1422119140625,2.7008056640625,9.490966796875
0.38874990000000004,8.152256965637207,-4.982333660125732,0.7469909191131592,4.8370361328125,2.6702880859375,9.552001953125
0.39124990000000004,8.154650688171387,-4.994304656982422,0.7469909191131592,4.7760009765625,2.62451171875,9.796142578125
0.39374990000000004,8.164227485656738,-5.008669853210449,0.7589619159698486,4.5623779296875,2.7313232421875,9.7198486328125
0.39624990000000004,8.17380428314209,-5.0254292488098145,0.7733271718025208,4.5623779296875,2.532958984375,9.552001953125
0.39874990000000005,8.188169479370117,-5.0469770431518555,0.7829039692878723,4.6234130859375,2.62451171875,9.552001953125
0.40124990000000005,8.192957878112793,-5.070919036865234,0.790086567401886,4.5013427734375,2.7923583984375,9.6435546875
0.40374990000000005,8.202534675598145,-5.102043628692627,0.790086567401886,4.364013671875,2.8533935546875,9.4757080078125
0.40624990000000005,8.200140953063965,-5.125985622406006,0.7948749661445618,4.39453125,2.899169921875,9.5062255859375
0.40874990000000005,8.200140953063965,-5.147533416748047,0.7996633648872375,4.4708251953125,2.9449462890625,9.429931640625
0.41124990000000006,8.195352554321289,-5.16429328918457,0.811634361743927,4.4403076171875,3.23486328125,9.33837890625
0.41374990000000006,8.185775756835938,-5.173870086669922,0.828393816947937,4.486083984375,3.2501220703125,9.3841552734375
0.41624990000000006,8.180987358093262,-5.185841083526611,0.8475474119186401,4.425048828125,3.1585693359375,9.4757080078125
0.4187499,8.17380428314209,-5.195417881011963,0.8667010068893433,4.0435791015625,3.326416015625,9.368896484375
0.4212499,8.166622161865234,-5.202600479125977,0.8810662031173706,4.1351318359375,3.509521484375,9.27734375
0.4237499,8.164227485656738,-5.212177276611328,0.8882488012313843,4.08935546875,3.631591796875,9.33837890625
0.4262499,8.166622161865234,-5.212177276611328,0.8906430602073669,4.2877197265625,3.96728515625,9.27734375
0.4287499,8.178592681884766,-5.214571475982666,0.8906430602073669,4.4403076171875,4.150390625,9.063720703125
0.4312499,8.192957878112793,-5.214571475982666,0.8882488012313843,4.45556640625,4.302978515625,9.1400146484375
0.4337499,8.212111473083496,-5.219359874725342,0.8906430602073669,4.5318603515625,4.180908203125,9.27734375
0.4362499,8.224082946777344,-5.224148273468018,0.8906430602073669,4.7149658203125,4.45556640625,9.124755859375
0.4387499,8.233659744262695,-5.238513469696045,0.8906430602073669,4.6844482421875,4.669189453125,8.941650390625
0.44124990000000003,8.236053466796875,-5.243301868438721,0.8858546018600464,4.791259765625,4.669189453125,8.880615234375
0.44374990000000003,8.236053466796875,-5.252878665924072,0.8810662031173706,5.0506591796875,4.791259765625,9.09423828125
0.44624990000000003,8.236053466796875,-5.257667064666748,0.8786720037460327,5.218505859375,4.8675537109375,9.063720703125
0.44874990000000003,8.236053466796875,-5.260061264038086,0.8810662031173706,5.5084228515625,4.852294921875,9.09423828125
0.45124990000000004,8.24084186553955,-5.262455463409424,0.8834604024887085,5.645751953125,5.0048828125,8.9111328125
0.45374990000000004,8.245630264282227,-5.262455463409424,0.8882488012313843,5.67626953125,5.1422119140625,9.246826171875
0.45624990000000004,8.257601737976074,-5.264849662780762,0.8954314589500427,5.7220458984375,5.4168701171875,9.490966796875
0.45874990000000004,8.26239013671875,-5.262455463409424,0.9002198576927185,5.615234375,5.6304931640625,9.2620849609375
0.46124990000000005,8.26239013671875,-5.264849662780762,0.9074024558067322,5.706787109375,5.645751953125,9.2620849609375
0.46374990000000005,8.26239013671875,-5.257667064666748,0.9074024558067322,5.9814453125,5.9051513671875,9.3536376953125
0.46624990000000005,8.259995460510254,-5.252878665924072,0.912190854549408,5.8441162109375,5.950927734375,9.7198486328125
0.46874990000000005,8.245630264282227,-5.243301868438721,0.9097966551780701,5.7525634765625,6.103515625,9.8419189453125
0.47124990000000005,8.233659744262695,-5.233725070953369,0.9050082564353943,5.7525634765625,6.256103515625,9.9029541015625
0.47374990000000006,8.224082946777344,-5.224148273468018,0.9002198576927185,5.7220458984375,6.34765625,10.040283203125
0.47624990000000006,8.214506149291992,-5.219359874725342,0.8882488012313843,5.4779052734375,6.500244140625,9.8724365234375
0.47874990000000006,8.212111473083496,-5.20978307723999,0.8762778043746948,5.3558349609375,6.591796875,9.9945068359375
0.4812499,8.214506149291992,-5.207388877868652,0.8643068075180054,5.3558349609375,6.77490234375,10.3607177734375
0.4837499,8.214506149291992,-5.202600479125977,0.849941611289978,5.3863525390625,6.6680908203125,10.5133056640625
0.4862499,8.219294548034668,-5.197812080383301,0.8379706144332886,5.279541015625,6.7138671875,10.6048583984375
0.4887499,8.221688270568848,-5.200206279754639,0.828393816947937,4.852294921875,6.866455078125,10.6048583984375
0.4912499,8.2312650680542,-5.197812080383301,0.8188169598579407,4.5166015625,7.0953369140625,10.8184814453125
0.4937499,8.233659744262695,-5.2049946784973145,0.8164227604866028,4.425048828125,7.080078125,11.077880859375
0.4962499,8.238448143005371,-5.207388877868652,0.8188169598579407,4.180908203125,7.2479248046875,11.0015869140625
0.4987499,8.24084186553955,-5.216965675354004,0.8259995579719543,3.936767578125,6.9122314453125,11.199951171875
0.5012499,8.245630264282227,-5.224148273468018,0.8379706144332886,3.7078857421875,7.01904296875,11.474609375
0.5037499000000001,8.248024940490723,-5.236119270324707,0.8475474119186401,3.4637451171875,7.1563720703125,11.2457275390625
0.5062499,8.255207061767578,-5.2480902671813965,0.8619126081466675,3.082275390625,7.232666015625,11.23046875
0.5087499000000001,8.26239013671875,-5.25527286529541,0.871489405632019,2.960205078125,7.0037841796875,11.6729736328125
0.5112499,8.271966934204102,-5.25527286529541,0.8834604024887085,2.7923583984375,7.110595703125,11.9781494140625
0.5137499,8.286332130432129,-5.252878665924072,0.8882488012313843,2.38037109375,7.232666015625,12.0391845703125
0.5162499,8.29590892791748,-5.245696067810059,0.9026140570640564,2.044677734375,7.415771484375,12.0391845703125
0.5187499,8.303091049194336,-5.250484466552734,0.9145850539207458,1.9378662109375,7.476806640625,11.962890625
0.5212499,8.29590892791748,-5.260061264038086,0.9265560507774353,1.3275146484375,7.5836181640625,11.962890625
0.5237499,8.281543731689453,-5.279214859008789,0.9361328482627869,1.4190673828125,7.38525390625,12.3748779296875
0.5262499,8.267178535461426,-5.295974254608154,0.9385270476341248,1.220703125,7.6141357421875,12.3291015625
0.5287499,8.245630264282227,-5.307945251464844,0.9313444495201111,1.0223388671875,7.568359375,12.4969482421875
0.5312499,8.2312650680542,-5.3127336502075195,0.9265560507774353,0.8087158203125,7.62939453125,12.5732421875
0.5337499,8.219294548034668,-5.315127849578857,0.912190854549408,0.67138671875,7.4310302734375,12.725830078125
0.5362499000000001,8.212111473083496,-5.317522048950195,0.9026140570640564,0.3662109375,7.4615478515625,12.8936767578125
0.5387499,8.212111473083496,-5.331887245178223,0.8954314589500427,0.1220703125,7.3089599609375,13.0767822265625
0.5412499000000001,8.212111473083496,-5.34625244140625,0.8954314589500427,-0.1220703125,7.3089599609375,13.1072998046875
0.5437499,8.20732307434082,-5.367800235748291,0.9002198576927185,-0.2288818359375,7.293701171875,13.18359375
0.5462499000000001,8.200140953063965,-5.39174222946167,0.9074024558067322,-0.244140625,7.14111328125,13.336181640625
0.5487499,8.188169479370117,-5.420472621917725,0.912190854549408,-0.1678466796875,7.1258544921875,13.3819580078125
0.5512499000000001,8.178592681884766,-5.442020416259766,0.9169792532920837,-0.18310546875,7.38525390625,13.36669921875
0.5537499,8.169015884399414,-5.4659624099731445,0.9217676520347595,-0.3204345703125,7.32421875,13.3819580078125
0.5562499000000001,8.159439086914062,-5.480327606201172,0.9289502501487732,-0.3814697265625,6.988525390625,13.4429931640625
0.5587499,8.147468566894531,-5.494692802429199,0.9457096457481384,-0.2288818359375,6.6986083984375,13.580322265625
0.5612499000000001,8.13789176940918,-5.504269599914551,0.9552865028381348,-0.244140625,6.622314453125,13.519287109375
0.5637499,8.133103370666504,-5.5114521980285645,0.9696516990661621,-0.3814697265625,6.4697265625,13.6871337890625
0.5662499000000001,8.135497093200684,-5.513846397399902,0.9768342971801758,-0.6561279296875,6.3018798828125,13.580322265625
0.5687499,8.149862289428711,-5.513846397399902,0.9864110946655273,-0.762939453125,6.2255859375,13.702392578125
0.5712499000000001,8.17380428314209,-5.5114521980285645,0.9888052940368652,-0.823974609375,6.2408447265625,13.580322265625
0.5737499,8.195352554321289,-5.504269599914551,0.993593692779541,-0.9307861328125,6.2255859375,13.61083984375
0.5762499000000001,8.216899871826172,-5.504269599914551,1.0007762908935547,-1.0528564453125,6.28662109375,13.5650634765625
0.5787499,8.238448143005371,-5.504269599914551,1.0127472877502441,-1.0833740234375,6.317138671875,13.5955810546875
0.5812499,8.252813339233398,-5.506663799285889,1.0223240852355957,-1.251220703125,6.34765625,13.5345458984375
0.5837499,8.267178535461426,-5.5114521980285645,1.0342950820922852,-1.373291015625,6.28662109375,13.5040283203125
0.5862499,8.283937454223633,-5.513846397399902,1.05105459690094,-1.373291015625,6.3018798828125,13.5040283203125
0.5887499,8.29830265045166,-5.523423194885254,1.0606313943862915,-1.495361328125,6.256103515625,13.5040283203125
0.5912499,8.317456245422363,-5.530605792999268,1.070208191871643,-1.5716552734375,6.317138671875,13.519287109375
0.5937499,8.33182144165039,-5.544970989227295,1.0749965906143188,-1.800537109375,6.378173828125,13.7481689453125
0.5962499,8.346187591552734,-5.564124584197998,1.0773907899856567,-2.0751953125,6.3323974609375,13.671875
0.5987499000000001,8.348581314086914,-5.580883979797363,1.0797849893569946,-2.0904541015625,6.3323974609375,13.5040283203125
0.6012499,8.348581314086914,-5.600037574768066,1.0821791887283325,-2.197265625,6.34765625,13.5650634765625
0.6037499000000001,8.35097599029541,-5.609614372253418,1.0845733880996704,-2.5177001953125,6.28662109375,13.5498046875
0.6062499,8.35097599029541,-5.616796970367432,1.094150185585022,-2.532958984375,6.5460205078125,13.641357421875
0.6087499000000001,8.355764389038086,-5.6191911697387695,1.1037269830703735,-2.7313232421875,6.622314453125,13.7481689453125
0.6112499,8.35336971282959,-5.628767967224121,1.1180921792984009,-2.8076171875,6.4544677734375,13.7176513671875
0.6137499000000001,8.348581314086914,-5.635950565338135,1.1276689767837524,-2.899169921875,6.6986083984375,13.73291015625
0.6162499,8.334216117858887,-5.647922039031982,1.1324573755264282,-2.9144287109375,6.866455078125,13.4429931640625
0.6187499000000001,8.307879447937012,-5.6455278396606445,1.139639973640442,-3.1890869140625,6.8511962890625,13.3209228515625
0.6212499,8.288725852966309,-5.6455278396606445,1.139639973640442,-3.5858154296875,6.7291259765625,13.6871337890625
0.6237499000000001,8.26478385925293,-5.631162166595459,1.1348515748977661,-3.997802734375,6.53076171875,13.61083984375
0.6262499,8.250418663024902,-5.628767967224121,1.1252747774124146,-3.9825439453125,6.5460205078125,13.36669921875
0.6287499000000001,8.24084186553955,-5.623979568481445,1.1109095811843872,-4.3182373046875,6.439208984375,13.1683349609375
0.6312499,8.22887134552002,-5.623979568481445,1.091755986213684,-4.5318603515625,6.195068359375,13.36669921875
0.6337499000000001,8.214506149291992,-5.633556365966797,1.0749965906143188,-4.8828125,6.28662109375,13.3514404296875
0.6362499,8.192957878112793,-5.638344764709473,1.0582371950149536,-5.0811767578125,6.1798095703125,12.6953125
0.6387499000000001,8.166622161865234,-5.652710437774658,1.048660397529602,-5.401611328125,5.9356689453125,12.8326416015625
0.6412499,8.13789176940918,-5.664681434631348,1.036689281463623,-5.5694580078125,5.706787109375,12.6953125
0.6437499,8.111555099487305,-5.681440830230713,1.0295066833496094,-5.584716796875,5.615234375,12.420654296875
0.6462499,8.092401504516602,-5.69580602645874,1.0271124839782715,-5.5389404296875,5.37109375,12.1307373046875
0.6487499,8.08282470703125,-5.710171222686768,1.0319008827209473,-5.615234375,5.18798828125,11.9781494140625
0.6512499,8.08043098449707,-5.722142219543457,1.0414776802062988,-5.5084228515625,5.096435546875,11.932373046875
0.6537499,8.075642585754395,-5.731719017028809,1.048660397529602,-5.401611328125,4.974365234375,11.627197265625
0.6562499,8.066065788269043,-5.7341132164001465,1.05105459690094,-5.67626953125,4.8675537109375,11.4593505859375
0.6587499,8.04930591583252,-5.7341132164001465,1.0558429956436157,-5.7525634765625,4.6844482421875,11.65771484375
0.6612499000000001,8.027758598327637,-5.729324817657471,1.0630255937576294,-5.9814453125,4.5166015625,11.474609375
0.6637499,7.979874134063721,-5.7125654220581055,1.072602391242981,-6.103515625,4.0283203125,11.260986328125
0.6662499000000001,7.955932140350342,-5.70777702331543,1.0654197931289673,-6.2408447265625,4.1351318359375,11.3067626953125
0.6687499,7.934384346008301,-5.702988624572754,1.0534487962722778,-6.2255859375,4.2877197265625,11.260986328125
0.6712499000000001,7.9176249504089355,-5.70777702331543,1.0319008827209473,-6.04248046875,3.8909912109375,11.3067626953125
0.6737499,7.898471355438232,-5.724536418914795,1.0127472877502441,-5.950927734375,3.72314453125,11.138916015625
0.6762499000000001,7.881711959838867,-5.748478412628174,1.0007762908935547,-5.889892578125,3.5247802734375,10.9710693359375
0.6787499,7.864952564239502,-5.774814605712891,0.9983820915222168,-5.5084228515625,3.1280517578125,11.0626220703125
0.6812499000000001,7.845798969268799,-5.793968200683594,1.0007762908935547,-5.218505859375,2.8076171875,10.986328125
0.6837499,7.838616371154785,-5.801150798797607,1.0079588890075684,-5.1116943359375,2.4871826171875,10.955810546875
0.6862499000000001,7.843404769897461,-5.793968200683594,1.0079588890075684,-5.1422119140625,2.50244140625,10.955810546875
0.6887499,7.862558364868164,-5.774814605712891,1.0055646896362305,-5.157470703125,2.655029296875,11.0626220703125
0.6912499000000001,7.893682956695557,-5.75326681137085,1.0031704902648926,-5.096435546875,2.532958984375,11.138916015625
0.6937499,7.922413349151611,-5.736507415771484,1.0007762908935547,-5.1727294921875,2.3040771484375,11.016845703125
0.6962499000000001,7.953537940979004,-5.724536418914795,1.0031704902648926,-5.37109375,2.288818359375,11.2762451171875
0.6987499,7.970297336578369,-5.729324817657471,1.0079588890075684,-5.340576171875,2.44140625,11.4593505859375
0.7012499000000001,7.977479934692383,-5.736507415771484,1.0127472877502441,-5.31005859375,2.5177001953125,11.7034912109375
0.7037499,7.975085735321045,-5.748478412628174,1.01753568649292,-5.3863525390625,2.593994140625,11.7645263671875
0.7062499,7.955932140350342,-5.758055210113525,1.015141487121582,-5.340576171875,2.5787353515625,11.6424560546875
0.7087499,7.936778545379639,-5.765237808227539,1.015141487121582,-5.4168701171875,2.62451171875,11.749267578125
0.7112499,7.915230751037598,-5.762843608856201,1.0103530883789062,-5.340576171875,2.5634765625,11.9781494140625
0.7137499,7.905653953552246,-5.762843608856201,1.0079588890075684,-5.5084228515625,2.62451171875,12.2528076171875
0.7162499,7.898471355438232,-5.762843608856201,1.0103530883789062,-5.828857421875,2.8839111328125,12.176513671875
0.7187499,7.8960771560668945,-5.767632007598877,1.015141487121582,-5.8135986328125,2.9754638671875,12.3443603515625
0.7212499,7.898471355438232,-5.7772088050842285,1.0223240852355957,-5.889892578125,2.899169921875,12.6800537109375
0.7237499000000001,7.893682956695557,-5.789179801940918,1.0295066833496094,-5.9356689453125,2.9144287109375,12.5579833984375
0.7262499,7.886500358581543,-5.7987565994262695,1.0319008827209473,-5.92041015625,2.9449462890625,12.8173828125
0.7287499000000001,7.8745293617248535,-5.815515995025635,1.0342950820922852,-5.859375,2.685546875,12.969970703125
0.7312499,7.862558364868164,-5.8203043937683105,1.036689281463623,-5.767822265625,2.9144287109375,13.0462646484375
0.7337499000000001,7.848193168640137,-5.8203043937683105,1.039083480834961,-5.6610107421875,3.204345703125,13.214111328125
0.7362499,7.843404769897461,-5.815515995025635,1.0438719987869263,-5.7830810546875,3.173828125,13.214111328125
0.7387499000000001,7.833827972412109,-5.805939197540283,1.048660397529602,-5.767822265625,3.11279296875,13.0767822265625
0.7412499,7.829039573669434,-5.796362400054932,1.05105459690094,-5.7525634765625,3.0059814453125,13.0462646484375
0.7437499000000001,7.814674377441406,-5.793968200683594,1.0414776802062988,-5.4931640625,2.9754638671875,13.031005859375
0.7462499,7.797914981842041,-5.793968200683594,1.0295066833496094,-5.2337646484375,3.0059814453125,13.0462646484375
0.7487499000000001,7.773972988128662,-5.796362400054932,1.0055646896362305,-4.9896240234375,2.9144287109375,13.1683349609375
0.7512499,7.745242595672607,-5.803544998168945,0.9888052940368652,-5.1727294921875,3.0364990234375,13.1988525390625
0.7537499000000001,7.714118003845215,-5.810727596282959,0.9696516990661621,-4.9285888671875,2.74658203125,13.031005859375
0.7562499,7.687781810760498,-5.817910194396973,0.9481038451194763,-4.5318603515625,2.38037109375,12.9547119140625
0.7587499000000001,7.666234016418457,-5.829881191253662,0.9217676520347595,-4.4097900390625,2.2125244140625,12.9547119140625
0.7612499,7.649474620819092,-5.841852188110352,0.8906430602073669,-4.2724609375,2.227783203125,13.1988525390625
0.7637499000000001,7.642292022705078,-5.851428985595703,0.8547300100326538,-4.1961669921875,2.2125244140625,13.3514404296875
0.7662499,7.630321025848389,-5.861005783081055,0.8259995579719543,-3.8604736328125,1.89208984375,13.3819580078125
0.7687499000000001,7.625532627105713,-5.870582580566406,0.8068459630012512,-3.7994384765625,2.044677734375,13.24462890625
0.7712499,7.613561630249023,-5.872976779937744,0.7996633648872375,-3.7078857421875,1.8157958984375,13.4124755859375
0.7737499,7.608773231506348,-5.875370979309082,0.7996633648872375,-3.47900390625,1.556396484375,13.6260986328125
0.7762499,7.6111674308776855,-5.870582580566406,0.8068459630012512,-3.4332275390625,1.739501953125,13.580322265625
0.7787499,7.615955829620361,-5.863399982452393,0.8188169598579407,-3.4942626953125,1.617431640625,13.6260986328125
0.7812499,7.630321025848389,-5.858611583709717,0.8307880163192749,-3.41796875,1.3427734375,13.5498046875
0.7837499,7.647080421447754,-5.856217384338379,0.8403648138046265,-3.814697265625,1.5411376953125,13.4735107421875
0.7862499000000001,7.663839817047119,-5.853823184967041,0.8331822156906128,-3.631591796875,1.4801025390625,13.671875
0.7887499,7.675810813903809,-5.846640586853027,0.8188169598579407,-3.4637451171875,1.3580322265625,13.7786865234375
0.7912499000000001,7.68538761138916,-5.841852188110352,0.7996633648872375,-3.662109375,1.2969970703125,13.7176513671875
0.7937499,7.68538761138916,-5.839457988739014,0.790086567401886,-4.0740966796875,1.4495849609375,13.7786865234375
0.7962499000000001,7.680599212646484,-5.849034786224365,0.7876923680305481,-4.1961669921875,1.251220703125,13.9007568359375
0.7987499,7.666234016418457,-5.863399982452393,0.790086567401886,-4.4708251953125,1.3275146484375,14.2059326171875
0.8012499000000001,7.65186882019043,-5.884947776794434,0.7852981686592102,-4.5928955078125,1.3885498046875,14.0228271484375
0.8037499,7.6351094245910645,-5.9088897705078125,0.7709329724311829,-4.8828125,1.5106201171875,14.1143798828125
0.8062499000000001,7.623138427734375,-5.9304375648498535,0.7493851184844971,-4.7607421875,1.40380859375,14.0228271484375
0.8087499,7.615955829620361,-5.947196960449219,0.727837324142456,-4.6234130859375,1.03759765625,14.09912109375
0.8112499000000001,7.613561630249023,-5.959167957305908,0.7086837291717529,-4.669189453125,0.946044921875,13.946533203125
0.8137499,7.618350028991699,-5.961562156677246,0.6991068720817566,-4.7149658203125,1.28173828125,13.9007568359375
0.8162499000000001,7.627926826477051,-5.95677375793457,0.6991068720817566,-4.94384765625,1.28173828125,13.9923095703125
0.8187499,7.644686222076416,-5.954379558563232,0.7038952708244324,-5.31005859375,1.312255859375,13.946533203125
0.8212499000000001,7.663839817047119,-5.95677375793457,0.7110779285430908,-5.340576171875,1.28173828125,13.824462890625
0.8237499,7.687781810760498,-5.963956356048584,0.7254431247711182,-5.31005859375,1.312255859375,13.7939453125
0.8262499000000001,7.709329605102539,-5.980715751647949,0.7469909191131592,-5.2947998046875,1.4495849609375,13.702392578125
0.8287499,7.735665798187256,-6.004657745361328,0.7637503147125244,-5.3253173828125,1.708984375,13.24462890625
0.8312499000000001,7.757213592529297,-6.028599739074707,0.7829039692878723,-5.1422119140625,1.5716552734375,13.3819580078125
0.8337499,7.781155586242676,-6.054935932159424,0.7924807667732239,-4.8370361328125,1.556396484375,13.4124755859375
0.8362499,7.805097579956055,-6.078877925872803,0.7948749661445618,-4.852294921875,1.77001953125,13.3209228515625
0.8387499,7.824251174926758,-6.100425720214844,0.7972691655158997,-4.7760009765625,1.77001953125,13.275146484375
0.8412499,7.843404769897461,-6.121973514556885,0.790086567401886,-4.547119140625,1.983642578125,13.427734375
0.8437499,7.8529815673828125,-6.141127586364746,0.7829039692878723,-4.6234130859375,2.1209716796875,13.3209228515625
0.8462499,7.864952564239502,-6.160281181335449,0.7733271718025208,-4.45556640625,2.3651123046875,13.153076171875
0.8487499000000001,7.8745293617248535,-6.174646377563477,0.7661445140838623,-4.425048828125,2.532958984375,13.3209228515625
0.8512499,7.881711959838867,-6.18182897567749,0.7637503147125244,-4.241943359375,2.685546875,13.4429931640625
0.8537499000000001,7.888894557952881,-6.184223175048828,0.7565677165985107,-4.2266845703125,2.99072265625,13.275146484375
0.8562499,7.90086555480957,-6.186617374420166,0.7493851184844971,-4.1961669921875,3.082275390625,13.1683349609375
0.8587499000000001,7.910442352294922,-6.186617374420166,0.7422025203704834,-4.0283203125,3.23486328125,13.3056640625
0.8612499,7.922413349151611,-6.189011573791504,0.7445967197418213,-4.1656494140625,3.4332275390625,12.847900390625
0.8637499000000001,7.934384346008301,-6.196194171905518,0.751779317855835,-4.241943359375,3.7841796875,12.9241943359375
0.8662499,7.943961143493652,-6.200982570648193,0.7589619159698486,-4.1351318359375,3.875732421875,12.8631591796875
0.8687499000000001,7.948749542236328,-6.212953567504883,0.7589619159698486,-3.8604736328125,4.0283203125,12.725830078125
0.8712499,7.953537940979004,-6.217741966247559,0.751779317855835,-3.72314453125,4.150390625,12.3291015625
0.8737499000000001,7.955932140350342,-6.236895561218262,0.7326257228851318,-3.6773681640625,4.57763671875,12.0849609375
0.8762499,7.953537940979004,-6.253654956817627,0.7254431247711182,-3.3721923828125,4.5318603515625,11.8255615234375
0.8787499000000001,7.951143741607666,-6.27280855178833,0.7230489253997803,-3.3111572265625,4.852294921875,11.627197265625
0.8812499,7.948749542236328,-6.296750545501709,0.7206547260284424,-3.509521484375,5.035400390625,11.3677978515625
0.8837499000000001,7.948749542236328,-6.31829833984375,0.7182605266571045,-3.143310546875,5.2642822265625,11.3677978515625
0.8862499,7.94635534286499,-6.335057735443115,0.7158663272857666,-3.2196044921875,5.401611328125,11.2152099609375
0.8887499000000001,7.94635534286499,-6.3518171310424805,0.7110779285430908,-3.3416748046875,5.79833984375,10.589599609375
0.8912499,7.936778545379639,-6.36378812789917,0.7134721279144287,-3.1585693359375,6.011962890625,10.5743408203125
0.8937499000000001,7.929595947265625,-6.3733649253845215,0.7110779285430908,-3.0975341796875,5.9967041015625,10.2691650390625
0.8962499,7.910442352294922,-6.392518520355225,0.7158663272857666,-2.9144287109375,6.2255859375,9.918212890625
0.8987499,7.898471355438232,-6.406883716583252,0.7206547260284424,-2.7618408203125,6.3629150390625,9.6282958984375
0.9012499,7.884106159210205,-6.423643112182617,0.7254431247711182,-2.62451171875,6.28662109375,9.2926025390625
0.9037499,7.876923561096191,-6.435614109039307,0.730231523513794,-2.38037109375,6.3629150390625,9.0789794921875
0.9062499,7.864952564239502,-6.4380083084106445,0.7326257228851318,-2.25830078125,6.7138671875,8.7890625
0.9087499,7.85537576675415,-6.447585105895996,0.7350199222564697,-2.1514892578125,6.9732666015625,8.2244873046875
0.9112499000000001,7.843404769897461,-6.457161903381348,0.7326257228851318,-2.0294189453125,7.1258544921875,7.843017578125
0.9137499,7.829039573669434,-6.4834980964660645,0.7422025203704834,-1.9073486328125,7.4310302734375,7.4005126953125
0.9162499000000001,7.819462776184082,-6.509834289550781,0.751779317855835,-1.52587890625,7.2784423828125,7.26318359375
0.9187499,7.8098859786987305,-6.540958881378174,0.7709329724311829,-1.1444091796875,7.354736328125,6.6986083984375
0.9212499000000001,7.807491779327393,-6.574477672576904,0.7972691655158997,-1.129150390625,7.6904296875,6.0882568359375
0.9237499,7.8098859786987305,-6.600813865661621,0.8188169598579407,-0.6866455078125,7.6141357421875,6.072998046875
0.9262499000000001,7.82185697555542,-6.62236213684082,0.8379706144332886,-0.6103515625,7.6141357421875,5.5389404296875
0.9287499,7.8314337730407715,-6.63433313369751,0.8475474119186401,-0.213623046875,7.904052734375,5.401611328125
0.9312499000000001,7.843404769897461,-6.643909931182861,0.8475474119186401,-0.0152587890625,8.1634521484375,4.8980712890625
0.9337499,7.841010570526123,-6.648698329925537,0.8427590131759644,0.0457763671875,8.148193359375,4.39453125
0.9362499000000001,7.833827972412109,-6.646304130554199,0.8307880163192749,0.2288818359375,8.0413818359375,4.1656494140625
0.9387499,7.819462776184082,-6.641515731811523,0.8140285611152649,0.2593994140625,8.1329345703125,3.5247802734375
0.9412499000000001,7.802703380584717,-6.631938934326172,0.7972691655158997,0.3204345703125,8.2244873046875,2.8533935546875
0.9437499,7.783549785614014,-6.627150535583496,0.790086567401886,0.335693359375,8.23974609375,2.5177001953125
0.9462499000000001,7.762001991271973,-6.62236213684082,0.790086567401886,0.3662109375,8.270263671875,2.0599365234375
0.9487499,7.740454196929932,-6.629544734954834,0.7996633648872375,0.213623046875,8.2550048828125,1.3885498046875
0.9512499000000001,7.716512203216553,-6.636727333068848,0.8212111592292786,0.2899169921875,8.1787109375,0.6866455078125
0.9537499,7.694964408874512,-6.655880928039551,0.8475474119186401,0.213623046875,8.087158203125,0.091552734375
0.9562499000000001,7.675810813903809,-6.672640323638916,0.8762778043746948,0.274658203125,7.9498291015625,-0.42724609375
0.9587499,7.654263019561768,-6.691793918609619,0.9050082564353943,0.213623046875,7.8582763671875,-0.732421875
0.9612499,7.632715225219727,-6.71334171295166,0.9241618514060974,0.2593994140625,7.965087890625,-1.3275146484375
0.9637499,7.608773231506348,-6.737283706665039,0.9289502501487732,0.0457763671875,7.9345703125,-1.8768310546875
0.9662499,7.580042362213135,-6.766014099121094,0.9241618514060974,0.1220703125,7.9803466796875,-2.38037109375
0.9687499,7.544129371643066,-6.797138690948486,0.9074024558067322,0.0762939453125,7.8582763671875,-2.7923583984375
0.9712499,7.501033782958984,-6.825869083404541,0.8906430602073669,0.0762939453125,7.4005126953125,-3.0364990234375
0.9737499000000001,7.46033239364624,-6.852205276489258,0.8619126081466675,-0.1220703125,7.26318359375,-3.5400390625
0.9762499,7.417236804962158,-6.871358871459961,0.8403648138046265,-0.1373291015625,7.049560546875,-3.875732421875
0.9787499000000001,7.371747016906738,-6.878541469573975,0.811634361743927,-0.274658203125,6.8817138671875,-4.180908203125
0.9812499,7.326257228851318,-6.8809356689453125,0.7852981686592102,-0.518798828125,6.6070556640625,-4.3182373046875
0.9837499000000001,7.2783732414245605,-6.878541469573975,0.7565677165985107,-0.640869140625,6.3018798828125,-4.730224609375
0.9862499,7.230489253997803,-6.876147270202637,0.7374141216278076,-0.9002685546875,6.0577392578125,-4.974365234375
0.9887499000000001,7.184999465942383,-6.876147270202637,0.7134721279144287,-0.9613037109375,5.7525634765625,-5.0506591796875
0.9912499,7.146692276000977,-6.876147270202637,0.6967126727104187,-1.2969970703125,5.2947998046875,-5.55419921875
0.9937499000000001,7.110779285430908,-6.873753070831299,0.6799532771110535,-1.373291015625,4.8828125,-5.5694580078125
0.9962499,7.086836814880371,-6.868964672088623,0.667982280254364,-1.46484375,4.4097900390625,-5.7373046875
0.9987499000000001,7.067683219909668,-6.861782073974609,0.6584054827690125,-1.9378662109375,4.2572021484375,-6.0272216796875
1.0012499,7.0557122230529785,-6.84981107711792,0.6488286852836609,-2.3193359375,3.9520263671875,-6.011962890625
1.0037498999999999,7.046135425567627,-6.833051681518555,0.6440402865409851,-2.410888671875,3.448486328125,-5.8746337890625
1.0062499,7.041347026824951,-6.8162922859191895,0.6368576288223267,-2.74658203125,3.204345703125,-5.55419921875
1.0087499,7.036558628082275,-6.7923502922058105,0.6320692300796509,-3.173828125,2.9144287109375,-5.706787109375
1.0112499,7.043741226196289,-6.763619899749756,0.6248866319656372,-3.387451171875,2.5787353515625,-5.4931640625
1.0137498999999999,7.060500621795654,-6.72531270980835,0.6224924325942993,-3.7994384765625,2.62451171875,-5.218505859375
1.0162499,7.084442615509033,-6.682217121124268,0.6248866319656372,-4.5928955078125,2.532958984375,-5.0201416015625
1.0187499,7.113173484802246,-6.636727333068848,0.629675030708313,-4.8980712890625,2.3345947265625,-4.82177734375
1.0212499,7.144298076629639,-6.593631267547607,0.6344634294509888,-4.9285888671875,2.2430419921875,-4.33349609375
1.0237498999999999,7.173028469085693,-6.552929878234863,0.6368576288223267,-5.37109375,2.2430419921875,-4.150390625
1.0262498999999998,7.2113356590271,-6.509834289550781,0.6344634294509888,-5.767822265625,2.0751953125,-3.6468505859375
1.0287499,7.254431247711182,-6.471527099609375,0.6272808313369751,-5.7373046875,2.0294189453125,-3.2501220703125
1.0312499,7.3023152351379395,-6.428431510925293,0.6153098344802856,-5.6610107421875,1.617431640625,-2.777099609375
1.0337498999999999,7.354987621307373,-6.382941722869873,0.5985504388809204,-5.9356689453125,1.6326904296875,-2.288818359375
1.0362498999999998,7.412448406219482,-6.332663536071777,0.5889736413955688,-6.16455078125,1.4495849609375,-1.5716552734375
1.0387499,7.465120792388916,-6.279991149902344,0.5746083855628967,-6.40869140625,1.4190673828125,-1.007080078125
1.0412499,7.5201873779296875,-6.222530364990234,0.5578489899635315,-6.195068359375,1.3275146484375,-0.3509521484375
1.0437499,7.565677165985107,-6.167463779449463,0.5530605912208557,-6.5155029296875,1.0986328125,0.213623046875
1.0462498999999998,7.60637903213501,-6.1052141189575195,0.5339069962501526,-6.6986083984375,1.1444091796875,0.7476806640625
1.0487499,7.637503623962402,-6.045359134674072,0.5291185975074768,-6.8511962890625,0.9918212890625,1.5411376953125
1.0512499,7.666234016418457,-5.983109951019287,0.5123591423034668,-7.0953369140625,0.8087158203125,2.1514892578125
1.0537499,7.687781810760498,-5.925649166107178,0.49559974670410156,-7.415771484375,0.640869140625,2.838134765625
1.0562498999999999,7.714118003845215,-5.872976779937744,0.4692635238170624,-7.75146484375,0.9002685546875,3.4332275390625
1.0587499,7.738059997558594,-5.825092792510986,0.4405331015586853,-8.1024169921875,0.701904296875,3.997802734375
1.0612499,7.771578788757324,-5.7772088050842285,0.40701428055763245,-8.6517333984375,0.640869140625,4.57763671875
1.0637499,7.8098859786987305,-5.726930618286133,0.3711012601852417,-9.002685546875,0.6103515625,5.2032470703125
1.0662498999999999,7.850587368011475,-5.674258232116699,0.33279404044151306,-9.6282958984375,0.3814697265625,5.706787109375
1.0687499,7.886500358581543,-5.621585369110107,0.3016694188117981,-10.3302001953125,0.30517578125,6.2103271484375
1.0712499,7.920019149780273,-5.578489780426025,0.2753331959247589,-10.8489990234375,0.4730224609375,6.500244140625
1.0737499,7.948749542236328,-5.547365188598633,0.2585737705230713,-11.2457275390625,0.4730224609375,7.1258544921875
1.0762498999999999,7.972691535949707,-5.51624059677124,0.24420857429504395,-12.0086669921875,0.4730224609375,7.3699951171875
1.0787499,7.994239330291748,-5.497087001800537,0.2346317619085312,-12.6190185546875,0.4730224609375,7.843017578125
1.0812499,8.01339340209961,-5.475539207458496,0.22026655077934265,-13.5650634765625,0.3509521484375,8.2855224609375
1.0837499,8.02536392211914,-5.456385612487793,0.2059013396501541,-14.8162841796875,0.2288818359375,9.2315673828125
1.0862498999999999,8.01339340209961,-5.463568210601807,0.2082955539226532,-15.7012939453125,0.274658203125,9.6588134765625
1.0887499,7.99184513092041,-5.473145008087158,0.20350714027881622,-16.5863037109375,0.1678466796875,10.1776123046875
1.0912499,7.967903137207031,-5.489904403686523,0.2059013396501541,-17.02880859375,0.1068115234375,10.4522705078125
1.0937499,7.9415669441223145,-5.509057998657227,0.2059013396501541,-17.8680419921875,-0.0152587890625,10.7421875
1.0962498999999999,7.927201747894287,-5.52821159362793,0.2082955539226532,-18.4478759765625,0.0457763671875,11.3983154296875
1.0987498999999998,7.908048152923584,-5.547365188598633,0.21308395266532898,-19.012451171875,0.091552734375,11.993408203125
1.1012499,7.898471355438232,-5.568912982940674,0.21308395266532898,-19.5770263671875,0.30517578125,12.603759765625
1.1037499,7.884106159210205,-5.585672378540039,0.21787235140800476,-20.050048828125,0.3814697265625,12.9241943359375
1.1062499,7.864952564239502,-5.600037574768066,0.21787235140800476,-20.4315185546875,0.3509521484375,13.397216796875
1.1087498999999998,7.838616371154785,-5.602431774139404,0.22266076505184174,-21.0418701171875,0.4119873046875,13.73291015625
1.1112499,7.805097579956055,-5.595249176025391,0.2298433631658554,-21.30126953125,0.42724609375,14.22119140625
1.1137499,7.771578788757324,-5.588066577911377,0.23702596127986908,-21.1334228515625,0.54931640625,14.617919921875
1.1162499,7.733271598815918,-5.578489780426025,0.24899697303771973,-21.4691162109375,0.396728515625,15.106201171875
1.1187498999999999,7.6997528076171875,-5.578489780426025,0.26575639843940735,-21.4996337890625,0.5035400390625,15.106201171875
1.1212499,7.663839817047119,-5.588066577911377,0.2849099934101105,-21.636962890625,0.701904296875,14.9993896484375
1.1237499,7.627926826477051,-5.600037574768066,0.31124621629714966,-21.5911865234375,0.640869140625,15.44189453125
1.1262499,7.599195957183838,-5.614402770996094,0.33518823981285095,-21.17919921875,0.579833984375,15.9912109375
1.1287498999999999,7.577648162841797,-5.628767967224121,0.3519476354122162,-20.7672119140625,0.732421875,16.05224609375
1.1312499,7.5632829666137695,-5.633556365966797,0.36152446269989014,-20.233154296875,0.9307861328125,16.11328125
1.1337499,7.560888767242432,-5.638344764709473,0.36152446269989014,-19.7601318359375,0.91552734375,16.4794921875
1.1362499,7.558494567871094,-5.631162166595459,0.3495534360408783,-19.1650390625,0.701904296875,16.754150390625
1.1387498999999999,7.560888767242432,-5.621585369110107,0.33039984107017517,-18.6309814453125,1.068115234375,16.9219970703125
1.1412499,7.5632829666137695,-5.60722017288208,0.3064578175544739,-17.822265625,1.068115234375,17.120361328125
1.1437499,7.568071365356445,-5.585672378540039,0.2825157940387726,-17.15087890625,1.220703125,17.3492431640625
1.1462499,7.575253963470459,-5.566518783569336,0.2753331959247589,-16.5557861328125,1.2359619140625,17.822265625
1.1487498999999999,7.592013359069824,-5.544970989227295,0.2801215946674347,-15.80810546875,1.46484375,17.9443359375
1.1512499,7.620744228363037,-5.523423194885254,0.3016694188117981,-14.9688720703125,1.800537109375,18.2647705078125
1.1537499,7.661445617675781,-5.501875400543213,0.3256114423274994,-14.4805908203125,2.105712890625,18.6767578125
1.1562499,7.716512203216553,-5.475539207458496,0.3495534360408783,-13.85498046875,2.593994140625,18.890380859375
1.1587498999999999,7.7763671875,-5.4444146156311035,0.3663128614425659,-13.2293701171875,2.99072265625,19.073486328125
1.1612498999999998,7.836222171783447,-5.408501625061035,0.3926490843296051,-12.664794921875,3.3416748046875,19.4549560546875
1.1637499,7.893682956695557,-5.370194435119629,0.43095630407333374,-11.7645263671875,3.662109375,19.744873046875
1.1662499,7.943961143493652,-5.331887245178223,0.4836287498474121,-11.23046875,3.997802734375,19.744873046875
1.1687499,7.996633529663086,-5.298368453979492,0.5530605912208557,-10.43701171875,4.2877197265625,19.8822021484375
1.1712498999999998,8.04691219329834,-5.274426460266113,0.6272808313369751,-9.490966796875,4.791259765625,20.1568603515625
1.1737499,8.106766700744629,-5.262455463409424,0.706289529800415,-8.7127685546875,5.462646484375,20.294189453125
1.1762499,8.169015884399414,-5.257667064666748,0.7852981686592102,-8.270263671875,6.103515625,20.263671875
1.1787499,8.238448143005371,-5.264849662780762,0.8571242094039917,-7.62939453125,6.6680908203125,20.32470703125
1.1812498999999999,8.307879447937012,-5.272032260894775,0.9241618514060974,-7.110595703125,7.3394775390625,20.56884765625
1.1837499,8.367734909057617,-5.286397457122803,0.9768342971801758,-6.4697265625,8.026123046875,20.7061767578125
1.1862499,8.413225173950195,-5.307945251464844,1.01753568649292,-5.55419921875,8.60595703125,20.782470703125
1.1887499,8.44195556640625,-5.331887245178223,1.048660397529602,-4.8980712890625,9.490966796875,20.56884765625
1.1912498999999999,8.446743965148926,-5.365406036376953,1.070208191871643,-4.0130615234375,10.31494140625,20.7977294921875
1.1937499,8.439560890197754,-5.398924827575684,1.094150185585022,-2.8533935546875,10.986328125,20.8740234375
1.1962499,8.4108304977417,-5.43723201751709,1.1252747774124146,-1.9073486328125,11.5814208984375,20.843505859375
1.1987499,8.382100105285645,-5.47075080871582,1.161187767982483,-0.8544921875,12.1002197265625,20.8587646484375
1.2012498999999999,8.355764389038086,-5.506663799285889,1.2042834758758545,0.18310546875,12.4969482421875,20.81298828125
1.2037499,8.341399192810059,-5.5329999923706055,1.2521674633026123,1.220703125,13.0157470703125,20.9503173828125
1.2062499,8.336610794067383,-5.56173038482666,1.3000515699386597,2.4261474609375,13.73291015625,20.843505859375
1.2087499,8.329427719116211,-5.588066577911377,1.359906554222107,3.8909912109375,13.9312744140625,20.7366943359375
1.2112498999999999,8.322244644165039,-5.616796970367432,1.4197616577148438,4.913330078125,14.312744140625,20.5841064453125
1.2137499,8.315062522888184,-5.65031623840332,1.4844050407409668,6.16455078125,14.7857666015625,20.3094482421875
1.2162499,8.305485725402832,-5.686229228973389,1.5490485429763794,7.50732421875,15.0146484375,20.1416015625
1.2187499,8.29830265045166,-5.719748020172119,1.6089035272598267,9.09423828125,15.5029296875,19.9127197265625
1.2212498999999999,8.288725852966309,-5.760449409484863,1.6615760326385498,10.467529296875,15.8233642578125,19.53125
1.2237498999999998,8.279149055480957,-5.803544998168945,1.7094600200653076,12.1612548828125,16.0980224609375,19.1650390625
1.2262499,8.269572257995605,-5.856217384338379,1.7525556087493896,14.09912109375,16.17431640625,19.0277099609375
1.2287499,8.267178535461426,-5.916072368621826,1.7932571172714233,16.0980224609375,16.2506103515625,18.2952880859375
1.2312499,8.271966934204102,-5.983109951019287,1.845929503440857,17.9443359375,16.571044921875,18.00537109375
1.2337498999999998,8.286332130432129,-6.0597243309021,1.9057846069335938,19.95849609375,16.6168212890625,17.578125
1.2362499,8.300697326660156,-6.138733386993408,1.9776105880737305,21.9573974609375,16.5252685546875,16.9219970703125
1.2387499,8.315062522888184,-6.215347766876221,2.054224967956543,24.2156982421875,16.2353515625,16.29638671875
1.2412499,8.317456245422363,-6.291962146759033,2.1332337856292725,26.42822265625,16.3116455078125,15.655517578125
1.2437498999999999,8.312667846679688,-6.3518171310424805,2.212242364883423,28.656005859375,16.2353515625,15.0299072265625
1.2462499,8.29830265045166,-6.411672115325928,2.2816741466522217,30.609130859375,16.05224609375,14.312744140625
1.2487499,8.274360656738281,-6.464344501495361,2.3535003662109375,32.7301025390625,15.7470703125,13.6260986328125
1.2512499,8.238448143005371,-6.507440090179443,2.4133553504943848,34.6832275390625,15.5792236328125,12.969970703125
1.2537498999999999,8.190564155578613,-6.552929878234863,2.470816135406494,36.7584228515625,15.2587890625,11.993408203125
1.2562499,8.13789176940918,-6.593631267547607,2.513911724090576,38.7115478515625,14.83154296875,11.04736328125
1.2587499,8.08282470703125,-6.624756336212158,2.542642116546631,40.252685546875,14.70947265625,10.284423828125
1.2612499,8.034940719604492,-6.653486728668213,2.5522189140319824,41.961669921875,14.70947265625,9.1400146484375
1.2637498999999999,7.989450931549072,-6.67982292175293,2.5546131134033203,43.45703125,14.22119140625,8.1329345703125
1.2662499,7.948749542236328,-6.689399719238281,2.542642116546631,45.074462890625,13.48876953125,7.2021484375
1.2687499,7.908048152923584,-6.698976516723633,2.537853717803955,46.38671875,12.87841796875,6.2255859375
1.2712499,7.872135162353516,-6.696582317352295,2.5234885215759277,47.3175048828125,12.5885009765625,5.340576171875
1.2737498999999999,7.841010570526123,-6.689399719238281,2.5043349266052246,48.2940673828125,12.0086669921875,4.150390625
1.2762499,7.8098859786987305,-6.67982292175293,2.4803929328918457,48.7823486328125,11.383056640625,3.0364990234375
1.2787499,7.7763671875,-6.670246124267578,2.451662540435791,49.3011474609375,10.8642578125,2.2735595703125
1.2812499,7.735665798187256,-6.651092529296875,2.4205379486083984,49.6673583984375,10.3607177734375,1.0986328125
1.2837498999999999,7.692570209503174,-6.631938934326172,2.387019157409668,49.8809814453125,9.6588134765625,0.030517578125
1.2862498999999998,7.647080421447754,-6.598419666290283,2.3582887649536133,49.98779296875,8.941650390625,-1.1749267578125
1.2887499,7.60637903213501,-6.562506675720215,2.3295583724975586,49.896240234375,8.2855224609375,-2.1820068359375
1.2912499,7.570465564727783,-6.524199485778809,2.3080103397369385,49.6063232421875,7.537841796875,-3.1280517578125
1.2937499,7.503427982330322,-6.4380083084106445,2.2816741466522217,48.6297607421875,5.9814453125,-5.462646484375
1.2962498999999998,7.4770917892456055,-6.390124320983887,2.274491548538208,47.7142333984375,5.279541015625,-6.4849853515625
1.2987499,7.4555439949035645,-6.339846134185791,2.2673089504241943,47.0123291015625,4.486083984375,-7.6904296875
1.3012499,7.441178798675537,-6.287173748016357,2.2625205516815186,45.8221435546875,3.814697265625,-8.7127685546875
1.3037499,7.438784599304199,-6.234501361846924,2.250549554824829,44.8150634765625,3.11279296875,-9.7503662109375
1.3062498999999999,7.438784599304199,-6.18182897567749,2.233790159225464,43.487548828125,2.4566650390625,-10.9710693359375
1.3087499,7.457938194274902,-6.129156112670898,2.2170307636260986,41.7938232421875,1.8768310546875,-11.9476318359375
1.3112499,7.4770917892456055,-6.076483726501465,2.2026655673980713,40.1153564453125,1.64794921875,-13.092041015625
1.3137499,7.503427982330322,-6.026205539703369,2.1978771686553955,38.1622314453125,1.220703125,-14.0380859375
1.3162498999999999,7.534552574157715,-5.971138954162598,2.1954829692840576,35.980224609375,0.9307861328125,-14.862060546875
1.3187499,7.5632829666137695,-5.918466567993164,2.1954829692840576,33.538818359375,0.701904296875,-15.716552734375
1.3212499,7.594407558441162,-5.870582580566406,2.190694570541382,31.6009521484375,0.4425048828125,-16.1895751953125
1.3237499,7.623138427734375,-5.834669589996338,2.188300371170044,29.0069580078125,0.30517578125,-17.1051025390625
1.3262498999999999,7.649474620819092,-5.803544998168945,2.183511972427368,26.3519287109375,0.1373291015625,-17.7459716796875
1.3287499,7.671022415161133,-5.793968200683594,2.1787235736846924,24.0478515625,0.0152587890625,-18.646240234375
1.3312499,7.692570209503174,-5.789179801940918,2.1787235736846924,21.728515625,0.06103515625,-19.134521484375
1.3337499,7.704541206359863,-5.793968200683594,2.1715409755706787,19.287109375,0.1068115234375,-19.5770263671875
1.3362498999999999,7.718906402587891,-5.805939197540283,2.161964178085327,16.90673828125,-0.0152587890625,-20.0347900390625
1.3387499,7.728483200073242,-5.825092792510986,2.1523873805999756,14.404296875,-0.06103515625,-20.3857421875
1.3412499,7.728483200073242,-5.846640586853027,2.1356279850006104,12.5579833984375,0.152587890625,-20.4925537109375
1.3437499,7.726089000701904,-5.880159378051758,2.1284453868865967,10.162353515625,0.5645751953125,-20.8282470703125
1.3462498999999999,7.718906402587891,-5.916072368621826,2.118868589401245,8.0413818359375,0.4730224609375,-21.1334228515625
1.3487498999999998,7.716512203216553,-5.947196960449219,2.1164743900299072,6.2713623046875,0.8697509765625,-21.4080810546875
1.3512499,7.714118003845215,-5.9735331535339355,2.1092917919158936,4.39453125,1.068115234375,-21.148681640625
1.3537499,7.711723804473877,-6.007051944732666,2.1045033931732178,2.4261474609375,1.52587890625,-21.240234375
1.3562499,7.709329605102539,-6.042964935302734,2.10210919380188,0.91552734375,1.678466796875,-21.3165283203125
1.3587498999999998,7.706935405731201,-6.09324312210083,2.10210919380188,-0.18310546875,2.349853515625,-21.0723876953125
1.3612499,7.6997528076171875,-6.141127586364746,2.1045033931732178,-1.5106201171875,2.716064453125,-21.0418701171875
1.3637499,7.690176010131836,-6.18182897567749,2.097320795059204,-2.471923828125,3.0975341796875,-20.69091796875
1.3662499,7.668628215789795,-6.212953567504883,2.0925323963165283,-3.448486328125,3.3416748046875,-20.6298828125
1.3687498999999999,7.630321025848389,-6.236895561218262,2.0853497982025146,-4.241943359375,3.72314453125,-20.6756591796875
1.3712499,7.580042362213135,-6.256049156188965,2.070984363555908,-4.9285888671875,3.9825439453125,-19.9737548828125
1.3737499,7.513004779815674,-6.289567947387695,2.0661959648132324,-5.3558349609375,4.1351318359375,-19.6990966796875
1.3762499,7.448361396789551,-6.325480937957764,2.049436569213867,-5.43212890625,4.6539306640625,-19.7601318359375
1.3787498999999999,7.386112213134766,-6.3733649253845215,2.03507137298584,-5.462646484375,4.8370361328125,-19.287109375
1.3812499,7.33583402633667,-6.4164605140686035,2.0159177780151367,-5.2032470703125,5.035400390625,-18.9666748046875
1.3837499,7.297526836395264,-6.452373504638672,1.987187385559082,-5.0811767578125,5.3863525390625,-18.6004638671875
1.3862499,7.259219646453857,-6.4834980964660645,1.9608511924743652,-4.6539306640625,5.767822265625,-17.9901123046875
1.3887498999999999,7.228095054626465,-6.507440090179443,1.9297266006469727,-4.3487548828125,6.04248046875,-17.547607421875
1.3912499,7.19936466217041,-6.528987884521484,1.900996208190918,-3.84521484375,6.256103515625,-17.181396484375
1.3937499,7.173028469085693,-6.5481414794921875,1.8746598958969116,-3.4637451171875,6.4239501953125,-16.8609619140625
1.3962499,7.141903877258301,-6.5696892738342285,1.8531121015548706,-2.838134765625,6.378173828125,-16.6168212890625
1.3987498999999999,7.115567684173584,-6.5912370681762695,1.8387469053268433,-1.9378662109375,6.103515625,-16.0980224609375
1.4012499,7.094019412994385,-6.607996463775635,1.8339585065841675,-0.9918212890625,5.9814453125,-15.869140625
1.4037499,7.079654216766357,-6.617573261260986,1.8315643072128296,0.030517578125,5.8746337890625,-15.44189453125
1.4062499,7.0772600173950195,-6.617573261260986,1.8315643072128296,1.3885498046875,5.615234375,-14.892578125
1.4087498999999999,7.074865818023682,-6.6127848625183105,1.8315643072128296,2.3193359375,5.462646484375,-14.6331787109375
1.4112498999999998,7.074865818023682,-6.596025466918945,1.8339585065841675,3.5552978515625,5.3253173828125,-14.4500732421875
1.4137499,7.074865818023682,-6.57926607131958,1.8339585065841675,4.57763671875,5.2032470703125,-14.2364501953125
1.4162499,7.072471618652344,-6.555324077606201,1.8291701078414917,5.5694580078125,5.0201416015625,-13.9617919921875
1.4187499,7.067683219909668,-6.517016887664795,1.8100165128707886,6.40869140625,4.852294921875,-13.641357421875
1.4212498999999998,7.067683219909668,-6.471527099609375,1.7812861204147339,7.2174072265625,4.5623779296875,-13.18359375
1.4237499,7.074865818023682,-6.414066314697266,1.742978811264038,8.056640625,4.180908203125,-12.75634765625
1.4262499,7.089231014251709,-6.347028732299805,1.699883222579956,8.453369140625,4.0435791015625,-12.939453125
1.4287499,7.108384609222412,-6.277596950531006,1.659181833267212,8.8348388671875,3.7994384765625,-12.6190185546875
1.4312498999999999,7.1251444816589355,-6.212953567504883,1.6208745241165161,9.33837890625,3.5858154296875,-12.6800537109375
1.4337499,7.141903877258301,-6.1530985832214355,1.5873557329177856,9.4757080078125,3.082275390625,-12.5732421875
1.4362499,7.161057472229004,-6.098031520843506,1.5682021379470825,9.4146728515625,2.7313232421875,-12.4969482421875
1.4387499,7.187393665313721,-6.045359134674072,1.5634137392044067,9.58251953125,2.593994140625,-12.4664306640625
1.4412498999999999,7.220912456512451,-5.985504150390625,1.5682021379470825,9.4146728515625,2.44140625,-12.3748779296875
1.4437499,7.259219646453857,-5.920860767364502,1.5849615335464478,9.0179443359375,2.166748046875,-12.237548828125
1.4462499,7.292738437652588,-5.846640586853027,1.599326729774475,8.48388671875,2.0294189453125,-12.3291015625
1.4487499,7.3238630294799805,-5.772420406341553,1.6112977266311646,7.7362060546875,1.9073486328125,-12.3138427734375
1.4512498999999999,7.347805023193359,-5.698200225830078,1.6136919260025024,6.8206787109375,1.953125,-12.20703125
1.4537499,7.357381820678711,-5.628767967224121,1.6065093278884888,5.7373046875,1.8768310546875,-11.9781494140625
1.4562499,7.364564418792725,-5.559336185455322,1.5921441316604614,4.7607421875,1.7547607421875,-12.20703125
1.4587499,7.3669586181640625,-5.499481201171875,1.5753847360610962,3.4942626953125,1.8463134765625,-12.115478515625
1.4612498999999999,7.374141216278076,-5.442020416259766,1.5658079385757446,1.9683837890625,2.1514892578125,-12.2222900390625
1.4637499,7.395689010620117,-5.394136428833008,1.5682021379470825,0.5340576171875,2.105712890625,-12.3291015625
1.4662499,7.433996200561523,-5.360617637634277,1.5825673341751099,-0.9918212890625,1.922607421875,-12.3443603515625
1.4687499,7.489062786102295,-5.343858242034912,1.6041151285171509,-2.62451171875,2.105712890625,-12.39013671875
1.4712498999999999,7.55131196975708,-5.343858242034912,1.6304513216018677,-4.21142578125,2.3956298828125,-12.5274658203125
1.4737498999999998,7.615955829620361,-5.360617637634277,1.6519991159439087,-5.2947998046875,2.50244140625,-12.5579833984375
1.4762499,7.675810813903809,-5.389348030090332,1.6831238269805908,-6.744384765625,2.593994140625,-12.5732421875
1.4787499,7.723694801330566,-5.418078422546387,1.7118542194366455,-8.0108642578125,2.655029296875,-12.8631591796875
1.4812499,7.766790390014648,-5.451597213745117,1.745373010635376,-9.185791015625,2.8076171875,-12.786865234375
1.4837498999999998,7.793126583099365,-5.4875102043151855,1.7884687185287476,-10.4217529296875,3.0059814453125,-12.725830078125
1.4862499,7.82185697555542,-5.530605792999268,1.8363527059555054,-11.383056640625,3.5400390625,-12.786865234375
1.4887499,7.848193168640137,-5.578489780426025,1.8962076902389526,-12.1917724609375,3.7841796875,-12.6953125
1.4912499,7.879317760467529,-5.628767967224121,1.9632453918457031,-13.00048828125,4.1046142578125,-12.481689453125
1.4937498999999999,7.91283655166626,-5.681440830230713,2.027888774871826,-13.519287109375,4.5318603515625,-12.26806640625
1.4962499,7.953537940979004,-5.736507415771484,2.097320795059204,-14.34326171875,5.1116943359375,-11.90185546875
1.4987499,7.989450931549072,-5.7987565994262695,2.1547815799713135,-14.6331787109375,5.7525634765625,-11.2457275390625
1.5012499,8.02536392211914,-5.8657941818237305,2.2170307636260986,-14.9383544921875,6.3934326171875,-11.16943359375
1.5037498999999999,8.068459510803223,-6.023811340332031,2.33913516998291,-14.984130859375,7.476806640625,-9.5367431640625
1.5062499,8.075642585754395,-6.107608318328857,2.3989901542663574,-14.95361328125,8.3160400390625,-9.1705322265625
1.5087499,8.075642585754395,-6.18182897567749,2.4468741416931152,-14.6636962890625,8.97216796875,-8.23974609375
1.5112499,8.066065788269043,-6.260837554931641,2.4851813316345215,-14.3280029296875,9.70458984375,-7.14111328125
1.5137498999999999,8.044517517089844,-6.3302693367004395,2.5115175247192383,-13.7176513671875,10.3759765625,-6.011962890625
1.5162499,8.010998725891113,-6.399701118469238,2.5282769203186035,-12.7410888671875,11.0626220703125,-4.8370361328125
1.5187499,7.960720539093018,-6.466738700866699,2.5282769203186035,-12.054443359375,11.749267578125,-3.6163330078125
1.5212499,7.903259754180908,-6.524199485778809,2.513911724090576,-11.1236572265625,12.298583984375,-2.166748046875
1.5237498999999999,7.843404769897461,-6.572083473205566,2.477998733520508,-10.223388671875,12.8173828125,-0.8697509765625
1.5262499,7.790732383728027,-6.600813865661621,2.4181437492370605,-9.2010498046875,13.031005859375,0.4119873046875
1.5287499,7.745242595672607,-6.605602264404297,2.3367409706115723,-8.1634521484375,13.5040283203125,1.8157958984375
1.5312499,7.6997528076171875,-6.593631267547607,2.2361843585968018,-7.110595703125,13.7786865234375,3.0517578125
1.5337498999999999,7.654263019561768,-6.567295074462891,2.1356279850006104,-6.1492919921875,13.9007568359375,4.0435791015625
1.5362499,7.601590633392334,-6.5265936851501465,2.032677173614502,-5.1727294921875,13.7176513671875,5.0506591796875
1.5387499,7.556100368499756,-6.476315498352051,1.941697597503662,-3.96728515625,13.4429931640625,5.859375
1.5412499,7.513004779815674,-6.4164605140686035,1.8555063009262085,-2.9144287109375,13.0615234375,6.53076171875
1.5437499,7.479485988616943,-6.349422931671143,1.7717092037200928,-1.739501953125,12.5274658203125,7.049560546875
1.5462498999999998,7.457938194274902,-6.277596950531006,1.699883222579956,-0.4730224609375,11.7340087890625,7.50732421875
1.5487499,7.443572998046875,-6.208165168762207,1.6208745241165161,0.640869140625,10.8642578125,7.965087890625
1.5512499,7.443572998046875,-6.143521785736084,1.5466543436050415,1.8463134765625,9.918212890625,8.056640625
1.5537499,7.453149795532227,-6.086060523986816,1.4700398445129395,3.1280517578125,8.941650390625,7.9345703125
1.5562498999999999,7.4770917892456055,-6.028599739074707,1.403002142906189,4.33349609375,7.965087890625,8.0413818359375
1.5587499,7.513004779815674,-5.9735331535339355,1.3431471586227417,5.5389404296875,6.89697265625,8.056640625
1.5612499,7.560888767242432,-5.918466567993164,1.2976573705673218,6.4849853515625,5.767822265625,7.8582763671875
1.5637499,7.6111674308776855,-5.868188381195068,1.2521674633026123,7.3394775390625,4.638671875,7.8887939453125
1.5662498999999999,7.661445617675781,-5.8203043937683105,1.216254472732544,8.1329345703125,3.2501220703125,7.537841796875
1.5687499,7.709329605102539,-5.774814605712891,1.1803414821624756,8.819580078125,2.227783203125,7.354736328125
1.5712499,7.754819393157959,-5.726930618286133,1.1444283723831177,9.6435546875,1.15966796875,7.080078125
1.5737499,7.797914981842041,-5.669469833374023,1.113303780555725,9.5977783203125,-0.06103515625,7.0343017578125
1.5762498999999999,7.836222171783447,-5.612008571624756,1.0893617868423462,9.70458984375,-0.9613037109375,6.927490234375
1.5787499,7.872135162353516,-5.549759387969971,1.0678139925003052,9.7808837890625,-2.044677734375,6.6070556640625
1.5812499,7.903259754180908,-5.497087001800537,1.0606313943862915,9.70458984375,-2.899169921875,6.5460205078125
1.5837499,7.939172744750977,-5.449203014373779,1.0606313943862915,9.2010498046875,-3.8909912109375,6.805419921875
1.5862498999999999,7.982268333435059,-5.408501625061035,1.0654197931289673,8.575439453125,-4.6539306640625,6.6070556640625
1.5887499,8.027758598327637,-5.367800235748291,1.0821791887283325,7.6751708984375,-5.31005859375,6.591796875
1.5912499,8.073247909545898,-5.324704647064209,1.0989385843276978,6.7138671875,-5.79833984375,6.3629150390625
1.5937499,8.11634349822998,-5.279214859008789,1.115697979927063,5.6304931640625,-6.256103515625,6.3934326171875
1.5962498999999999,8.142680168151855,-5.236119270324707,1.1324573755264282,4.425048828125,-7.0343017578125,6.53076171875
1.5987499,8.161833763122559,-5.197812080383301,1.1444283723831177,2.838134765625,-7.5225830078125,6.53076171875
1.6012499,8.17141056060791,-5.171475887298584,1.1516109704971313,1.40380859375,-7.7056884765625,6.4544677734375
1.6037499,8.188169479370117,-5.16429328918457,1.161187767982483,0.1068115234375,-8.0413818359375,6.4544677734375
1.6062499,8.20732307434082,-5.17626428604126,1.1755530834197998,-1.0986328125,-8.4228515625,6.53076171875
1.6087498999999998,8.226476669311523,-5.20978307723999,1.1971008777618408,-2.197265625,-8.72802734375,6.3629150390625
1.6112499,8.250418663024902,-5.252878665924072,1.2234370708465576,-3.509521484375,-9.0179443359375,6.256103515625
1.6137499,8.252813339233398,-5.2911858558654785,1.2545616626739502,-4.486083984375,-9.2926025390625,6.40869140625
1.6162499,8.250418663024902,-5.329493045806885,1.292868971824646,-5.706787109375,-9.4757080078125,6.1798095703125
1.6187498999999999,8.233659744262695,-5.370194435119629,1.3215993642807007,-6.683349609375,-9.8724365234375,6.317138671875
1.6212499,8.216899871826172,-5.413290023803711,1.3551181554794312,-7.3699951171875,-10.101318359375,6.3323974609375
1.6237499,8.197746276855469,-5.473145008087158,1.3886369466781616,-8.056640625,-10.223388671875,6.439208984375
1.6262499,8.183381080627441,-5.547365188598633,1.4197616577148438,-8.6822509765625,-10.31494140625,6.40869140625
1.6287498999999999,8.159439086914062,-5.621585369110107,1.455674648284912,-8.7738037109375,-10.3912353515625,6.4544677734375
1.6312499,8.130708694458008,-5.693411827087402,1.4915876388549805,-9.002685546875,-10.5438232421875,6.3629150390625
1.6337499,8.097189903259277,-5.75326681137085,1.525106430053711,-9.33837890625,-10.711669921875,6.16455078125
1.6362499,8.054094314575195,-5.803544998168945,1.558625340461731,-9.2315673828125,-10.955810546875,6.256103515625
1.6387498999999999,8.003816604614258,-5.846640586853027,1.580173134803772,-9.09423828125,-11.0931396484375,6.34765625
1.6412499,7.948749542236328,-5.889736175537109,1.6065093278884888,-9.1094970703125,-11.3525390625,6.2408447265625
1.6437499,7.8960771560668945,-5.942408561706543,1.6208745241165161,-8.819580078125,-11.3677978515625,5.950927734375
1.6462499,7.848193168640137,-6.00226354598999,1.644816517829895,-8.48388671875,-11.41357421875,5.7525634765625
1.6487498999999999,7.805097579956055,-6.066906929016113,1.6687586307525635,-7.7667236328125,-11.383056640625,5.6304931640625
1.6512499,7.7643961906433105,-6.129156112670898,1.6974890232086182,-7.0343017578125,-11.383056640625,5.67626953125
1.6537499,7.714118003845215,-6.179434776306152,1.723825216293335,-6.28662109375,-11.16943359375,5.4168701171875
1.6562499,7.663839817047119,-6.212953567504883,1.7525556087493896,-5.950927734375,-11.3372802734375,5.157470703125
1.6587498999999999,7.613561630249023,-6.244078159332275,1.7764976024627686,-5.43212890625,-11.322021484375,4.9896240234375
1.6612499,7.580042362213135,-6.270414352416992,1.8076223134994507,-4.3182373046875,-11.3372802734375,4.8370361328125
1.6637499,7.556100368499756,-6.299144744873047,1.8507179021835327,-3.692626953125,-11.1846923828125,4.486083984375
1.6662499,7.5417351722717285,-6.325480937957764,1.8962076902389526,-3.0670166015625,-10.92529296875,4.364013671875
1.6687499,7.539340972900391,-6.349422931671143,1.946485996246338,-2.349853515625,-10.8642578125,3.936767578125
1.6712498999999998,7.539340972900391,-6.366182327270508,1.9919757843017578,-1.5716552734375,-10.5743408203125,3.662109375
1.6737499,7.5417351722717285,-6.380547523498535,2.0231003761291504,-0.7476806640625,-10.498046875,3.23486328125
1.6762499,7.536946773529053,-6.387730121612549,2.054224967956543,0.1373291015625,-10.0860595703125,2.899169921875
1.6787499,7.532158374786377,-6.404489517211914,2.075772762298584,1.0528564453125,-9.5977783203125,2.5634765625
1.6812498999999999,7.5201873779296875,-6.418854713439941,2.099714994430542,2.01416015625,-9.3231201171875,2.25830078125
1.6837499,7.51779317855835,-6.4380083084106445,2.126051187515259,2.7923583984375,-9.0179443359375,1.800537109375
1.6862499,7.524975776672363,-6.45476770401001,2.1523873805999756,4.0283203125,-8.60595703125,1.5869140625
1.6887499,7.5417351722717285,-6.466738700866699,2.1787235736846924,5.126953125,-8.3160400390625,1.220703125
1.6912498999999999,7.560888767242432,-6.476315498352051,2.2002713680267334,6.2408447265625,-7.7667236328125,1.0528564453125
1.6937499,7.587224960327148,-6.4834980964660645,2.2194249629974365,7.293701171875,-7.415771484375,0.5950927734375
1.6962499,7.60637903213501,-6.48828649520874,2.233790159225464,7.9498291015625,-6.8817138671875,0.48828125
1.6987499,7.623138427734375,-6.490680694580078,2.2457611560821533,8.97216796875,-6.3629150390625,0.2288818359375
1.7012498999999999,7.632715225219727,-6.490680694580078,2.2577321529388428,9.8419189453125,-5.9814453125,0.1373291015625
1.7037499,7.647080421447754,-6.481103897094727,2.2625205516815186,10.986328125,-5.7220458984375,0.06103515625
1.7062499,7.654263019561768,-6.469132900238037,2.2673089504241943,11.71875,-5.18798828125,-0.1220703125
1.7087499,7.666234016418457,-6.445190906524658,2.2649147510528564,12.5732421875,-4.94384765625,-0.3509521484375
1.7112498999999999,7.663839817047119,-6.421248912811279,2.2625205516815186,13.2598876953125,-4.608154296875,-0.6561279296875
1.7137499,7.6351094245910645,-6.356605529785156,2.2457611560821533,14.6331787109375,-3.96728515625,-0.79345703125
1.7162499,7.603984832763672,-6.323086738586426,2.2361843585968018,15.1824951171875,-3.6773681640625,-0.8544921875
1.7187499,7.570465564727783,-6.296750545501709,2.2218191623687744,15.655517578125,-3.41796875,-1.03759765625
1.7212498999999999,7.532158374786377,-6.275202751159668,2.205059766769409,16.143798828125,-3.3111572265625,-1.312255859375
1.7237499,7.491456985473633,-6.258443355560303,2.1787235736846924,16.6168212890625,-3.0975341796875,-1.5869140625
1.7262499,7.450755596160889,-6.244078159332275,2.145204782485962,17.02880859375,-2.9754638671875,-1.739501953125
1.7287499,7.405265808105469,-6.217741966247559,2.10210919380188,17.364501953125,-2.960205078125,-1.89208984375
1.7312499,7.364564418792725,-6.19379997253418,2.054224967956543,17.8070068359375,-2.899169921875,-2.0904541015625
1.7337498999999998,7.3238630294799805,-6.165069580078125,2.006340980529785,17.9290771484375,-2.8839111328125,-2.0751953125
1.7362499,7.285555839538574,-6.1315507888793945,1.9608511924743652,18.035888671875,-2.8228759765625,-2.01416015625
1.7387499,7.254431247711182,-6.102819919586182,1.9177556037902832,18.1121826171875,-3.2806396484375,-2.3956298828125
1.7412499,7.220912456512451,-6.074089527130127,1.8722656965255737,18.0816650390625,-3.4942626953125,-2.5634765625
1.7437498999999999,7.196970462799072,-6.045359134674072,1.8339585065841675,17.9443359375,-3.6468505859375,-2.7313232421875
1.7462499,7.1706342697143555,-6.026205539703369,1.7956513166427612,17.8375244140625,-3.84521484375,-3.0670166015625
1.7487499,7.15387487411499,-6.009446144104004,1.7597382068634033,17.7001953125,-4.0130615234375,-3.11279296875
1.7512499,7.146692276000977,-5.992686748504639,1.7286136150360107,17.39501953125,-4.302978515625,-3.2501220703125
1.7537498999999999,7.139509677886963,-5.985504150390625,1.699883222579956,17.181396484375,-4.5928955078125,-3.2196044921875
1.7562499,7.137115478515625,-5.971138954162598,1.678335428237915,16.90673828125,-4.82177734375,-3.387451171875
1.7587499,7.134721279144287,-5.966350555419922,1.659181833267212,16.693115234375,-5.035400390625,-3.3721923828125
1.7612499,7.137115478515625,-5.954379558563232,1.644816517829895,16.05224609375,-5.218505859375,-3.5247802734375
1.7637498999999999,7.139509677886963,-5.947196960449219,1.6280571222305298,15.6402587890625,-5.5999755859375,-3.6163330078125
1.7662499,7.141903877258301,-5.940014362335205,1.6112977266311646,15.3656005859375,-5.7830810546875,-3.47900390625
1.7687499,7.144298076629639,-5.932831764221191,1.5921441316604614,15.0604248046875,-6.3018798828125,-3.47900390625
1.7712499,7.156269073486328,-5.9304375648498535,1.5729905366897583,14.312744140625,-6.3629150390625,-3.5552978515625
1.7737498999999999,7.1706342697143555,-5.928043365478516,1.5466543436050415,13.763427734375,-6.6070556640625,-3.41796875
1.7762499,7.189787864685059,-5.92325496673584,1.522712230682373,13.4429931640625,-6.8206787109375,-3.173828125
1.7787499,7.2113356590271,-5.918466567993164,1.4963760375976562,12.847900390625,-6.988525390625,-3.0059814453125
1.7812499,7.223306655883789,-5.918466567993164,1.4724340438842773,12.1307373046875,-7.2479248046875,-3.082275390625
1.7837498999999999,7.2352776527404785,-5.92325496673584,1.455674648284912,12.1002197265625,-7.5225830078125,-2.9144287109375
1.7862499,7.252037048339844,-5.935225963592529,1.4413094520568848,11.7950439453125,-7.7056884765625,-2.471923828125
1.7887499,7.266402244567871,-5.961562156677246,1.4413094520568848,11.16943359375,-8.056640625,-2.3040771484375
1.7912499,7.285555839538574,-5.985504150390625,1.4437036514282227,11.04736328125,-8.392333984375,-2.0599365234375
1.7937499,7.307103633880615,-6.016628742218018,1.4484920501708984,10.8184814453125,-8.5906982421875,-1.77001953125
1.7962498999999998,7.326257228851318,-6.04775333404541,1.4532804489135742,10.3302001953125,-8.7432861328125,-1.4495849609375
1.7987499,7.3454108238220215,-6.078877925872803,1.4508862495422363,10.2386474609375,-8.819580078125,-0.7781982421875
1.8012499,7.359776020050049,-6.114790916442871,1.4413094520568848,10.07080078125,-8.880615234375,-0.5035400390625
1.8037499,7.371747016906738,-6.1530985832214355,1.4317326545715332,10.040283203125,-8.8043212890625,-0.0457763671875
1.8062498999999999,7.376535415649414,-6.186617374420166,1.4197616577148438,10.0555419921875,-8.8958740234375,0.3814697265625
1.8087499,7.374141216278076,-6.215347766876221,1.4053963422775269,9.8876953125,-9.124755859375,0.8697509765625
1.8112499,7.362170219421387,-6.236895561218262,1.3982137441635132,9.8419189453125,-9.002685546875,1.495361328125
1.8137499,7.350199222564697,-6.258443355560303,1.3838485479354858,9.918212890625,-9.429931640625,1.983642578125
1.8162498999999999,7.331045627593994,-6.275202751159668,1.381454348564148,9.8419189453125,-9.3841552734375,2.2735595703125
1.8187499,7.321468830108643,-6.294356346130371,1.37906014919281,9.6893310546875,-9.246826171875,2.74658203125
1.8212499,7.307103633880615,-6.308721542358398,1.3862427473068237,9.7198486328125,-9.490966796875,3.2501220703125
1.8237499,7.299921035766602,-6.31829833984375,1.3910311460494995,9.429931640625,-9.6893310546875,3.631591796875
1.8262498999999999,7.295132637023926,-6.337451934814453,1.3934253454208374,9.27734375,-9.6588134765625,4.1961669921875
1.8287499,7.29034423828125,-6.356605529785156,1.3862427473068237,9.307861328125,-9.674072265625,4.5166015625
1.8312499,7.295132637023926,-6.387730121612549,1.3718775510787964,9.552001953125,-9.368896484375,4.9591064453125
1.8337499,7.29034423828125,-6.414066314697266,1.3503297567367554,9.7808837890625,-9.6282958984375,5.43212890625
1.8362498999999999,7.280767440795898,-6.4380083084106445,1.3263877630233765,9.6282958984375,-9.70458984375,5.9661865234375
1.8387499,7.261613845825195,-6.449979305267334,1.2952631711959839,9.5977783203125,-9.70458984375,6.195068359375
1.8412499,7.240066051483154,-6.452373504638672,1.2737152576446533,9.5672607421875,-9.9639892578125,6.4697265625
1.8437499,7.223306655883789,-6.452373504638672,1.2521674633026123,9.33837890625,-9.918212890625,6.866455078125
1.8462498999999999,7.206547260284424,-6.449979305267334,1.2425906658172607,8.97216796875,-9.796142578125,6.9427490234375
1.8487499,7.201758861541748,-6.452373504638672,1.237802267074585,8.85009765625,-10.1776123046875,7.1258544921875
1.8512499,7.201758861541748,-6.461950302124023,1.235408067703247,8.85009765625,-10.0250244140625,7.38525390625
1.8537499,7.206547260284424,-6.471527099609375,1.2330138683319092,8.6517333984375,-9.9334716796875,7.4920654296875
1.8562499,7.2137298583984375,-6.485892295837402,1.2330138683319092,8.453369140625,-10.07080078125,7.87353515625
1.8587498999999998,7.220912456512451,-6.502651691436768,1.2330138683319092,8.5296630859375,-9.9945068359375,7.8582763671875
1.8612499,7.225700855255127,-6.517016887664795,1.237802267074585,8.3465576171875,-10.101318359375,7.8582763671875
1.8637499,7.232883453369141,-6.531382083892822,1.2449848651885986,8.2855224609375,-10.0555419921875,7.8277587890625
1.8662499,7.240066051483154,-6.540958881378174,1.2545616626739502,8.148193359375,-10.19287109375,8.1787109375
1.8687498999999999,7.254431247711182,-6.5481414794921875,1.2641384601593018,8.087158203125,-10.0555419921875,8.23974609375
1.8712499,7.268796443939209,-6.550535678863525,1.280897855758667,7.8887939453125,-9.8419189453125,7.9498291015625
1.8737499,7.283161640167236,-6.555324077606201,1.3048399686813354,7.62939453125,-10.0860595703125,8.087158203125
1.8762499,7.29034423828125,-6.557718276977539,1.335964560508728,7.537841796875,-9.8419189453125,7.9193115234375
1.8787498999999999,7.299921035766602,-6.574477672576904,1.3646949529647827,7.415771484375,-9.735107421875,7.8582763671875
1.8812499,7.304709434509277,-6.588842868804932,1.3934253454208374,7.3089599609375,-9.674072265625,7.781982421875
1.8837499,7.3238630294799805,-6.6127848625183105,1.41257905960083,7.1258544921875,-9.521484375,7.5531005859375
1.8862499,7.33583402633667,-6.63433313369751,1.4245500564575195,7.2784423828125,-9.3231201171875,7.7667236328125
1.8887498999999999,7.352593421936035,-6.658275127410889,1.4317326545715332,7.232666015625,-9.09423828125,7.1868896484375
1.8912499,7.362170219421387,-6.67982292175293,1.4389152526855469,7.2021484375,-8.72802734375,7.1563720703125
1.8937499,7.371747016906738,-6.694188117980957,1.436521053314209,7.1563720703125,-8.5296630859375,7.171630859375
1.8962499,7.378929615020752,-6.708553314208984,1.4317326545715332,7.3089599609375,-8.6517333984375,6.988525390625
1.8987498999999999,7.3885064125061035,-6.710947513580322,1.4197616577148438,7.32421875,-8.60595703125,6.439208984375
1.9012499,7.393294811248779,-6.71334171295166,1.403002142906189,7.2784423828125,-8.3770751953125,6.2713623046875
1.9037499,7.395689010620117,-6.71334171295166,1.3910311460494995,7.3089599609375,-8.575439453125,6.34765625
1.9062499,7.400477409362793,-6.718130111694336,1.381454348564148,7.537841796875,-8.544921875,6.04248046875
1.9087498999999999,7.402871608734131,-6.72531270980835,1.3766659498214722,7.4462890625,-8.4991455078125,5.7525634765625
1.9112499,7.4100542068481445,-6.732495307922363,1.37906014919281,7.3699951171875,-8.3465576171875,5.4931640625
1.9137499,7.419631004333496,-6.730101108551025,1.3838485479354858,7.4615478515625,-8.1939697265625,5.0506591796875
1.9162499,7.4316020011901855,-6.72531270980835,1.3862427473068237,7.3394775390625,-8.11767578125,4.8370361328125
1.9187499,7.443572998046875,-6.71334171295166,1.3934253454208374,7.080078125,-7.9193115234375,4.638671875
1.9212498999999998,7.46033239364624,-6.696582317352295,1.3958195447921753,6.988525390625,-7.9345703125,4.33349609375
1.9237499,7.479485988616943,-6.665457725524902,1.41257905960083,6.378173828125,-7.4920654296875,3.47900390625
1.9262499,7.486668586730957,-6.648698329925537,1.414973258972168,6.2713623046875,-7.354736328125,3.204345703125
1.9287499,7.481880187988281,-6.643909931182861,1.4245500564575195,6.103515625,-7.01904296875,2.6702880859375
1.9312498999999999,7.4770917892456055,-6.643909931182861,1.4293384552001953,5.889892578125,-6.6680908203125,2.13623046875
1.9337499,7.467514991760254,-6.655880928039551,1.4317326545715332,5.7525634765625,-6.591796875,2.0904541015625
1.9362499,7.462726593017578,-6.665457725524902,1.434126853942871,5.5389404296875,-6.439208984375,1.617431640625
1.9387499,7.469909191131592,-6.67982292175293,1.4269442558288574,5.462646484375,-6.195068359375,1.2359619140625
1.9412498999999999,7.479485988616943,-6.6846113204956055,1.4197616577148438,5.340576171875,-6.2255859375,0.9002685546875
1.9437499,7.4986395835876465,-6.694188117980957,1.403002142906189,5.06591796875,-5.950927734375,0.732421875
1.9462499,7.5201873779296875,-6.698976516723633,1.381454348564148,5.0201416015625,-5.7830810546875,0.54931640625
1.9487499,7.539340972900391,-6.7061591148376465,1.359906554222107,5.0048828125,-5.43212890625,0.244140625
1.9512498999999999,7.558494567871094,-6.710947513580322,1.3527239561080933,5.126953125,-5.2337646484375,0.0762939453125
1.9537499,7.565677165985107,-6.708553314208984,1.3527239561080933,5.157470703125,-4.913330078125,-0.091552734375
1.9562499,7.568071365356445,-6.698976516723633,1.3670891523361206,5.0811767578125,-4.669189453125,-0.3662109375
1.9587499,7.558494567871094,-6.675034523010254,1.381454348564148,5.218505859375,-4.669189453125,-0.67138671875
1.9612498999999999,7.548917770385742,-6.643909931182861,1.3934253454208374,5.18798828125,-4.669189453125,-0.9765625
1.9637499,7.546523571014404,-6.615179061889648,1.4101848602294922,4.94384765625,-4.547119140625,-0.885009765625
1.9662499,7.546523571014404,-6.584054470062256,1.414973258972168,5.096435546875,-4.3182373046875,-1.220703125
1.9687499,7.558494567871094,-6.574477672576904,1.4221558570861816,5.06591796875,-4.1351318359375,-1.3580322265625
1.9712498999999999,7.565677165985107,-6.564900875091553,1.4221558570861816,5.2337646484375,-4.150390625,-1.6326904296875
1.9737499,7.570465564727783,-6.567295074462891,1.41257905960083,5.43212890625,-3.90625,-2.044677734375
1.9762499,7.568071365356445,-6.5696892738342285,1.400607943534851,5.4168701171875,-3.5552978515625,-2.0599365234375
1.9787499,7.553706169128418,-6.54574728012085,1.37906014919281,5.79833984375,-3.5552978515625,-2.471923828125
1.9812499,7.553706169128418,-6.543353080749512,1.3646949529647827,5.3253173828125,-3.5247802734375,-2.7313232421875
1.9837499,7.546523571014404,-6.5050458908081055,1.3431471586227417,5.584716796875,-3.265380859375,-2.777099609375
1.9862499,7.548917770385742,-6.485892295837402,1.3335703611373901,5.6610107421875,-3.326416015625,-3.11279296875
1.9887499,7.556100368499756,-6.473921298980713,1.3239935636520386,5.31005859375,-3.4027099609375,-3.4027099609375
1.9912499,7.560888767242432,-6.447585105895996,1.314416766166687,5.6610107421875,-3.3416748046875,-3.4332275390625
1.9937498999999999,7.5632829666137695,-6.435614109039307,1.3120225667953491,5.3253173828125,-2.9144287109375,-3.8299560546875
1.9962499,7.580042362213135,-6.423643112182617,1.3120225667953491,4.913330078125,-2.74658203125,-3.875732421875
1.9987499,7.587224960327148,-6.406883716583252,1.3048399686813354,5.1422119140625,-2.960205078125,-4.0435791015625
2.0012499,7.6111674308776855,-6.418854713439941,1.3192051649093628,5.06591796875,-2.7313232421875,-4.3487548828125
2.0037499,7.623138427734375,-6.406883716583252,1.316810965538025,5.3253173828125,-2.38037109375,-4.302978515625
2.0062499,7.627926826477051,-6.3949127197265625,1.3239935636520386,5.218505859375,-2.3345947265625,-4.302978515625
2.0087498999999998,7.630321025848389,-6.366182327270508,1.3311761617660522,4.638671875,-2.3040771484375,-4.547119140625
2.0112499,7.615955829620361,-6.303933143615723,1.338358759880066,4.486083984375,-2.0904541015625,-4.3792724609375
2.0137499,7.60637903213501,-6.248866558074951,1.3479355573654175,3.6163330078125,-1.983642578125,-4.7454833984375
2.0162499,7.594407558441162,-6.191405773162842,1.357512354850769,2.9144287109375,-1.9378662109375,-4.8065185546875
2.0187499,7.592013359069824,-6.141127586364746,1.3718775510787964,2.74658203125,-1.739501953125,-5.2337646484375
2.0212499,7.5968017578125,-6.121973514556885,1.3838485479354858,2.3040771484375,-1.434326171875,-5.43212890625
2.0237499,7.613561630249023,-6.119579315185547,1.403002142906189,2.2735595703125,-1.0986328125,-5.43212890625
2.0262499,7.620744228363037,-6.1315507888793945,1.4269442558288574,2.4261474609375,-0.91552734375,-5.706787109375
2.0287498999999998,7.627926826477051,-6.155492782592773,1.4460978507995605,1.9989013671875,-0.5950927734375,-5.706787109375
2.0312499,7.623138427734375,-6.169857978820801,1.4532804489135742,1.89208984375,-0.42724609375,-5.828857421875
2.0337499,7.608773231506348,-6.179434776306152,1.455674648284912,1.64794921875,-0.1983642578125,-5.9051513671875
2.0362499,7.592013359069824,-6.172252178192139,1.4484920501708984,1.312255859375,-0.1373291015625,-5.706787109375
2.0387499,7.5632829666137695,-6.150704383850098,1.436521053314209,0.7781982421875,-0.2288818359375,-5.889892578125
2.0412499,7.544129371643066,-6.141127586364746,1.4221558570861816,0.5340576171875,-0.1068115234375,-5.8746337890625
2.0437499,7.527369976043701,-6.143521785736084,1.41257905960083,0.579833984375,0.152587890625,-5.7373046875
2.0462499,7.510610580444336,-6.157886981964111,1.3982137441635132,0.457763671875,0.4730224609375,-5.67626953125
2.0487499,7.496245384216309,-6.174646377563477,1.3886369466781616,0.54931640625,0.579833984375,-5.7220458984375
2.0512498999999997,7.481880187988281,-6.174646377563477,1.381454348564148,0.5035400390625,0.6561279296875,-5.6915283203125
2.0537499,7.462726593017578,-6.162675380706787,1.3766659498214722,0.2899169921875,0.5950927734375,-5.5694580078125
2.0562499,7.448361396789551,-6.141127586364746,1.381454348564148,0.4119873046875,0.6866455078125,-5.5999755859375
2.0587499,7.436390399932861,-6.124367713928223,1.3982137441635132,0.2593994140625,0.91552734375,-5.8135986328125
2.0612499,7.429207801818848,-6.110002517700195,1.4221558570861816,0.274658203125,0.9002685546875,-5.55419921875
2.0637499,7.424419403076172,-6.098031520843506,1.4532804489135742,0.4119873046875,0.9613037109375,-5.2490234375
2.0662499,7.4316020011901855,-6.090848922729492,1.482010841369629,0.5035400390625,0.9918212890625,-5.18798828125
2.0687499,7.438784599304199,-6.081272125244141,1.5107412338256836,0.396728515625,1.0833740234375,-5.035400390625
2.0712498999999998,7.4555439949035645,-6.074089527130127,1.5322890281677246,0.42724609375,1.28173828125,-4.974365234375
2.0737499,7.469909191131592,-6.071695327758789,1.5514427423477173,0.762939453125,1.3275146484375,-4.791259765625
2.0762499,7.484274387359619,-6.071695327758789,1.5729905366897583,0.8544921875,1.6021728515625,-4.7454833984375
2.0787499,7.491456985473633,-6.071695327758789,1.5825673341751099,0.762939453125,1.77001953125,-4.4097900390625
2.0812499,7.491456985473633,-6.074089527130127,1.599326729774475,1.007080078125,1.7547607421875,-4.1656494140625
2.0837499,7.481880187988281,-6.071695327758789,1.601720929145813,1.0528564453125,1.739501953125,-4.0435791015625
2.0862499,7.469909191131592,-6.069301128387451,1.6041151285171509,1.129150390625,1.9683837890625,-3.936767578125
2.0887499,7.462726593017578,-6.064512729644775,1.6065093278884888,1.2664794921875,2.166748046875,-3.47900390625
2.0912498999999998,7.450755596160889,-6.0597243309021,1.6041151285171509,1.251220703125,2.1820068359375,-3.2806396484375
2.0937499,7.443572998046875,-6.057330131530762,1.6089035272598267,1.4495849609375,2.1514892578125,-2.99072265625
2.0962499,7.438784599304199,-6.050147533416748,1.6112977266311646,1.64794921875,2.1209716796875,-2.899169921875
2.0987499,7.4316020011901855,-6.0405707359313965,1.6136919260025024,1.9378662109375,2.38037109375,-2.7008056640625
2.1012499,7.419631004333496,-6.030993938446045,1.6089035272598267,1.89208984375,2.5634765625,-2.4871826171875
2.1037499,7.412448406219482,-6.01423454284668,1.6065093278884888,1.8463134765625,2.4566650390625,-2.13623046875
2.1062499,7.400477409362793,-5.992686748504639,1.6041151285171509,1.8463134765625,2.3651123046875,-2.0751953125
2.1087499,7.386112213134766,-5.971138954162598,1.601720929145813,2.0294189453125,2.349853515625,-1.7852783203125
2.1112499,7.378929615020752,-5.949591159820557,1.599326729774475,2.2125244140625,2.044677734375,-1.5716552734375
2.1137498999999997,7.374141216278076,-5.9304375648498535,1.5921441316604614,2.25830078125,1.9378662109375,-1.3885498046875
2.1162499,7.374141216278076,-5.916072368621826,1.5849615335464478,2.2430419921875,1.922607421875,-1.190185546875
2.1187499,7.383718013763428,-5.899312973022461,1.5729905366897583,2.38037109375,1.7852783203125,-0.885009765625
2.1212499,7.400477409362793,-5.892130374908447,1.5682021379470825,2.5482177734375,1.708984375,-0.54931640625
2.1237499,7.41484260559082,-5.882553577423096,1.5658079385757446,2.288818359375,1.617431640625,-0.4425048828125
2.1262499,7.433996200561523,-5.87776517868042,1.5634137392044067,2.0751953125,1.708984375,-0.335693359375
2.1287499,7.441178798675537,-5.870582580566406,1.5682021379470825,2.166748046875,1.6937255859375,0.0457763671875
2.1312499,7.450755596160889,-5.861005783081055,1.5682021379470825,1.708984375,1.495361328125,0.18310546875
2.1337498999999998,7.453149795532227,-5.829881191253662,1.5682021379470825,1.5106201171875,1.2969970703125,0.5035400390625
2.1362499,7.46033239364624,-5.815515995025635,1.5705963373184204,1.2664794921875,1.2054443359375,0.79345703125
2.1387499,7.469909191131592,-5.803544998168945,1.5753847360610962,0.8697509765625,1.220703125,1.190185546875
2.1412499,7.481880187988281,-5.801150798797607,1.577778935432434,0.7171630859375,1.1138916015625,1.15966796875
2.1437499,7.4986395835876465,-5.805939197540283,1.5897499322891235,0.335693359375,1.1138916015625,1.220703125
2.1462499,7.513004779815674,-5.817910194396973,1.601720929145813,0.1678466796875,1.0223388671875,1.46484375
2.1487499,7.527369976043701,-5.8203043937683105,1.6208745241165161,-0.2593994140625,0.91552734375,1.52587890625
2.1512499,7.5417351722717285,-5.825092792510986,1.644816517829895,-0.7781982421875,1.0223388671875,1.7242431640625
2.1537498999999998,7.558494567871094,-5.825092792510986,1.6615760326385498,-1.1749267578125,1.129150390625,1.89208984375
2.1562499,7.575253963470459,-5.832275390625,1.6735470294952393,-1.373291015625,1.0528564453125,2.1514892578125
2.1587499,7.592013359069824,-5.849034786224365,1.6759412288665771,-1.8157958984375,1.0833740234375,2.3345947265625
2.1612499,7.5968017578125,-5.87776517868042,1.680729627609253,-1.9989013671875,1.0223388671875,2.532958984375
2.1637499,7.594407558441162,-5.91128396987915,1.680729627609253,-1.9989013671875,1.0528564453125,2.6092529296875
2.1662499,7.580042362213135,-5.944802761077881,1.6879122257232666,-2.227783203125,1.220703125,2.8839111328125
2.1687499,7.558494567871094,-5.975927352905273,1.6903064250946045,-2.197265625,1.190185546875,3.0059814453125
2.1712499,7.5417351722717285,-5.9974751472473145,1.6927006244659424,-2.3956298828125,1.007080078125,3.1585693359375
2.1737499,7.529764175415039,-6.009446144104004,1.6903064250946045,-2.4566650390625,0.946044921875,3.1585693359375
2.1762499,7.527369976043701,-6.0190229415893555,1.6855180263519287,-2.38037109375,0.91552734375,3.3111572265625
2.1787499,7.536946773529053,-6.026205539703369,1.680729627609253,-2.288818359375,0.9613037109375,3.326416015625
2.1812499,7.5417351722717285,-6.033388137817383,1.6687586307525635,-2.3040771484375,0.8697509765625,3.41796875
2.1837499,7.546523571014404,-6.042964935302734,1.659181833267212,-2.2735595703125,0.8544921875,3.265380859375
2.1862499,7.544129371643066,-6.052541732788086,1.6496049165725708,-2.3040771484375,0.8087158203125,3.35693359375
2.1887499,7.5417351722717285,-6.0597243309021,1.647210717201233,-2.227783203125,0.6866455078125,3.448486328125
2.1912499,7.536946773529053,-6.069301128387451,1.6496049165725708,-2.2125244140625,0.579833984375,3.47900390625
2.1937499,7.539340972900391,-6.078877925872803,1.6543933153152466,-2.044677734375,0.457763671875,3.4332275390625
2.1962498999999998,7.5417351722717285,-6.086060523986816,1.6615760326385498,-1.8463134765625,0.42724609375,3.60107421875
2.1987499,7.544129371643066,-6.102819919586182,1.6663644313812256,-1.8768310546875,0.30517578125,3.5247802734375
2.2012499,7.548917770385742,-6.119579315185547,1.6735470294952393,-1.77001953125,0.30517578125,3.387451171875
2.2037499,7.556100368499756,-6.133944988250732,1.678335428237915,-1.678466796875,0.244140625,3.5247802734375
2.2062499,7.565677165985107,-6.14831018447876,1.6879122257232666,-1.64794921875,0.244140625,3.570556640625
2.2087499,7.577648162841797,-6.162675380706787,1.6927006244659424,-1.5411376953125,0.274658203125,3.662109375
2.2112499,7.594407558441162,-6.172252178192139,1.6903064250946045,-1.220703125,0.4119873046875,3.753662109375
2.2137499,7.603984832763672,-6.18182897567749,1.6855180263519287,-1.3275146484375,0.244140625,3.6773681640625
2.2162498999999998,7.615955829620361,-6.184223175048828,1.6831238269805908,-1.2054443359375,0.18310546875,3.6163330078125
2.2187499,7.618350028991699,-6.179434776306152,1.6855180263519287,-1.1444091796875,0.06103515625,3.72314453125
2.2212499,7.623138427734375,-6.174646377563477,1.6903064250946045,-1.3427734375,0.3204345703125,3.5858154296875
2.2237499,7.623138427734375,-6.172252178192139,1.699883222579956,-1.2359619140625,0.457763671875,3.387451171875
2.2262499,7.630321025848389,-6.169857978820801,1.7070658206939697,-1.251220703125,0.335693359375,3.4942626953125
2.2287499,7.632715225219727,-6.174646377563477,1.7142484188079834,-1.220703125,0.335693359375,3.35693359375
2.2312499,7.6351094245910645,-6.18182897567749,1.721431016921997,-1.0528564453125,0.3662109375,3.326416015625
2.2337499,7.6351094245910645,-6.186617374420166,1.721431016921997,-0.9765625,0.48828125,3.2196044921875
2.2362499,7.6351094245910645,-6.196194171905518,1.7166426181793213,-1.0528564453125,0.54931640625,3.1280517578125
2.2387499,7.632715225219727,-6.1985883712768555,1.7070658206939697,-1.0528564453125,0.2899169921875,3.0059814453125
2.2412499,7.632715225219727,-6.200982570648193,1.6927006244659424,-1.0833740234375,0.244140625,3.11279296875
2.2437499,7.630321025848389,-6.203376770019531,1.678335428237915,-1.0528564453125,0.396728515625,3.0517578125
2.2462499,7.630321025848389,-6.205770969390869,1.6663644313812256,-1.0223388671875,0.1983642578125,2.685546875
2.2487499,7.630321025848389,-6.210559368133545,1.6519991159439087,-1.03759765625,0.2899169921875,2.8533935546875
2.2512499,7.6351094245910645,-6.205770969390869,1.6376339197158813,-0.8697509765625,0.274658203125,2.960205078125
2.2537499,7.637503623962402,-6.208165168762207,1.6160861253738403,-1.0528564453125,0.4119873046875,2.471923828125
2.2562499,7.63989782333374,-6.208165168762207,1.5945383310317993,-0.9765625,0.4119873046875,2.593994140625
2.2587498999999998,7.63989782333374,-6.208165168762207,1.577778935432434,-0.9918212890625,0.2593994140625,2.5634765625
2.2612499,7.632715225219727,-6.210559368133545,1.5729905366897583,-1.190185546875,0.06103515625,2.3651123046875
2.2637499,7.6351094245910645,-6.208165168762207,1.5753847360610962,-1.2054443359375,-0.091552734375,2.3345947265625
2.2662499,7.637503623962402,-6.208165168762207,1.5849615335464478,-1.2054443359375,-0.1373291015625,2.105712890625
2.2687499,7.649474620819092,-6.203376770019531,1.5969325304031372,-1.28173828125,-0.244140625,2.0599365234375
2.2712499,7.668628215789795,-6.200982570648193,1.6065093278884888,-1.6326904296875,-0.1068115234375,1.953125
2.2737499,7.687781810760498,-6.196194171905518,1.6136919260025024,-1.312255859375,-0.1373291015625,2.105712890625
2.2762499,7.709329605102539,-6.19379997253418,1.6208745241165161,-1.3427734375,-0.213623046875,1.9989013671875
2.2787498999999998,7.73087739944458,-6.184223175048828,1.6184803247451782,-1.6937255859375,-0.091552734375,1.678466796875
2.2812499,7.750030994415283,-6.172252178192139,1.6136919260025024,-1.861572265625,0.1068115234375,1.6326904296875
2.2837499,7.766790390014648,-6.162675380706787,1.6089035272598267,-2.13623046875,-0.091552734375,1.5106201171875
2.2862499,7.769184589385986,-6.157886981964111,1.6041151285171509,-2.13623046875,-0.0152587890625,1.5869140625
2.2887499,7.769184589385986,-6.160281181335449,1.6065093278884888,-2.166748046875,0,1.5716552734375
2.2912499,7.762001991271973,-6.174646377563477,1.6065093278884888,-2.0751953125,-0.2593994140625,1.5411376953125
2.2937499,7.754819393157959,-6.19379997253418,1.6065093278884888,-2.0751953125,-0.2288818359375,1.617431640625
2.2962499,7.747636795043945,-6.212953567504883,1.6041151285171509,-2.410888671875,-0.06103515625,1.5106201171875
2.2987499,7.738059997558594,-6.22731876373291,1.5945383310317993,-2.3193359375,-0.1678466796875,1.52587890625
2.3012499,7.73087739944458,-6.234501361846924,1.5825673341751099,-2.0751953125,-0.244140625,1.2969970703125
2.3037499,7.723694801330566,-6.22731876373291,1.5705963373184204,-2.1820068359375,0.0457763671875,1.251220703125
2.3062499,7.718906402587891,-6.2201361656188965,1.558625340461731,-2.197265625,-0.091552734375,1.03759765625
2.3087499,7.706935405731201,-6.200982570648193,1.5418659448623657,-2.4261474609375,-0.06103515625,0.8697509765625
2.3112499,7.692570209503174,-6.18182897567749,1.5275006294250488,-2.532958984375,-0.1373291015625,0.9918212890625
2.3137499,7.673416614532471,-6.160281181335449,1.5059528350830078,-2.8076171875,-0.030517578125,0.762939453125
2.3162499,7.65186882019043,-6.143521785736084,1.482010841369629,-3.0975341796875,-0.06103515625,0.6103515625
2.3187499,7.6351094245910645,-6.133944988250732,1.4652514457702637,-3.173828125,-0.0762939453125,0.4119873046875
2.3212498999999998,7.625532627105713,-6.1315507888793945,1.4532804489135742,-3.11279296875,-0.3204345703125,0.1678466796875
2.3237499,7.620744228363037,-6.1315507888793945,1.4437036514282227,-3.3111572265625,-0.2899169921875,0.06103515625
2.3262499,7.620744228363037,-6.138733386993408,1.434126853942871,-3.5858154296875,-0.3662109375,-0.1220703125
2.3287499,7.623138427734375,-6.138733386993408,1.414973258972168,-3.7078857421875,-0.3814697265625,-0.30517578125
2.3312499,7.618350028991699,-6.143521785736084,1.3982137441635132,-3.9215087890625,-0.3509521484375,-0.5950927734375
2.3337499,7.620744228363037,-6.14831018447876,1.3838485479354858,-4.150390625,-0.3662109375,-0.762939453125
2.3362499,7.620744228363037,-6.150704383850098,1.3766659498214722,-4.33349609375,-0.42724609375,-0.8544921875
2.3387499,7.623138427734375,-6.165069580078125,1.381454348564148,-4.547119140625,-0.48828125,-0.885009765625
2.3412498999999998,7.6351094245910645,-6.1770405769348145,1.3886369466781616,-4.82177734375,-0.640869140625,-1.129150390625
2.3437499,7.668628215789795,-6.205770969390869,1.4293384552001953,-4.82177734375,-0.7171630859375,-1.2969970703125
2.3462499,7.690176010131836,-6.210559368133545,1.455674648284912,-4.8370361328125,-0.7476806640625,-1.3427734375
2.3487499,7.711723804473877,-6.215347766876221,1.4772224426269531,-4.791259765625,-0.6103515625,-1.40380859375
2.3512499,7.726089000701904,-6.222530364990234,1.4987702369689941,-4.8370361328125,-0.4119873046875,-1.739501953125
2.3537499,7.735665798187256,-6.222530364990234,1.5155296325683594,-4.9285888671875,-0.54931640625,-1.9378662109375
2.3562499,7.735665798187256,-6.222530364990234,1.5275006294250488,-4.8828125,-0.2899169921875,-1.953125
2.3587499,7.733271598815918,-6.222530364990234,1.5322890281677246,-4.7760009765625,-0.06103515625,-1.9683837890625
2.3612499,7.726089000701904,-6.215347766876221,1.5298948287963867,-4.852294921875,-0.0762939453125,-1.9683837890625
2.3637499,7.7213006019592285,-6.210559368133545,1.5179238319396973,-4.7607421875,0.030517578125,-2.13623046875
2.3662499,7.718906402587891,-6.205770969390869,1.5083470344543457,-4.4708251953125,0.2593994140625,-2.1514892578125
2.3687499,7.7213006019592285,-6.200982570648193,1.4891934394836426,-4.4403076171875,0.4119873046875,-1.9378662109375
2.3712499,7.728483200073242,-6.203376770019531,1.4772224426269531,-4.3792724609375,0.5645751953125,-2.197265625
2.3737499,7.733271598815918,-6.205770969390869,1.4628572463989258,-4.21142578125,0.4730224609375,-2.166748046875
2.3762499,7.735665798187256,-6.208165168762207,1.4484920501708984,-3.631591796875,0.5035400390625,-1.9073486328125
2.3787499,7.7428483963012695,-6.205770969390869,1.434126853942871,-3.5552978515625,0.518798828125,-1.953125
2.3812499,7.747636795043945,-6.19379997253418,1.4221558570861816,-3.387451171875,0.67138671875,-2.0294189453125
2.3837498999999998,7.752425193786621,-6.18182897567749,1.4053963422775269,-3.173828125,0.640869140625,-1.953125
2.3862499,7.757213592529297,-6.162675380706787,1.3958195447921753,-2.9144287109375,0.732421875,-1.983642578125
2.3887499,7.752425193786621,-6.14831018447876,1.3838485479354858,-2.777099609375,0.6561279296875,-1.953125
2.3912499,7.7428483963012695,-6.1315507888793945,1.3838485479354858,-2.593994140625,0.7476806640625,-1.5869140625
2.3937499,7.733271598815918,-6.112396717071533,1.3862427473068237,-2.5787353515625,1.068115234375,-1.64794921875
2.3962499,7.7213006019592285,-6.09324312210083,1.3982137441635132,-2.4871826171875,0.67138671875,-1.6937255859375
2.3987499,7.7213006019592285,-6.069301128387451,1.41257905960083,-2.4566650390625,0.701904296875,-1.708984375
2.4012499,7.73087739944458,-6.045359134674072,1.4293384552001953,-2.3345947265625,1.129150390625,-1.739501953125
2.4037498999999998,7.7428483963012695,-6.016628742218018,1.4437036514282227,-2.3956298828125,1.0528564453125,-1.7852783203125
2.4062499,7.757213592529297,-5.992686748504639,1.4508862495422363,-2.5634765625,1.2054443359375,-1.953125
2.4087499,7.771578788757324,-5.96874475479126,1.460463047027588,-2.5177001953125,1.3427734375,-1.953125
2.4112499,7.778761386871338,-5.9519853591918945,1.4628572463989258,-2.655029296875,1.4495849609375,-1.9378662109375
2.4137499,7.7883381843566895,-5.932831764221191,1.4676456451416016,-2.655029296875,1.40380859375,-2.197265625
2.4162499,7.790732383728027,-5.920860767364502,1.4700398445129395,-2.777099609375,1.5411376953125,-2.25830078125
2.4187499,7.793126583099365,-5.906495571136475,1.4676456451416016,-2.99072265625,1.6937255859375,-2.2735595703125
2.4212499,7.785943984985352,-5.901707172393799,1.4652514457702637,-2.86865234375,1.5869140625,-2.227783203125
2.4237499,7.7763671875,-5.894524574279785,1.45806884765625,-2.8228759765625,1.7242431640625,-2.3345947265625
2.4262499,7.7643961906433105,-5.894524574279785,1.4508862495422363,-3.23486328125,1.8463134765625,-2.44140625
2.4287499,7.750030994415283,-5.899312973022461,1.4437036514282227,-3.4332275390625,1.7852783203125,-2.532958984375
2.4312499,7.738059997558594,-5.91128396987915,1.434126853942871,-3.1280517578125,1.5716552734375,-2.3040771484375
2.4337499,7.728483200073242,-5.92325496673584,1.4317326545715332,-3.0059814453125,1.5411376953125,-2.2735595703125
2.4362499,7.723694801330566,-5.9304375648498535,1.4269442558288574,-3.0975341796875,1.617431640625,-2.532958984375
2.4387499,7.7213006019592285,-5.935225963592529,1.4293384552001953,-3.204345703125,1.6632080078125,-2.3193359375
2.4412499,7.709329605102539,-5.937620162963867,1.4245500564575195,-3.265380859375,1.52587890625,-2.0904541015625
2.4437499,7.69735860824585,-5.937620162963867,1.4245500564575195,-3.326416015625,1.3427734375,-2.1820068359375
2.4462498999999998,7.6782050132751465,-5.937620162963867,1.4245500564575195,-3.387451171875,1.3275146484375,-2.044677734375
2.4487499,7.661445617675781,-5.940014362335205,1.4221558570861816,-3.3416748046875,1.0833740234375,-2.01416015625
2.4512499,7.644686222076416,-5.935225963592529,1.4245500564575195,-3.4332275390625,1.129150390625,-2.166748046875
2.4537499,7.632715225219727,-5.9304375648498535,1.4293384552001953,-3.41796875,1.373291015625,-2.13623046875
2.4562499,7.625532627105713,-5.925649166107178,1.4460978507995605,-3.448486328125,1.129150390625,-1.983642578125
2.4587499,7.623138427734375,-5.913678169250488,1.4676456451416016,-3.35693359375,1.1138916015625,-2.0599365234375
2.4612499,7.625532627105713,-5.901707172393799,1.4891934394836426,-3.4942626953125,1.129150390625,-2.1209716796875
2.4637499,7.6351094245910645,-5.889736175537109,1.5083470344543457,-3.5247802734375,0.946044921875,-2.0294189453125
2.4662498999999998,7.642292022705078,-5.880159378051758,1.5179238319396973,-3.509521484375,0.8392333984375,-1.9683837890625
2.4687499,7.654263019561768,-5.868188381195068,1.5203180313110352,-3.753662109375,0.8697509765625,-1.7547607421875
2.4712499,7.661445617675781,-5.863399982452393,1.5275006294250488,-3.875732421875,0.9613037109375,-1.77001953125
2.4737499,7.673416614532471,-5.856217384338379,1.525106430053711,-3.7994384765625,0.9613037109375,-1.8768310546875
2.4762499,7.680599212646484,-5.853823184967041,1.5322890281677246,-3.90625,0.79345703125,-1.9073486328125
2.4787499,7.690176010131836,-5.851428985595703,1.534683346748352,-4.058837890625,0.9613037109375,-1.6326904296875
2.4812499,7.692570209503174,-5.858611583709717,1.5442601442337036,-4.150390625,1.0833740234375,-1.495361328125
2.4837499,7.692570209503174,-5.8657941818237305,1.5538369417190552,-4.1961669921875,1.0986328125,-1.617431640625
2.4862499,7.692570209503174,-5.875370979309082,1.5658079385757446,-4.119873046875,0.91552734375,-1.495361328125
2.4887499,7.687781810760498,-5.8873419761657715,1.577778935432434,-4.1961669921875,1.0223388671875,-1.46484375
2.4912499,7.687781810760498,-5.896918773651123,1.5897499322891235,-3.814697265625,1.03759765625,-1.40380859375
2.4937499,7.690176010131836,-5.9088897705078125,1.599326729774475,-3.84521484375,1.1444091796875,-1.3427734375
2.4962499,7.687781810760498,-5.920860767364502,1.601720929145813,-3.96728515625,1.4801025390625,-1.434326171875
2.4987499,7.68538761138916,-5.937620162963867,1.601720929145813,-3.814697265625,1.251220703125,-1.190185546875
2.5012499,7.680599212646484,-5.9519853591918945,1.599326729774475,-3.7994384765625,0.946044921875,-0.885009765625
2.5037499,7.671022415161133,-5.963956356048584,1.5969325304031372,-3.2958984375,1.28173828125,-0.8697509765625
2.5062499,7.659051418304443,-5.975927352905273,1.5945383310317993,-3.23486328125,1.495361328125,-0.9002685546875
2.5087498999999998,7.647080421447754,-5.978321552276611,1.5921441316604614,-2.9144287109375,1.15966796875,-0.6103515625
2.5112499,7.630321025848389,-5.978321552276611,1.5897499322891235,-2.838134765625,1.1444091796875,-0.6256103515625
2.5137499,7.6111674308776855,-5.971138954162598,1.5825673341751099,-2.62451171875,1.129150390625,-0.2288818359375
2.5162499,7.594407558441162,-5.961562156677246,1.577778935432434,-2.13623046875,1.0833740234375,-0.5035400390625
2.5187499,7.572859764099121,-5.947196960449219,1.5705963373184204,-2.044677734375,1.0833740234375,-0.30517578125
2.5212499,7.556100368499756,-5.935225963592529,1.5658079385757446,-1.8463134765625,1.03759765625,-0.3509521484375
2.5237499,7.544129371643066,-5.928043365478516,1.5658079385757446,-1.5869140625,0.9613037109375,-0.0457763671875
2.5262499,7.534552574157715,-5.920860767364502,1.5634137392044067,-1.40380859375,0.9765625,0.091552734375
2.5287498999999998,7.534552574157715,-5.916072368621826,1.5634137392044067,-1.251220703125,0.79345703125,0.1678466796875
2.5312499,7.527369976043701,-5.91128396987915,1.5634137392044067,-1.0986328125,0.8087158203125,0.1220703125
2.5337499,7.5201873779296875,-5.906495571136475,1.558625340461731,-0.54931640625,0.5645751953125,0.1220703125
2.5362499,7.503427982330322,-5.901707172393799,1.556231141090393,-0.5950927734375,0.335693359375,0.1220703125
2.5387499,7.4986395835876465,-5.904101371765137,1.5442601442337036,-0.6561279296875,0.1678466796875,0.2288818359375
2.5412499,7.496245384216309,-5.904101371765137,1.53707754611969,-0.4119873046875,0.2288818359375,0.091552734375
2.5437499,7.4986395835876465,-5.9088897705078125,1.5275006294250488,-0.396728515625,0.1678466796875,0.06103515625
2.5462499,7.508216381072998,-5.916072368621826,1.5203180313110352,-0.579833984375,0.030517578125,0.1983642578125
2.5487499,7.513004779815674,-5.916072368621826,1.5203180313110352,-0.2899169921875,-0.213623046875,0.396728515625
2.5512499,7.51779317855835,-5.916072368621826,1.5275006294250488,-0.3814697265625,-0.3662109375,0.213623046875
2.5537499,7.536946773529053,-5.894524574279785,1.5490485429763794,-0.732421875,0.0457763671875,0.0457763671875
2.5562499,7.55131196975708,-5.880159378051758,1.558625340461731,-0.7171630859375,-0.1068115234375,0.244140625
2.5587499,7.558494567871094,-5.868188381195068,1.5682021379470825,-0.8544921875,-0.0762939453125,0.4425048828125
2.5612499,7.568071365356445,-5.858611583709717,1.5729905366897583,-1.0833740234375,0.0152587890625,0.30517578125
2.5637499,7.577648162841797,-5.856217384338379,1.5873557329177856,-1.1444091796875,0.030517578125,0.4730224609375
2.5662499,7.577648162841797,-5.8657941818237305,1.5969325304031372,-1.40380859375,-0.0152587890625,0.67138671875
2.5687499,7.577648162841797,-5.882553577423096,1.6112977266311646,-1.6021728515625,-0.0457763671875,0.8544921875
2.5712498999999998,7.570465564727783,-5.904101371765137,1.6280571222305298,-1.5411376953125,0.091552734375,0.5645751953125
2.5737499,7.558494567871094,-5.925649166107178,1.6376339197158813,-1.52587890625,-0.0762939453125,0.9765625
2.5762499,7.546523571014404,-5.947196960449219,1.647210717201233,-1.7242431640625,0.1983642578125,1.0528564453125
2.5787499,7.536946773529053,-5.963956356048584,1.6519991159439087,-1.739501953125,0.3509521484375,1.068115234375
2.5812499,7.524975776672363,-5.978321552276611,1.6543933153152466,-1.64794921875,0.48828125,1.1138916015625
2.5837499,7.5201873779296875,-5.985504150390625,1.6496049165725708,-1.5106201171875,0.762939453125,0.9765625
2.5862499,7.513004779815674,-5.995080947875977,1.644816517829895,-1.312255859375,0.67138671875,1.1749267578125
2.5887499,7.503427982330322,-5.995080947875977,1.625662922859192,-1.2664794921875,0.4425048828125,1.3885498046875
2.5912498999999998,7.493851184844971,-5.9974751472473145,1.6112977266311646,-1.3885498046875,0.6866455078125,1.4801025390625
2.5937499,7.486668586730957,-5.992686748504639,1.5825673341751099,-1.3427734375,0.7171630859375,1.6021728515625
2.5962499,7.486668586730957,-5.990292549133301,1.558625340461731,-1.15966796875,0.54931640625,1.7242431640625
2.5987499,7.493851184844971,-5.987898349761963,1.534683346748352,-0.9765625,0.701904296875,1.5869140625
2.6012499,7.503427982330322,-5.987898349761963,1.5131354331970215,-1.0223388671875,0.885009765625,1.617431640625
2.6037499,7.522581577301025,-5.987898349761963,1.4939818382263184,-0.885009765625,0.762939453125,1.7242431640625
2.6062499,7.536946773529053,-5.987898349761963,1.479616641998291,-0.7781982421875,1.007080078125,1.6937255859375
