# Time (seconds),Accel_X,Accel_Y,Accel_Z,Gyro_X,Gyro_Y,Gyro_Z
0.0012499,7.877357538111976,-5.461544884615911,2.350940313558901,34.565518957513675,4.109213424159093,-21.29176800673089
0.0112499,7.789388249613451,-5.214124753021106,2.280229279786283,34.32422268280555,3.314637327373885,-20.44978211637633
0.0212499,7.615694455823274,-5.003031527086685,2.2233444890931073,32.978770556674846,2.0656072231279485,-19.386309907806815
0.0312498999999999,7.530327063800908,-4.856930873269519,2.1993405977828053,31.0050198248853,0.6509203628732815,-17.842687657768646
0.0412499,7.509001325740678,-4.738889801733094,2.2274223626343708,28.99085902224429,-0.7606272895279403,-15.792503419198022
0.0512499,7.497599212604106,-4.549401681602798,2.2142887962626143,26.143702972708457,-1.9675164879636722,-13.473662343601552
0.0612498999999999,7.529687584314163,-4.424293935454211,2.1163338624224215,22.75594253465669,-3.069355182355261,-10.742966862731798
0.0712499,7.480885323724569,-4.38849538238075,2.0593822294147994,19.221539704622852,-4.633432420992291,-7.5441248487160495
0.0812499,7.488599873486211,-4.404406493195224,2.092760154629986,15.845874294360124,-5.928051507195903,-4.261046029744643
0.0912499,7.651299919557874,-4.447491940671761,2.155973579524213,13.079671383155363,-6.192642798317338,-1.0736487837152344
0.1012499,7.855890940759243,-4.427986486127536,2.24634152913956,10.559319348294162,-6.014941423933336,1.5967543641226316
0.1112499,7.980365029116359,-4.470400928597623,2.360650320784165,8.737906064352728,-5.382139919866218,3.861098325501138
0.1212499,8.070363219509852,-4.613899122459507,2.507888609515454,8.143549401854827,-4.070123847076367,5.929269235280519
0.1312499,8.1620154377105,-4.726529816276511,2.6532062995242907,8.200623481346803,-2.452779893400641,7.756603780327697
0.1412499,8.250453942792191,-4.817707392775693,2.7443859958974453,8.945974499937286,-0.7520426508752005,9.11991262814772
0.1512499,8.35894639959451,-4.932705380663775,2.8611259305688375,10.520855652034431,0.776364813342742,9.932977863547567
0.1612499,8.425930724273886,-5.038264677200151,3.0071103203160683,12.443169968946544,2.0897437416350284,10.432162940452331
0.1712499,8.462878547617454,-5.151111378643529,3.1298538147925017,14.287783612969573,3.133382116240608,10.678078835349151
0.1812499,8.476506973983911,-5.248772730898589,3.227484079750717,15.760194321993254,3.5381572018245957,10.532364347866853
0.1912499,8.472285354981958,-5.2587515106143465,3.301740711578366,16.42642446144696,3.466048474942587,10.032446159089341
0.2012499,8.46091275971123,-5.1530422981304795,3.4132367487589312,14.776940654694613,2.310336125395323,8.6960848659662
0.2112499,8.438508367695011,-5.033493874265198,3.505554075061153,10.630464295067851,0.47829042572524166,6.321246874779808
0.2212499,8.42624832196335,-5.040897613662831,3.531443295799184,5.176247501169482,-1.324208492412326,2.9887226911067937
0.2312499,8.435318622494028,-5.163611412294233,3.5847708477403604,-0.7983535579369929,-3.6154106985114987,-0.9799764504243961
0.2412499,8.441254298302079,-5.377543505831884,3.6701132458703842,-6.405057252153607,-6.004553629039739,-4.761324408630317
0.2512499,8.42793459144043,-5.573863664183994,3.731480963757572,-11.22070314397064,-8.476248410934836,-8.411037384893977
0.2612499,8.51250156025102,-5.730290877274028,3.795261973849874,-14.163566838604833,-10.818539281611969,-12.489725319411226
0.2712499,8.617326167005011,-5.822018389741508,3.855608021550723,-15.21943416266868,-13.23178922400278,-16.85650607337347
0.2812499,8.694255181957658,-5.873152922023596,3.9376560543005423,-15.015877362336274,-15.84230427286629,-20.99313895168895
0.2912499,8.794054513776635,-5.89012148581049,3.9535770754736017,-13.821148920827858,-17.836022316600403,-24.622138893250188
0.3012499,8.830938656729934,-5.828177083009144,3.8283294396639445,-12.115656047254921,-19.550241929085786,-27.791317308700652
0.3112499,8.872754668902392,-5.7060993851766435,3.6928716728467488,-10.894504291150792,-20.979056287640354,-30.49731907638672
0.3212499,8.885996260552332,-5.454221264254162,3.5529549226365185,-10.796333497744687,-21.79083022666311,-33.06151634402854
0.3312499,8.844168444163117,-5.162138668183247,3.3999140147693363,-10.888436045053895,-22.38938973468855,-35.75270200863048
0.3412499,8.801313600132934,-4.977769306062639,3.270729729390068,-10.97674432240795,-23.126115755846605,-38.55492734103064
0.3512499,8.745670331860499,-4.848336348154445,3.190158940524169,-11.655157404300967,-23.28991849308872,-40.63960260243249
0.3612499,8.731064288069463,-4.732026660305261,3.140583306284859,-12.687520294561745,-22.29921176171568,-41.658036913776755
0.3712499,8.772099207125857,-4.603870125532794,3.1129296028132933,-13.683978324586292,-20.71801042684534,-41.94091617712138
0.3812499,8.768991100724845,-4.460088126301283,3.0751810778311746,-14.712843599296965,-18.800755660939036,-41.1155440575745
0.3912499,8.66125514272221,-4.407974048958875,3.019330980051268,-14.971041515248356,-16.576014944048794,-38.972437470196766
0.4012499,8.526802970964663,-4.394578816975367,2.9331804861824833,-14.46759527104134,-14.0577863800265,-35.77810212516086
0.4112499,8.334550221807204,-4.236594757851781,2.651164714922874,-14.07108471199691,-12.07700000422131,-31.484375425237417
0.4212499,8.09802511838998,-4.1471159468490795,2.24700697331321,-12.555460555961249,-11.205477710114948,-27.532315698129388
0.4312499,7.881692360779675,-4.099881818305465,1.9189742225387447,-10.475888037539,-11.924799332620012,-24.783275814280508
0.4412499,7.83804826993242,-3.9025958291396927,1.6225946754021687,-9.04677473492774,-13.392470207036453,-22.158970668563164
0.4512499,7.868096698326229,-3.7636595534309802,1.282016608604142,-7.511213627747727,-15.113660989121747,-19.532154789966533
0.4612499,7.814068257884611,-3.7641810819698107,1.0738024815251326,-6.119896850273561,-17.275316877704103,-16.952203398979695
0.4712499,7.878778580387781,-3.660234179962356,0.9839219340901926,-5.914216390129751,-19.013507594533156,-13.996938138032966
0.4812499,8.081262445989076,-3.4983988577238163,0.8162726168320588,-6.828193617960907,-20.04873673358441,-10.746794311146651
0.4912499,8.217378553014594,-3.4311086339535177,0.6329562630045917,-8.545970237108447,-20.867528826865833,-7.69451659756653
0.5012499,8.31943543076075,-3.493279286160445,0.5184862318541863,-10.058359313557805,-21.44592541160862,-4.612310111300532
0.5112499,8.40551459949466,-3.638562343538064,0.40183741243552396,-11.030900815890417,-21.546219430464056,-1.6491595104093084
0.5212499,8.406174360614223,-3.8243553965747954,0.2694856088539019,-11.184824308704396,-21.117356694072164,0.9968869019878821
0.5312499,8.37923213140818,-3.9825831404604424,0.11323669466520174,-10.737426699854653,-20.409019777073073,3.3486970105027196
0.5412499000000001,8.409307555421181,-4.150159630211528,0.032664929832388265,-10.046374940907057,-19.43053228986323,5.443369503380254
0.5512499000000001,8.436160714895408,-4.303364370178818,-0.0018454321204667775,-9.646446567891637,-17.906343598043378,7.236701746955808
0.5612499000000001,8.36405461823626,-4.394315242468623,-0.054530676761118356,-10.05689398456002,-16.097013619798695,8.919511332723127
0.5712499000000001,8.288285288779322,-4.4949314704859535,-0.06042102686427092,-10.992122318047514,-14.047530095271227,10.081569128147276
0.5812499,8.307788048816898,-4.636708649982323,0.03853550059543466,-11.719921593808971,-11.805683240193193,10.281972529360914
0.5912499,8.285179120550907,-4.795221166578089,0.14508292516942656,-11.9490984803822,-9.57577170622846,10.146732985765205
0.6012499,8.247199209555284,-4.945555203216925,0.1731446262047599,-11.654957587076973,-7.547246198417403,10.020064611726257
0.6112499,8.26656076842317,-5.024759244009859,0.18435053689653744,-11.42673200769271,-5.718398589032287,9.897849635299755
0.6212499,8.273547254826518,-5.005507140720193,0.17817386626235615,-11.393739923995879,-3.700256534441501,9.666959214854973
0.6312499,8.308123792682574,-4.945316060493616,0.13747169688650676,-11.517754198912648,-1.8541134719782082,8.893960682894187
0.6412499,8.351806866200707,-4.903485762448405,0.17554160954786677,-11.780959618512444,-0.5115220618420666,8.23487582668397
0.6512499,8.378434484968487,-4.8620886371687515,0.3142391119843227,-11.747442891622667,0.5058147760504836,8.00999200242006
0.6612499000000001,8.40364122050727,-4.8046291349712815,0.4197814530371507,-11.253620484066975,1.2420499156135723,8.065321389944812
0.6712499000000001,8.41499090066087,-4.761517987473436,0.4493586253959393,-10.471661794696562,1.5390464339761756,8.668325727177983
0.6812499000000001,8.450967024914068,-4.667868643476596,0.41737645082990293,-9.693979512152604,1.4432336059000963,9.738542452356933
0.6912499000000001,8.510217733862092,-4.484350185490229,0.35475322815410576,-9.811710735660586,1.0614167347625003,11.074007708169837
0.7012499000000001,8.578896725383041,-4.318200979250745,0.341087484411023,-11.042386675678067,0.520134805679498,12.082648954957618
0.7112499,8.663514393972205,-4.201470099077786,0.42264090950400274,-13.051946228695675,0.3300784043562402,12.461075597333766
0.7212499,8.806321471867344,-4.147009080179523,0.5272059602564707,-15.405157467040766,0.6451366859530487,12.585087313657622
0.7312499,8.965582939930048,-4.178129630787278,0.6474719518457112,-17.28517847934491,1.5263797291316885,12.406538494228059
0.7412499,9.036650345094992,-4.274824403241323,0.8374157343717826,-18.17956374277295,2.382194144481676,12.109160307221781
0.7512499,9.061418416663825,-4.432071115317907,0.9715815246497218,-18.04962247701087,3.200071342007406,11.783380830965548
0.7612499,9.067140658540936,-4.549855791573484,0.9901315761263706,-17.390759641627895,4.041703552212554,11.213149490160315
0.7712499,9.007891204426812,-4.637284439880585,0.9467702429602662,-15.910496210746711,4.27886840848719,10.47215949309112
0.7812499,8.913967651647424,-4.7196718162176206,0.9288254352200898,-14.006053293662573,4.117715951932017,9.353677856017363
0.7912499000000001,8.83256572741693,-4.783393150631199,1.0043025181052951,-12.251515896569684,3.99419856582079,7.8066470109996215
0.8012499000000001,8.787940934355259,-4.8818895919973295,1.0703762757802335,-10.047858299683414,3.9957164492660913,6.435043315947569
0.8112499000000001,8.712980414904061,-4.97451167164065,1.0743850068393919,-7.967628024168582,3.6974496409679873,5.577317768617676
0.8212499000000001,8.607787837114305,-4.969063983843397,1.0590969907553325,-6.522343003703866,3.1760475349425525,5.152184655953659
0.8312499000000001,8.494148550794284,-4.876823551478176,1.003992893414531,-5.584618341221816,2.516217819517275,5.185950388749451
0.8412499,8.346845407954753,-4.767936755777398,0.8466618850628488,-5.603320678479317,1.7978435964747153,5.649199566257382
0.8512499,8.25242059372533,-4.616186032008104,0.6615419773806964,-6.610690644959359,1.0890225779737193,5.996247895523138
0.8612499,8.213910336694749,-4.478994191329993,0.5921299549485582,-7.606905212639862,0.43472342131186925,6.281050645384498
0.8712499,8.145067411622646,-4.461697132028857,0.5829016616042852,-8.552923408174143,-0.1927749688425998,6.811697228366012
0.8812499,8.139288634634417,-4.5847279721270935,0.6003767266841739,-8.556806986421003,-0.40397110310559003,7.872137811428611
0.8912499,8.108947227703158,-4.694260627662105,0.6520207413770492,-7.148803774400645,-0.48377811071214655,9.420487417865592
0.9012499,8.016822344490597,-4.785034613648361,0.6997922818371751,-4.5124903644835825,-0.8190124577718302,11.26222274658253
0.9112499,7.921077943632682,-4.878563076716122,0.7013224639731216,-1.218246018988023,-1.2963574958325161,13.252041400362005
0.9212499,7.82540981205807,-4.876572637855919,0.643586078230345,2.0362305835875665,-1.5880423980660252,15.015149154143955
0.9312499,7.767478138587554,-4.768670097762543,0.61229842298598,4.469570382624666,-1.7909912051785353,16.404059132674234
0.9412499,7.733128923069844,-4.62686535259174,0.583314251047451,5.610722943220443,-1.819973472328162,17.450501836444165
0.9512499,7.747763220504527,-4.519585142838669,0.4701331160567765,5.230205940337407,-1.376329094882741,17.980694153101663
0.9612499,7.842941812984912,-4.447587490702651,0.3835080693912748,3.01051407779051,-0.30750011290530643,18.085548955423988
0.9712499,7.974556550322275,-4.3561778034462195,0.23929854975510184,-0.9787979136594492,1.4275244287229456,17.90232821035574
0.9812499,8.109269157559034,-4.220034123220125,-0.0038576300225124137,-6.965552070416762,3.9399712025640716,16.721865260135367
0.9912499,8.204710548266096,-4.1796570892617915,-0.10037906707832438,-14.374224383036614,7.4767905950920275,14.484230954877658
1.0012499,8.132656297409229,-4.346513119221554,-0.1003640174910046,-21.048288402897782,11.608049341265625,12.351893989774048
1.0112499,7.967339967760893,-4.6248295063947005,-0.10202613307185034,-25.51572398442171,15.706287205218732,11.037911977657979
1.0212499,7.930917022511504,-5.003169353952834,-0.036960468684907384,-26.787711443980594,19.351206268980622,10.85314500098907
1.0312499,7.86415072055321,-5.368753161110125,0.06054204697596607,-24.636428174586086,22.474040900291335,11.784979777861695
1.0412499,7.750566642999051,-5.612413505140327,0.21032644684088578,-18.71296287680485,25.065134964780235,14.56641800269795
1.0512499,7.866709811987364,-5.805466952806876,0.4526975619551039,-9.672690869053552,26.874069789184706,18.597809795652203
1.0612499,7.9595521695765825,-5.854046168649239,0.6680977242099816,-0.4865517760022933,27.253670402267446,22.4673734993855
1.0712499,7.945557637148617,-5.734822286995599,0.7928989351840813,8.12176786096565,26.409231527147494,26.44993364340708
1.0812499,8.060539351630949,-5.517878715705373,0.8468858686382496,15.23818926409574,24.731597819151805,30.093817077646182
1.0912499,8.312706310019776,-5.265613497769717,0.8759708417720425,19.403156934878837,22.416984188802626,32.506861939537764
1.1012499,8.536951515070761,-5.052579810219853,0.9691427348661944,20.300910138740676,19.743766131808044,33.355497340245265
1.1112499,8.665240385345088,-4.877648648921922,1.036814040687926,17.984803823739778,16.758342257099844,33.07441187167795
1.1212499,8.780789548602687,-4.79470487122316,1.0301578831098688,12.69990234561219,13.88458908046108,31.913960691565272
1.1312499,8.880796934058989,-4.807434185522501,1.0845283494518423,5.110701344724644,11.301691095154293,29.946868626196174
1.1412499,8.989522279710318,-4.9262433397327134,1.2919896414084218,-3.2910692207660626,9.042716767256335,27.415882535307837
1.1512499,9.091780572696848,-5.220163081420964,1.5119323419478006,-10.619242066978254,7.231016435087078,24.45152321291608
1.1612498999999998,9.116632013398693,-5.560393825859846,1.6390376541635943,-16.14427913617336,5.84447379587948,21.237317708780107
1.1712498999999998,9.079686020767795,-5.926617626011909,1.768030879130696,-19.03815359778343,4.538634149294898,18.16992984375508
1.1812499,8.995505727765956,-6.29290080981417,1.877802309567837,-18.647888306730053,3.1774432989610384,15.115924858650834
1.1912499,8.901920870094514,-6.562213191447689,1.9259644402838452,-15.723740452642875,1.7588666735322949,11.942508209983256
1.2012499,8.834292680867748,-6.7771544422182055,1.9213296105722688,-10.983505610350385,0.49354490884785873,9.0396557387814
1.2112499,8.826029842954915,-6.9185907417855494,1.9180966966281632,-5.304574043268183,-0.6089800447247098,6.566266404050031
1.2212499,8.785380672676533,-6.9049559544025545,1.8981573064782682,0.2515719218634118,-1.5765602004233974,4.439739903869109
1.2312499,8.629111917560117,-6.750962970100478,1.8006228709627927,4.913490960427546,-2.564419925093124,2.301366013863244
1.2412499,8.486063940195637,-6.542047003230512,1.6517909656084278,8.824136138178593,-3.714861911061262,0.2183228967675376
1.2512499,8.395245941646564,-6.250024629646619,1.4605251482530497,11.382475390642254,-5.239861035328788,-1.9857449695631428
1.2612499,8.327151987675043,-5.913080242916271,1.2819269097442878,11.674925913252537,-6.942738392783257,-4.007681882671613
1.2712499,8.259109613227801,-5.682958200206416,1.1746789219535123,10.454306163530006,-8.16229052633964,-5.3507844243252665
1.2812499,8.12299659298425,-5.51600969076994,1.081817974959119,8.242274221734455,-9.26689703245269,-6.520854304732196
1.2912499,8.010984833986893,-5.395408124696067,0.9741807622452489,5.674631895355024,-10.35480619314776,-7.340152503315971
1.3012499,8.005982815179587,-5.351617187532208,0.9302986616626616,3.597473836828745,-11.347172935547832,-7.885929960240534
1.3112499,8.058243552233995,-5.374611205292251,0.979370440163057,2.5332156699554016,-12.01168963901707,-7.917411694761559
1.3212499,8.176108451251963,-5.404450795988575,1.0621506979835336,2.4600852423344626,-12.225122617265985,-7.712192678296516
1.3312499,8.275636561181727,-5.448336119177903,1.1651706768900356,3.3908376645411864,-12.034550712652432,-7.420684987476494
1.3412499,8.25269877791987,-5.541538201792152,1.2160354134460325,5.585818677606085,-11.675537224913812,-6.770434479917839
1.3512499,8.142524455955533,-5.63515062118326,1.198760087673562,8.629020913435948,-11.229261553135766,-5.760489205484764
1.3612499,8.053449170816458,-5.675018071818876,1.155151178367063,11.956462194359043,-10.805419846673152,-4.933203873248867
1.3712499,8.015073288622741,-5.59340060324875,1.1326554405764426,15.03834405992979,-10.667703767024761,-4.643620454432672
1.3812499,8.044406085505384,-5.464277576321653,1.1575286646951448,17.253906691420653,-10.503716498421943,-4.903091646330947
1.3912499,8.073378962933536,-5.414791317189949,1.200335050527033,18.604361591355477,-10.071444490921085,-5.251898817754363
1.4012499,8.042845795588848,-5.396645185854337,1.1961539434128767,19.222109797311873,-9.77060456976182,-5.378924942228622
1.4112498999999998,7.978202445116238,-5.380144720906755,1.1750993151382705,19.281611992799103,-9.692161088904333,-5.289373185627109
1.4212498999999998,7.965809058289391,-5.36879019688796,1.1849742165533026,18.955398059777902,-9.37523876176412,-4.899269638140685
1.4312499,7.99018535492125,-5.395623391847364,1.2160940161011984,18.47048331349058,-8.960300158933997,-4.552588435589902
1.4412499,7.909420801638151,-5.417143899037084,1.2443041923661207,17.587061614952802,-8.49105759166407,-4.3924527248493845
1.4512499,7.83616524122451,-5.453457745950598,1.2827384013230443,16.948184468956594,-7.813151831839475,-4.200819637956319
1.4612499,7.815826290681018,-5.5297475794300555,1.316743216490413,16.935717871414646,-7.435053498148807,-3.7245725449802904
1.4712499,7.686244356603065,-5.610678546416276,1.2812286861551005,17.259459345035506,-7.339839783943343,-2.935506768440077
1.4812499,7.460633839979885,-5.6357630846685245,1.2019405309246392,17.554372831338558,-7.472327514052231,-1.9200763553613989
1.4912499,7.276713722352924,-5.590300051298735,1.1553763809531605,17.5568817231005,-7.822472032340766,-0.8929429610765839
1.5012499,7.130513655203056,-5.536539018516001,1.106415219722901,17.433060356770383,-8.089930051263027,0.17320493465329476
1.5112499,6.950568996502712,-5.4815392660445585,1.0141734254007289,16.979558585980225,-8.421019771072231,1.6500022488207777
1.5212499,6.795728968206944,-5.430113025292486,0.9334595329050127,16.130192967593786,-8.706875256221101,3.4139943630131757
1.5312499,6.732774336588111,-5.367613750385713,0.8882608856426486,15.043610424882669,-8.624411402428247,5.522405394204669
1.5412499,6.722874204707745,-5.2723751550453715,0.8180763593998386,13.564065116596925,-8.099973163011137,7.954620286430968
1.5512499,6.681374215344732,-5.193153778712467,0.7345859639657022,11.721340649507365,-7.049229882709875,10.885880602190877
1.5612499,6.578353630675964,-5.120713100086348,0.6250724640778332,9.77314866970279,-5.801891616962797,14.318909886144981
1.5712499,6.429319270987864,-5.044944278656262,0.5023454645794627,7.5154397388159815,-4.658078020601519,18.06779866946557
1.5812499,6.227806971554034,-4.999815697243776,0.38653526197768134,5.619299935847742,-3.5066815030264094,22.19291031246913
1.5912499,6.020763791041126,-4.999122803509435,0.20890819990650017,4.1324161378065,-2.8539579017647494,26.889565740685406
1.6012499,5.722515356090076,-4.997786422038474,-0.022424765152111205,2.7290178493706527,-3.2839202017304294,32.417321359029614
1.6112499,5.209650347500414,-4.958305499978434,-0.3162964407994553,1.1548798435474972,-4.481631916620765,39.05573347366432
1.6212499,4.576586293383836,-4.836288902633912,-0.654681066522118,-1.3646545315331422,-6.360741593431944,46.93015618086585
1.6312499,3.928270372764773,-4.6108683060651465,-1.0719509714967779,-4.685189236362383,-9.14666728045009,56.1463802863506
1.6412499,3.3162869898349454,-4.279593467885805,-1.6515904648600577,-9.90338024542761,-12.21368382560732,67.24300960056435
1.6512499,2.89469158778672,-3.930925714289798,-2.1630512341896484,-17.934339586557346,-15.17147543281248,80.06177249273613
1.6612499,2.5693460554571863,-3.652952268679904,-2.5431704068071253,-28.392271214665683,-17.89810716992589,93.66636225704775
1.6712498999999998,2.1876633341952765,-3.5264273641518566,-3.080555881403573,-43.6592615156577,-20.131495335390227,110.02652834859119
1.6812499,1.8239519921085163,-3.627510494577405,-3.7087414353437724,-61.34748933977145,-21.713736632750464,127.2117300115883
1.6912499,1.3564133716817077,-3.924054544777512,-4.330721156118267,-77.47783360255366,-22.34041714111521,141.8195250136355
1.7012499,0.7210704984239978,-4.4604230236963405,-4.993699261851847,-94.50051932718202,-22.39404661638434,157.21795429295113
1.7112499,0.07339482912288059,-5.173854121418292,-5.669241212605496,-111.80468513042487,-22.066900295255238,174.329862493089
1.7212499,-0.5428520739196999,-6.014658683549484,-6.3090288242740655,-126.9004658482419,-21.33440607566115,192.2982906954339
1.7312499,-1.0434462496978085,-6.944187430530917,-6.788568713149424,-140.45342418631967,-20.0158403553967,212.13136786320294
1.7412499,-1.3527625046076037,-7.886432493082871,-7.304321168623351,-153.8624476387166,-17.813152169616806,234.6081046083082
1.7512499,-1.4690186249760406,-8.955912361517273,-7.866960849327692,-165.94079626540622,-15.260921008594877,258.803192744031
1.7612499,-1.3819718492898783,-10.169233549754003,-8.347167530334106,-175.97503145774886,-12.600940917197324,282.99768335297364
1.7712499,-1.1055947516913558,-11.205660124581314,-8.889931917057769,-186.48613101458113,-9.061524537483743,305.9111942665083
1.7812499,-0.5216374288950589,-11.917993271187786,-9.512435518835018,-201.4792739119759,-3.830334527200257,325.66008628771857
1.7912499,0.13909002530070091,-12.817863393983142,-9.978547304698912,-219.2253203989876,1.9237608433133655,340.3924800564882
1.8012499,0.8850710163437926,-14.258345451974147,-10.081999364487944,-238.01578040920973,8.054331739313465,350.3069541196117
1.8112499,2.021716860394584,-16.262171667087745,-10.148943363653194,-256.833115330411,16.520344327849976,357.2359377660618
1.8212499,3.690552002366666,-18.710581471288315,-10.350742035626098,-274.453151888861,27.66397938504816,361.31401412623273
1.8312499,5.864765661752862,-21.879205227438877,-10.116529561287415,-285.3508131657141,38.53406660542655,360.2042363505596
1.8412499,8.339629805534653,-25.8088894677134,-9.437124524976314,-287.3740183080178,48.40829655820948,353.46152828888796
1.8512499,10.92174111776468,-29.988508188580965,-8.776622047173943,-283.4694452676971,55.26968785443475,339.144855029298
1.8612499,13.909135763179979,-33.60912106672324,-8.39103139193049,-273.812659150194,59.09530732289091,313.5403603283545
1.8712499,17.252153995062045,-36.03608950354698,-7.925082914133368,-261.0231770736127,59.42892928972226,270.391674411009
1.8812499,21.387041826303804,-37.46412784074189,-6.929074455398563,-247.8013278455818,50.852635935525804,193.1931997854119
1.8912499,26.599085536103473,-37.73561022166132,-5.498359652736562,-239.27224194008545,34.63284856582514,97.79001442267696
1.9012499,32.39953406111014,-37.21099895025355,-2.1490396515956065,-236.01494782794327,11.833943856557742,-0.8316288229469828
1.9112499,37.6112238342976,-37.054409359537914,3.39619076797724,-235.45613871889708,-17.709955607464625,-108.35680357404264
1.9212499,39.7716089324918,-37.030745789829155,9.008056292757432,-244.46887019657825,-49.70832658138141,-216.04571048450293
1.9312499,37.69241253279733,-37.07206115880036,13.543721946772582,-262.86056993177823,-78.65933789097815,-319.9092992698048
1.9412499,32.695238879961735,-37.75818618240664,16.656928760814004,-282.1122292221783,-101.6013352777246,-424.2474787434892
1.9512499,26.302534946494102,-39.81914154525093,19.038229931060457,-294.47206891501,-121.11615479291474,-493.7359896143226
1.9612499,18.358065190364684,-42.774954957178764,20.793489550252872,-290.84594373397186,-140.33498481834948,-502.14868902494413
1.9712499,9.470997156493558,-44.39197501408977,20.50486160581276,-272.312286513688,-161.0049208064685,-498.9338707172034
1.9812499,1.4254280641658237,-44.00136132722267,18.603731597051194,-248.44601766459496,-182.90146290751363,-500.20637477595744
1.9912499,-6.514540754664845,-41.684178835319,16.039802862024164,-232.12814437764933,-205.21471588464854,-500.20706293389
2.0012499,-15.312769631705553,-36.809430119509315,12.310921711792748,-231.14488276898987,-222.93795505803394,-499.8977309125864
2.0112499,-23.702490708357992,-30.034121450418237,8.077949124496714,-238.34168783801294,-229.95015971125497,-499.0580848299744
2.0212499,-31.385957033788312,-24.119856891284616,4.766006145376039,-234.4629633797539,-221.66340288328684,-503.67120053838676
2.0312499,-36.99499090649263,-19.556808082394742,2.149681304405577,-209.1075479161368,-189.86074476094248,-478.55728895255083
2.0412499,-40.01456653459746,-12.936426246104627,1.4758155121563985,-166.24685459573558,-138.21772595878636,-401.15480115128764
2.0512499,-42.90620825965888,-4.604191810462167,1.0773180202679613,-115.64577071545794,-74.61894348920185,-327.4415806492908
2.0612499,-42.387874088440505,1.705596234170001,-0.5341771930635392,-64.10083194961004,-11.274886193039075,-268.75455907091055
2.0712499,-38.38104920923847,6.26829987800012,-1.0558631134745544,-20.45954306130481,41.74135836594899,-213.75919358493738
2.0812499,-35.895702197203185,8.321123926871923,-1.864656923276909,21.07078048034146,86.20065599514749,-155.27238963373281
2.0912499,-31.485863833337728,7.566657341533219,-3.552164203037156,70.51008214919723,117.73325469715886,-82.49914445644687
2.1012499,-25.29884148839982,7.002080043419041,-4.7276515899206135,112.82480247372102,132.6677395062421,-20.06182823582962
2.1112499,-21.746086435568586,6.22200044578458,-5.700379144778917,141.48321773966092,133.70753208231577,19.764647901433968
2.1212499,-18.699772956656602,4.449684547248762,-7.597858602875229,158.09913806494635,126.02284961839254,48.6289239489135
2.1312499,-14.825233389419552,2.5922641764314824,-9.813424129185435,162.36471717063955,111.55358072641715,64.91506757200702
2.1412499,-10.55796455557391,0.9046534483170112,-10.9623426547954,160.68321166214096,95.08537625158533,70.19646186221331
2.1512499,-6.221291565033879,-1.0301929614852325,-10.867358681055636,157.16021633360117,80.63788556079558,70.85461605029677
2.1612499,-2.5545602176646507,-2.897548141153486,-10.629855687502461,148.74446144128217,66.8700160837418,71.82996519185662
2.1712499,0.07344817862751347,-4.21102909212488,-10.894068595802525,134.25994982554815,53.63532827414273,74.01895123548508
2.1812499,2.099804494774907,-4.882453284522934,-11.386098571973362,115.26970513476827,43.53386896393669,74.88410893917272
2.1912499,3.8784450820883944,-5.186433326532402,-11.549540012471896,94.09257581184629,37.464856355263514,71.75375818758954
2.2012499,5.283123150689904,-5.461249769138207,-11.572129894986222,72.83997302986035,35.234718672861504,64.91832736520122
2.2112499,6.263678673432164,-5.852695001104208,-11.599452720475043,53.03988889910189,35.79180010581015,56.13089839653951
2.2212499,6.9898106889448055,-6.364018189940846,-11.34439667725537,38.342179174880556,38.68222557735605,47.84290946104055
2.2312499,7.3035795856881345,-6.857027686857926,-10.935374997582583,30.282586422085977,42.93786318247808,41.346513717641095
2.2412499,7.236537060174748,-7.36140408681028,-10.581823067847042,29.510094991959924,47.97795435475404,36.82674724064496
2.2512499,6.847560126996449,-7.532489843130166,-10.062557115338768,33.580946124972485,54.229278786154225,33.861175737267565
2.2612499,6.310970350091729,-7.423575514965622,-9.490131894180195,40.823185961247674,60.86056701752818,31.593414927184675
2.2712499,5.958454510350974,-7.116846208374198,-9.397323707838213,49.11503097858848,67.9806353840807,29.484580726376166
2.2812499,5.4602069774505715,-6.453751164000783,-9.436905800087366,53.562389282487906,75.0731950856429,27.528535576248487
2.2912499,4.763125324033804,-5.840793917592179,-9.179727819415543,53.171469409810825,82.7184173750041,25.401872365429284
2.3012499,4.208312524495252,-5.4079840327456425,-9.04032746331431,47.88881687075738,92.67082316641547,22.138703687584155
2.3112499,3.8736296370933547,-4.919446655282614,-9.011567484148621,39.21510456080984,102.29145342699717,17.666225052104586
2.3212499,3.830239964921231,-4.336775351227966,-8.674357607161722,28.87630365623283,112.2001533781583,12.432200517582821
2.3312499,4.199545683069287,-4.1221231955073625,-8.09110076775412,20.110069449190068,124.05036640911196,7.141897856446674
2.3412499,4.755296753631126,-4.222232090780065,-7.391577440510709,14.54071111094537,135.91736228080615,3.3449708467083954
2.3512499,5.1821314970455,-4.225017472989623,-6.6249196558339944,11.119045727661383,147.2653639079046,1.6732668620520381
2.3612499,5.329824313121347,-4.65172014996742,-5.950847036556897,15.091900415279895,156.24693139145444,3.3813743435999717
2.3712499,5.156772277971899,-4.9579576299554,-5.534754191551432,22.51597597081239,162.11587326852657,8.166452049510298
2.3812499,4.967162983361007,-4.624128202863478,-5.294586255324683,28.831132435455196,167.16815430428016,14.513397799376992
2.3912499,4.740967774359672,-4.5563398704760125,-4.98035223791816,37.47929836669467,171.41405948560978,21.134468117068902
2.4012499,4.658342730074716,-4.778613140706211,-4.803891843087807,48.28351176882047,174.84052383752953,27.93374701588002
2.4112499,5.041027700106848,-4.777235607132031,-4.775560039176477,58.53874452553728,178.95968533235353,34.301700846151
2.4212499,5.385150749972699,-4.449252011932335,-4.511644003109547,66.4691560442293,182.9944954340856,38.68562401694251
2.4312499,5.51844681773395,-4.119169837040163,-4.0837425473898445,71.7672167351674,185.82964396810524,40.572867965155616
2.4412499,5.767185660602056,-4.140997995928696,-3.77052006864962,75.68726462020098,187.78759224679632,40.59892511163021
2.4512499,5.995969113526644,-4.679037664636477,-3.623836367205968,79.48125828048374,188.90479543703339,40.51485749476243
2.4612499,6.142302677584076,-5.323622935789138,-3.4783370857964444,82.94386658592634,189.56438030110485,41.01383267529934
2.4712499,6.216029101317403,-5.69101072212484,-3.170342340936736,85.71100495801579,189.35110365276748,41.03997466251291
2.4812499,6.250149229233182,-5.971516510898478,-2.733363583171147,89.51607101829235,187.22251291953813,39.58359939073543
2.4912499,6.49694014535356,-6.40893073902468,-2.470501552674497,96.06738507907336,182.93188645345734,36.85429478666354
2.5012499,6.919866378178519,-6.6445541910796395,-2.417187765677817,103.44299581330661,176.250581861794,33.35603753552769
2.5112499,7.481799053058138,-6.662177909003114,-2.406475744362635,111.72932817764543,166.7889642950725,28.866048303320106
2.5212499,7.916951503449189,-6.720965523867854,-2.3539145749789183,118.42819986600084,157.172799281301,23.931446197421096
2.5312499,8.041113253780882,-6.541760982303144,-2.169093667316341,119.4095660580772,147.98593578567207,19.213927377889586
2.5412499,8.350733492107993,-6.180135907778277,-1.8972195261865614,115.9150863046892,138.97049008967772,14.01450937826203
2.5512499,8.67518150267727,-5.842656929873202,-1.6144260299950342,108.82072029106811,130.6068649027822,8.329693382570257
2.5612499,8.802178958461548,-5.525433965824059,-1.3892431169088,98.22818149027339,121.96719373468909,2.243566206290799
2.5712499,9.133877529259514,-5.4686529022264825,-1.373067907673685,87.14734317304794,112.35384571773672,-3.651423984397631
2.5812499,9.56563220614886,-5.713715826809889,-1.4487794005381618,78.00194604811486,101.51732975168443,-8.4482719115516
2.5912499,9.707026027732992,-5.953714999721292,-1.4251967573128685,70.2788525104766,89.7665549959862,-12.164857631639181
2.6012499,9.551878964999412,-6.0728636080427885,-1.3554511950750732,62.919287002865666,78.26772067185986,-14.950022713384074
2.6112499,9.21858398686936,-6.073839522098427,-1.2787781142545862,55.86593280388395,67.11045380008929,-17.127642715955574
2.6212499,8.59126149910155,-5.751450887039345,-1.1580915019234528,46.176717142546295,54.904301004408744,-19.695220401388678
2.6312499,8.332596436949503,-5.253055034748552,-1.135773179204225,32.66668452558335,45.23090946981335,-23.397877236658793
2.6412499,9.125229518936715,-5.3848003992515245,-1.2362208839353994,22.832739045487955,43.42409994242452,-27.227935847310675
2.6512499,9.231909974146111,-5.98780887242589,-1.3353779714399443,18.200950365152575,41.69299878737915,-29.742374129640268
2.6612499,8.424440311414017,-6.725974935673599,-1.4386746492984828,16.78749489962894,35.50649098786168,-29.34863953551537
2.6712499,8.28991075157198,-7.432613828426357,-1.4076979220713524,20.239530642042975,29.32512013141271,-26.336967889811838
2.6812499,8.479340094702671,-7.55431444367432,-1.1176967700514757,26.5690706363057,23.943999018408434,-23.742698022030854
2.6912499,8.642882833902725,-7.407162260465704,-0.8672564179949982,36.800559099277855,20.2894845203458,-22.787103263033536
2.7012499,8.64482355987809,-7.174226175486618,-0.8207305876041141,48.96502975563263,17.67405509353904,-23.119304496903005
2.7112499,8.457879987471031,-6.9362095620972,-0.9663016083750403,60.283950902594455,15.180086563355642,-23.465307181215366
2.7212499,8.215127495943582,-6.632391889528496,-1.2413222399023847,69.31016228294392,13.166811742908166,-23.183525979628232
2.7312499,7.9475027047025995,-6.017318783104327,-1.4693301931732916,72.58881437066256,11.307883215865587,-23.13756675244169
2.7412499,7.827502809983643,-5.445810344146553,-1.6021911246132043,71.39307518651111,9.425413831845386,-23.990866476226746
2.7512499,7.803617711826107,-4.994575463298243,-1.7164697569817828,67.51179498559502,7.320962336345816,-25.58296095268285
2.7612499,7.842323145553642,-4.638890582708695,-1.7285472997493423,60.48593984510709,5.359963835436344,-26.720434637439656
2.7712499,7.969597337225746,-4.368168176634575,-1.6421079403894954,50.88027540976329,3.795662302305252,-27.158627599936107
2.7812499,8.043626521486797,-4.202754119841756,-1.4860093085396582,40.189896656285896,2.208486299993688,-27.309118082426018
2.7912499,7.981320712263142,-4.2523589480162185,-1.2649767837939514,30.215206399920127,0.4332967923418584,-26.917199060566734
2.8012499,7.8334428738130155,-4.5418115207082,-1.1252471100853243,21.946214647074537,-1.4725280189992103,-25.629770846392034
2.8112499,7.64140471515005,-4.861711159139031,-1.1247331203014461,16.038900421193237,-3.580344167121176,-23.447798986365658
2.8212499,7.521287308339528,-5.152355946118463,-1.0728636659740105,13.14070880019676,-5.715611102655411,-21.15373655349102
2.8312499,7.535609139344914,-5.3830191719543015,-0.913369341803539,12.504178780603972,-7.680660232131926,-18.893944019129705
2.8412499,7.636449799830346,-5.497004049515764,-0.701485149742393,13.091529365136111,-9.430993739924126,-16.532138538828086
2.8512499,7.777024435063184,-5.531388308335462,-0.5552759152461146,14.752816946682874,-10.753602458915918,-14.100707973986898
2.8612499,7.846230087237809,-5.4283727795428005,-0.5042910608550317,16.07815191986917,-12.023849303265639,-11.490404859601057
2.8712499,7.8386337788897364,-5.201906214397316,-0.420316634121009,16.266275645085443,-13.361298251092148,-9.02900730935631
2.8812499,7.9092404324897725,-5.012225598673759,-0.2998376209181449,15.442269659546252,-14.40427114967322,-7.166450224212417
2.8912499,8.087137143930388,-5.088817570029938,-0.1742520366599824,15.803715118744286,-14.510285670805024,-5.4066723095744225
2.9012499,8.167015561001765,-5.339543927343949,-0.09113678485642593,17.99334332849476,-13.892433056863805,-3.4631009631661165
2.9112499,8.135058022924053,-5.41452707249362,-0.032839456664903684,20.088336902636907,-13.50372110697805,-2.1773693981364426
2.9212499,8.228713045790592,-5.405230129681944,0.19399215225812427,22.92454946566743,-13.102894682616729,-2.4841485584041525
2.9312499,8.423562100170946,-5.521838260073369,0.5200140219278642,28.23782162230625,-11.780460907897838,-4.114324795824601
2.9412499,8.499366283280256,-5.692209589797475,0.7176111504964393,34.36126451585544,-10.1368026926945,-5.698106250804688
2.9512499,8.443646295510277,-5.786378700857286,0.8477356699577129,39.73874135690163,-8.823907116387643,-6.498721826446093
2.9612499,8.370134119115411,-5.7499372129375725,0.9786892419384354,44.433471106982516,-7.687058323561989,-6.759136943902129
2.9712499,8.287369409166928,-5.545528722650241,1.0097808685342649,47.40816889377087,-6.764590762321369,-6.960673541649249
2.9812499,8.234011624160408,-5.2346519463632815,0.9145751838100554,47.920225419939925,-5.929618670068005,-6.922862539501874
2.9912499,8.292337833357916,-4.971602298022378,0.8843245517690843,46.30921573891592,-5.606600308103182,-6.782609068112551
3.0012499,8.489023089696154,-4.761847750889333,0.9827317145910526,42.692265572402995,-5.462609059215266,-6.5436641368964255
3.0112499,8.692537251357379,-4.538661115451785,1.0481691333262069,36.89818261824302,-4.856442598221161,-6.201697299721504
3.0212499,8.737065769841566,-4.36575416627557,1.0578056790543415,29.9194091271461,-4.455355598628221,-5.895334780974341
3.0312499,8.622252171199968,-4.350902858665385,1.0081306718236824,23.031338136539272,-4.303452261044695,-5.476464619245046
3.0412499,8.415272693605502,-4.489599247006211,0.934943472044598,16.761411800797436,-4.51490867852042,-4.673850433182437
3.0512499,8.28195757446814,-4.652711878246313,0.9314163063057985,11.323596481410403,-4.832543194981828,-3.425998666499296
3.0612499,8.352305044489322,-4.825198025922839,1.0314901193288737,7.603332079589767,-4.653732605117379,-2.3097125113472505
3.0712499,8.549339797804533,-5.028931627252302,1.2718694431551445,5.941095171350013,-3.925358562419499,-1.510364596191418
3.0812499,8.714671827487493,-5.2254589001408585,1.5198052661623893,5.7023242300519055,-2.363390270179125,-0.5493668015004828
3.0912499,8.725760999890369,-5.477592947355587,1.63046023904142,6.893703440986484,-0.4004792545702426,0.5260588470647644
3.1012499,8.669639648230067,-5.71285063516998,1.676826631475741,8.773485551327894,1.6070347765499002,1.3417336549714456
3.1112499,8.637594905371609,-5.839065205175137,1.6870737883545317,10.834223672072167,3.4053910692706872,1.8206513808731983
3.1212499,8.553887611425662,-5.907574357551329,1.653867607626106,13.378716471479665,4.354512186679843,1.5794467911632855
3.1312499,8.435883287185447,-5.9459652505024,1.5988847574105882,15.79878745639778,4.3813795610934525,0.5604025376383001
3.1412499,8.283395630631073,-5.882402481329958,1.4760526408130836,16.924481343289266,3.5588903761268895,-0.975377866035341
3.1512499,8.162123657382981,-5.755628358493901,1.2701133407675695,16.696283421582905,2.4366891314155392,-2.8697910070127675
3.1612499,8.137800294025741,-5.618210641972602,1.0932760601649971,14.79756853671569,0.9609588281366725,-4.488813939132994
3.1712499,8.168382165717448,-5.467137184628613,0.9763298758713528,11.431207691329377,-0.6482057992279344,-6.041025146416066
3.1812499,8.241632929713694,-5.314642152326307,0.8769791069817297,7.0248429585734025,-2.1083508518936225,-7.7757822911164665
3.1912499,8.333027556601355,-5.163586599995358,0.8093111014510074,2.1596918986860585,-3.1660596743294755,-9.676825770335618
3.2012499,8.37013352335594,-5.101039395528862,0.771922533535266,-2.098522175586579,-3.7502520582282504,-11.722772225900336
3.2112499,8.363897593623157,-5.1841646201348475,0.7042042897217636,-5.3311426496350025,-3.979636617171854,-13.38042468918322
3.2212499,8.3993647890337,-5.305487442264722,0.6334270452257459,-6.998118347029665,-3.7042899727044074,-14.000424173090359
3.2312499,8.505939637056438,-5.362562510897946,0.6406138100214751,-7.2541009983366775,-2.9470351286198806,-13.977480282368631
3.2412499,8.630797612631829,-5.369181004162161,0.7313897861330498,-6.758599157297522,-1.6275824416117683,-13.252851430573259
3.2512499,8.689471959490524,-5.428561133453989,0.8373119208512744,-5.438445167388928,-0.07840514509479389,-11.534641982159433
3.2612499,8.628351768398156,-5.454915045266513,0.8077014747452876,-4.359631702039298,1.307394801706271,-9.13964391840971
3.2712499,8.533977423446261,-5.3512814607383605,0.6449876498145043,-3.7593971908724777,2.190617488518271,-6.6906736729987815
3.2812499,8.470470646635686,-5.233082372348596,0.5038396616342193,-2.8824106770777074,2.1716104511167558,-4.8449965677487095
3.2912499,8.354093246957476,-5.107205791722331,0.3912458572085683,-2.862602363461446,1.5118392107407879,-3.9125254696059444
3.3012499,8.315193017364498,-4.975648033702869,0.2917888059621436,-3.9037555207729815,0.8358656050717204,-3.605874765739152
3.3112499,8.431857094072269,-4.914593777128494,0.2721396006626457,-5.335564196691139,0.23373806938217861,-3.6635689931739033
3.3212499,8.517117786769619,-4.894477656127998,0.32753717961568624,-7.04829316543691,-0.4186840813545248,-3.978162533656746
3.3312499,8.533740205045683,-4.933841417649312,0.4000272253359156,-8.286096840671535,-0.5940589464400777,-3.9591954162562804
3.3412499,8.474830271706834,-4.998757544753389,0.4572982549911335,-9.05150907333021,-0.7012122656307259,-3.414008804747842
3.3512499,8.322031725685349,-5.055221739621386,0.4735035527077619,-8.79912548308916,-1.0602110807973415,-2.517568408606765
3.3612499,8.128334854660892,-5.103408204179396,0.43171575758950304,-7.520392651144246,-1.7081388432826168,-1.7117616891660898
3.3712499,7.972090850246543,-5.075198362747976,0.3582590839088937,-6.4671162202412065,-2.6896832192219398,-1.1849876386667264
3.3812499,7.910733728944773,-4.982597648959518,0.28783044883348213,-5.733568119036269,-3.5181136742229997,-0.7763155857908629
3.3912499,7.9248901662376525,-4.882263410191217,0.27084901520073934,-5.663336318140792,-3.9048189555474075,-0.43060886805944115
3.4012499,7.919370777774502,-4.817583990450501,0.3084606098100525,-6.624394692684267,-3.9685511469609773,0.06900331325983688
3.4112499,7.865340417174503,-4.75688631217829,0.36628425638710094,-8.319239660176025,-3.1711941686674803,0.8466568315138739
3.4212499,7.8324728867844176,-4.728020893085782,0.41336601455479305,-9.72506034073497,-1.7475843552684716,1.9496481842964355
3.4312499,7.7358979807798915,-4.763263629614768,0.47977949144263576,-10.171190846701952,-0.4805748386426317,3.476278532075096
3.4412499,7.520451940937665,-4.828105570719481,0.5506631890914341,-9.326735591711154,0.6294195924298941,5.529557576616183
3.4512499,7.276693811272497,-4.871882545057914,0.5848865378720337,-7.124879978400718,1.5245093325878845,8.185774264566303
3.4612499,7.036222893246831,-4.893872265917174,0.6186901333466812,-3.6549483154440714,1.9561860431177363,11.511393039726547
3.4712499,6.809322711178693,-4.912735065126904,0.6207763076226651,0.869472024391458,1.9778174431325903,15.431953318290718
3.4812499,6.595873095474292,-4.826739013813752,0.5655150636276977,5.247890951998157,1.7133425623360252,19.748198723446688
3.4912499,6.410650794670097,-4.648864960817723,0.5014330876981338,8.74831141577726,1.3095281017915552,24.31439201823361
3.5012499,6.237186488970682,-4.489273989809548,0.4584771661771767,11.515589715335246,0.8838217724663551,29.168207246566208
3.5112499,6.01754410178592,-4.338721182378934,0.3717965494709275,13.047415130763607,0.5061651441094113,34.617360148775596
3.5212499,5.781354421662484,-4.169133628251654,0.23697698802549985,13.687235597327149,0.2242959300808127,40.725997412639614
3.5312499,5.5380503474075,-3.9973102958887154,0.04361264894158861,13.60006547889233,-0.1398831139627367,47.38648297917121
3.5412499,5.336361732993447,-3.8847810728180976,-0.2449130991192001,12.684391744507112,-0.307880860460727,54.68412948767179
3.5512499,5.154012078381277,-3.7354340472211938,-0.4888307717381958,10.273230785711775,-0.013922003535921159,62.3684050722498
3.5612499,4.886021047952603,-3.611020018929385,-0.744443713719669,6.0410712055777385,0.7613120298076574,70.85435954124833
3.5712499,4.464489734424761,-3.6638217747789064,-1.0963018329028116,0.5973773994094085,1.8077073252460654,80.26474115489073
3.5812499,3.8302416019823355,-3.7910755139790098,-1.3468076112732659,-4.699022876648815,2.060191335393895,88.87044766022004
3.5912499,2.96911051532735,-4.048869658036755,-1.6883803827339432,-8.813256332378355,0.8553609507747734,98.2951271832007
3.6012499,2.2094318269408006,-4.280680574703369,-2.2425089683151045,-12.717788467453238,-1.436063910524021,108.90266512211306
3.6112499,1.8184224034461385,-4.287235771934275,-2.7146841677645757,-17.4728044609696,-3.7924044653378832,119.90615565354665
3.6212499,1.7220793147482956,-4.220704939116984,-3.0815300368639633,-23.98205126811138,-5.5959788138591975,131.09583895211176
3.6312499,1.7482874057907625,-4.164771506483598,-3.426818241638078,-33.79437461940786,-6.3756721520255955,142.23952332946573
3.6412499,1.672850832724902,-4.28960030735199,-3.8939049812464983,-46.64386190718586,-5.833210029719302,153.4627242979571
3.6512499,1.4020143714920745,-4.610176971540234,-4.673701360888767,-62.68504211407854,-4.269797664852027,164.67917876876376
3.6612499,1.1319379965258498,-4.987619712378218,-5.455219658762687,-82.19011735926208,-1.2944767324699125,175.54713160158653
3.6712499,0.864492996661809,-5.6399610340162845,-6.0335157912831585,-102.7598183852255,3.349917633601385,186.39905162089474
3.6812499,0.5268809405180194,-6.7554649552423465,-6.710944377436502,-121.12674837180245,8.648533285689147,197.9806094854136
3.6912499,0.25797458770735127,-8.03223324910753,-7.413606107868859,-136.66882045462947,14.24612819261347,210.7111176123781
3.7012499,0.12010609625690825,-9.283670148580848,-7.965889257856541,-148.55820103646727,20.837674183112696,224.84970084784004
3.7112499,0.19723929730869771,-10.676719446637001,-8.314233479142915,-154.95935462157757,27.956923569707236,240.17567810308518
3.7212499,0.4882291668775884,-12.271569387743094,-8.324860605822137,-155.40426108216528,34.83132049026175,255.9439958104205
3.7312499,1.076691755944885,-14.004835056856296,-8.364774048004941,-150.85883088624652,41.63858027322471,272.361680676066
3.7412499,2.0288682278595678,-15.652531422849032,-8.579360562193386,-145.13162055485978,47.99542658863374,288.2951017853934
3.7512499,3.052394499061493,-17.093535686857912,-8.499651532787928,-140.17764333857616,53.01966411799692,300.6894560908548
3.7612499,4.083494489671498,-18.52776421468426,-8.141217950176607,-134.89636323032022,57.155799274499444,308.1103664605715
3.7712499,5.516218730378661,-20.233790328076932,-7.865381510603657,-132.59883310279216,60.304811908515944,310.1209039319608
3.7812499,7.315786824909565,-22.04942735671836,-7.833993987119899,-138.9639842779056,61.94283020179056,305.0552920112695
3.7912499,9.007150590915572,-23.317940868428163,-8.245752722381733,-156.79437140731258,62.22270256088912,292.29633738730683
3.8012499,11.104449961288976,-24.474216467164197,-8.698965950471422,-188.07762695884153,61.71550226636494,270.80275251131576
3.8112499,13.907098948283046,-26.26925812064131,-8.784505546629532,-229.05326320363935,59.55623539124438,239.23525418115742
3.8212499,17.39618550751457,-28.70218268500761,-9.06954199208696,-273.14918032038594,52.6228990997704,198.53077684114706
3.8312499,22.171891726189756,-31.259448073254926,-9.6164965919697,-317.0601039890174,40.92395553735652,149.61266359297812
3.8412499,28.286008718979197,-33.51142381690579,-8.58089496074475,-357.2815703453102,26.209591292443772,89.64144128270773
3.8512499,34.83570849512146,-36.201772640653544,-4.455553133225763,-380.6216979046534,7.895594586185308,15.143801670364839
3.8612499,40.54907180938936,-39.48110782194812,2.019378085532001,-384.17940939104494,-12.228682756380767,-73.52114182148304
3.8712499,42.88138024513626,-41.873083052725775,8.215075997155363,-384.3037305776896,-27.639823091788923,-172.97783470099364
3.8812499,40.96438495929327,-44.417228291388035,13.106858350759273,-384.3817253497094,-36.95595472931978,-275.4306676401132
3.8912499,36.4148936759068,-48.85616927569665,18.211851775243698,-374.6051738067394,-44.549490114098965,-378.46480133614904
3.9012499,29.297315257188593,-53.364365256064346,23.21927528917777,-351.139835567609,-55.04472668562946,-470.4513259090093
3.9112499,19.789337064973893,-55.85055681447505,26.9013233925782,-314.27095743205876,-72.91841992044742,-503.4637920849338
3.9212499,9.514542683624944,-55.330747139856676,28.78321703412485,-278.96770560319635,-100.88911538090004,-499.33906864776316
3.9312499,-0.14470539115448747,-51.585160962737184,28.510443027335967,-267.0012246885754,-136.87080052947098,-499.71634987377286
3.9412499,-9.921994808354508,-46.04394480354991,26.131527473739403,-279.0175232673456,-180.63853894696072,-500.2524545774606
3.9512499,-22.09301951797629,-39.200619510505696,21.837054145484146,-294.1406916625652,-227.41438574087525,-500.34200822942057
3.9612499,-35.99654877350972,-31.028101502176806,15.244581153983066,-292.5360064741847,-256.78376778660214,-498.4975499936549
3.9712499,-43.65888751797559,-21.29692990234762,6.896020924873566,-269.48944355679896,-246.18716474629107,-502.87576541309085
3.9812499,-43.32287944377777,-9.983834178843901,3.0764337160051642,-229.0270187999422,-195.0365803578363,-494.1492161976629
3.9912499,-44.91372993560122,-1.0410640622414982,2.9847768157086265,-158.53413173854804,-117.4343147649588,-413.5924080312146
4.0012499,-46.08351603094633,4.601827694359394,1.073249569931739,-64.89512821594988,-43.79114087469956,-309.27940502751375
4.0112499,-41.576973794693195,9.029716454998013,-1.2498143878671881,37.90187629253264,19.95083926994932,-217.43136130030925
4.021249900000001,-36.133238668456386,11.404411978512044,-2.8200954986849376,129.75036464419495,80.1060438859276,-123.518528936781
4.031249900000001,-32.64218852134695,11.288612783234335,-4.394624464642014,194.8180848708,123.69752954105068,-33.58106268796948
4.0412499,-29.67466192848213,10.864283959736978,-8.066661772785299,218.84831396500707,148.94099531049986,38.76176080059156
4.0512499,-27.4169832148265,11.088170980106929,-11.491951229307707,205.5554232972878,159.88441403864593,79.42375484080794
4.061249900000001,-25.073255136617032,10.322514586775574,-11.817157221051827,171.70608353718626,157.05814781113375,92.36366444370287
4.071249900000001,-21.36007241660479,7.17578914505914,-11.251644162804146,133.2967147031871,141.91290895003826,94.89083091733144
4.0812499,-16.00709124915729,2.6899224929280505,-11.5351198808928,105.64657338732378,118.05297581695721,97.82057981065891
4.0912499,-9.940261139093389,-1.3619734355698148,-11.52002308684769,94.84893413992224,92.50643185864428,104.96712704554234
4.1012499,-4.1936695488078595,-5.014601571661489,-10.884921187917175,99.16352517969179,71.60899624751971,116.1192535237582
4.111249900000001,1.0254340928186396,-7.880050349769586,-10.324930242749408,110.99128480697074,57.675433173604915,126.71960315871884
4.1212499000000005,5.004393929058209,-9.518609137775531,-9.755573463444046,124.05942563971173,50.92665206115049,129.4404947721487
4.1312499,6.836274528660186,-10.49775184766183,-9.153442417121004,136.48721125626489,50.27997451855263,121.63733765331136
4.1412499,7.054186406051168,-11.518871189215186,-8.998122516716592,149.15107479164138,53.62123065340763,106.60551864243908
4.151249900000001,6.970719280020544,-12.537393337676274,-9.306774336035167,162.63258351961503,57.444551815105584,89.48456337220169
4.1612499000000005,7.216320357012161,-12.640038648807247,-9.755286504554682,172.9702714289216,60.05231693474738,73.71584834238587
4.1712499,7.563448802781305,-11.784450172011088,-10.003510575090175,177.03212702405554,61.222165119262506,59.62006210751223
4.1812499,7.861217402923228,-10.700801566593718,-10.028862168835666,175.3981598291187,61.068904561814996,46.52437560485938
4.191249900000001,8.080700687146763,-9.05666916626892,-10.271541645920141,163.77850811143423,60.323526663440845,32.0835211994793
4.2012499000000005,8.21848782513635,-6.956892831119695,-10.525648216995078,138.12332088960576,59.8072480234341,15.926999143411505
4.2112499,8.231062150847624,-5.6366986326262865,-10.250792092061706,106.96193612671925,61.19063488652263,1.8163992173800079
4.2212499,7.964621128988447,-4.807510821314692,-9.670071303114558,72.28052560202654,65.72496251637921,-11.44449170203592
4.231249900000001,7.465462983382967,-4.384797281119886,-8.896398067050097,37.337532773737365,74.07520575962374,-23.726716932898555
4.241249900000001,6.960972629156068,-4.519363127694749,-8.161843773156095,7.5522226189940085,86.13303091896714,-33.17771300293668
4.2512499,6.641875432766871,-4.751910169340917,-7.755277256840941,-15.63045165046248,100.30992251319047,-39.59811634553509
4.2612499,6.6685572251510585,-5.0864297861692185,-7.534371829617386,-30.23872594208368,113.61342549717486,-43.64083875002473
4.271249900000001,6.936562520331283,-5.477784744623734,-7.419585550124802,-35.226189846491636,122.92300042482691,-45.657854321391824
4.281249900000001,7.160033059464959,-5.580434661550604,-7.328488070309935,-31.727814277703526,128.35552179769704,-45.66651716192935
4.2912499,7.105172953932257,-5.523800299455397,-7.0326175554751975,-21.78962062505137,131.97331603645662,-43.401253576856355
4.3012499,6.864775337713402,-5.451673060583225,-6.520080407993179,-8.66008222361821,135.46375251482974,-39.394977184523235
4.311249900000001,6.574502068638607,-5.224652296020925,-5.975378344045844,4.403503103672316,140.3640603820232,-34.44527371654861
4.321249900000001,6.117797381207768,-4.9019763818534825,-5.403859801368237,16.012066388889064,146.6771355562248,-29.531076359359925
4.3312499,5.637314930810435,-4.513062754802214,-4.870994880016906,24.794982622393732,153.6201746660146,-25.59578025863853
4.3412499,5.577384484791825,-4.074390824751232,-4.4745130084952285,31.076977541670843,160.33238706811613,-22.860117581438537
4.351249900000001,5.728054052032603,-4.098208749157091,-4.161670957907244,39.668343811633136,166.00269605038997,-20.60679197026288
4.361249900000001,5.415307983869113,-4.218536881857739,-3.9913585161881255,47.34464700253382,169.34473847941908,-18.140025931564175
4.3712499000000005,5.215434854920941,-4.188500471592472,-3.7654928346139775,53.13645169416062,171.8039647773009,-15.258573154591078
4.3812499,5.247502007688432,-4.281046670245588,-3.426309509759237,59.398198687267865,174.07893172802605,-12.310407385684723
4.3912499,5.155700987455834,-4.573721087440178,-3.0951330841140563,67.21647390000646,175.9728323893705,-9.161091580227522
4.401249900000001,5.269813838641788,-4.966290715543199,-2.6500016630669787,75.88618741280865,177.77910879166868,-5.613228881168632
4.4112499000000005,5.4843642639535854,-4.887723111229826,-2.0714304775113095,82.14881423822844,178.2335890016622,-3.3951416967010104
4.4212499,5.60293579031912,-4.770757690653899,-1.6321280511450047,88.24938181933179,176.41261060484726,-3.46991391709221
4.4312499,5.685757932048723,-4.768100244279828,-1.5173346192867558,94.36736937463571,171.98953912275502,-4.119514767403416
4.441249900000001,5.762632544725009,-4.713767427766392,-1.6018002768929962,99.26524649910517,165.76973055570556,-4.434622450996019
4.4512499000000005,5.910762322633927,-4.609795477491658,-1.6525160493694913,102.67458064708968,158.9141564965928,-4.30562480124959
4.4612499,6.259013026974726,-4.573795686339195,-1.6332952036034616,106.23929878444149,152.24007184170912,-3.379391273259806
4.4712499,6.711892051168101,-4.5806924450659965,-1.47228572151698,109.57359854066988,145.8958019408969,-2.065295466634589
4.481249900000001,6.991058862036959,-4.441039333711582,-1.1300639294371342,110.9538137921435,139.24972298530776,-0.5073489076517008
4.491249900000001,7.26717178468752,-4.3752794294044035,-0.7760030536499969,111.55876334966123,132.58013846660424,1.3785120631493541
4.5012499,7.610514697395248,-4.207560888128218,-0.4959383235790882,110.47940090563688,126.06036936865752,2.987600931776004
4.5112499,7.977053986361281,-3.9157736798030087,-0.3276966738063551,108.22828923063987,118.9368574385429,4.357701305543347
4.521249900000001,8.486666846317306,-3.8512293483900417,-0.488632227016471,106.69428019267674,110.57842138883488,5.93832696169595
4.531249900000001,8.879130712322784,-3.8657203498032255,-0.8053403686982774,104.25405912413302,100.44508653644138,8.285353727420683
4.5412499,9.139537018606498,-3.790793016011952,-1.0289345763840598,99.6835888242548,89.58682722846171,11.62120161143743
4.5512499,9.468211493309834,-3.667527665551238,-1.1770205872993298,93.31846641809386,78.8604593340834,15.45811316771431
4.561249900000001,9.817832833340583,-3.511033825715915,-1.1672470550340939,84.11301538421455,68.66117260516484,19.461852387220617
4.571249900000001,10.011387605005666,-3.4233638986850146,-1.0028475960735224,72.36392196023085,59.022994379164224,22.792432478229482
4.5812499,10.095628943653459,-3.449226961597229,-0.8161241090853086,59.04493195274069,49.87353095040075,25.636118306590916
4.5912499,10.115936258908556,-3.4952426847341607,-0.731349779637162,44.67253078300952,40.52170306275433,28.423182902239738
4.601249900000001,10.099995979471968,-3.6751851946873004,-0.6925086192538031,31.23341285565912,31.333812575068396,30.884943890388282
4.611249900000001,9.985289629941347,-3.8733641707498156,-0.5370976128216248,17.74969463459993,21.45854097306497,32.80664851053119
4.6212499000000005,9.15894929933495,-3.1970876703838913,-0.4533465419382886,-4.7664085221966035,6.524398950641493,31.9882517094399
4.6312499,9.096074339890478,-2.248326435669587,-0.5409210571289309,-33.091961771633905,-4.334087445724698,28.0020031296997
4.6412499,11.279591893516224,-3.9370687534706823,-0.22748845027362558,-41.008171602167394,1.3637845816945418,26.591166001785023
4.651249900000001,11.162575340047809,-6.046416077961428,0.10933027799623818,-39.22469296073043,4.534211357511726,30.430381777921227
4.6612499000000005,8.721705903036213,-6.088590251229646,0.10339589451426333,-48.21672982227412,-3.2738793105101336,35.88899693047529
4.6712499,8.585099880136227,-6.609609567117002,0.3740720186755738,-48.35590956536074,-6.803995996741547,38.17216608198374
4.6812499,9.297281254069928,-7.18252977914465,0.7200835761864296,-38.639803295809045,-6.453116583322322,36.589610100411086
4.691249900000001,9.06186402214557,-7.399001362595809,0.8339291186989225,-27.23024915353875,-6.565376546332682,33.53669327256454
4.7012499000000005,8.634577633863115,-7.897130389615613,0.8294719183028282,-13.150508487090955,-6.495779678591424,30.6236310234915
4.7112499,8.418432923087977,-8.206803230001718,0.7815121100521623,1.9018234379328538,-6.072822421833076,28.57089104869057
4.7212499,8.276847875412882,-8.070559734420904,0.6841752998920907,14.245757869402045,-5.867627773634675,27.133618675281845
4.731249900000001,8.080467104121725,-7.71010782468808,0.5598714938976687,22.581539398696975,-5.861270804958489,25.510547251563704
4.741249900000001,7.951831743485545,-7.174058664935885,0.45101142317113074,25.537731395907183,-5.573967832962394,23.17274107810649
4.7512499,8.000178285986822,-6.568769817776108,0.39502922371558724,23.14536461906544,-5.0299432236895205,20.071746547110504
4.7612499,8.08925357555033,-6.160968166418697,0.36550902445350675,17.533076528546452,-4.621699492704868,16.372708146478573
4.771249900000001,8.082111676492802,-5.948438951117877,0.3444456209091328,9.812420763932835,-4.361426646816829,12.459946647636324
4.781249900000001,8.066577936676936,-5.9234555941600044,0.36963992151694747,1.6808735650398692,-4.068699820558495,9.150285395157454
4.7912499,8.00043376033489,-5.959633920135704,0.36121893184995335,-5.440766412425855,-4.0106164384833685,6.484839695060264
4.8012499,7.834054249212314,-6.012118114026794,0.2785331377775887,-10.956964909241279,-4.1519044591869205,4.093796738635889
4.811249900000001,7.6794200640078545,-6.0990655601330115,0.19716568946213445,-14.862339647275011,-4.613397098649674,2.2260966889972003
4.821249900000001,7.5391334570135715,-6.18421364356013,0.15924523631399673,-17.612556353645786,-5.402146646507506,0.5490469006704322
4.8312499,7.478598106848877,-6.259526364406183,0.13347724076104678,-18.590934608026735,-6.214302950466243,-0.7691710222290967
4.8412499,7.552865294756731,-6.410660229220763,0.1351213260022972,-17.554118040823514,-6.807086260723239,-1.1372528003633704
4.851249900000001,7.615108566685336,-6.602678663965826,0.18973982117744684,-14.750243574292385,-7.237003936376785,-0.8972601493243497
4.861249900000001,7.634618637189765,-6.750555077335141,0.25861526640707916,-10.336945533925025,-7.39393332540586,0.08432189449827447
4.8712499000000005,7.622920946555975,-6.87575374713212,0.3152722328840073,-4.671429221025381,-7.222595837462004,1.5744829535906877
4.8812499,7.4735483130568205,-6.913973773044418,0.3004826424376625,1.147605920750508,-7.069572669294126,3.1060764646077175
4.8912499,7.300487850249658,-6.873480221593554,0.20625231042834027,6.266235128370032,-7.012467880570857,4.094840927211013
4.901249900000001,7.248199362435598,-6.785363783494653,0.044044038995639134,10.171917483599326,-7.3371700751320095,4.3454739525660155
4.9112499000000005,7.269487651050675,-6.653966530811555,-0.07015915162496528,12.524526722005005,-7.607917021727132,4.141447892548268
4.9212499,7.250284731691542,-6.552849124751891,-0.05482695670367888,13.38217241384199,-7.847174376190544,3.6338982318691646
4.9312499,7.243903350478675,-6.481479603159155,-0.05569959246427491,12.786335872170906,-7.913383428925446,2.9714025023824124
4.941249900000001,7.300162345613516,-6.432080373602742,-0.04935316516227734,11.591895901227774,-7.700173858146417,2.479093723890102
4.9512499000000005,7.288032197923118,-6.400925230159072,-0.005216015261654811,10.272607745589605,-7.355970940400522,2.063744109675109
4.9612499,7.211291245482167,-6.374073477228373,-0.0740104273277778,8.743307378974215,-6.848731993502524,1.6974754352204653
4.9712499,7.194604261743219,-6.369392664709233,-0.19440429066414797,7.187894763638168,-6.6765210588703106,1.6937631151419943
4.981249900000001,7.243671886411395,-6.369445405393859,-0.23736080891764127,5.60937701527922,-6.633637520246661,2.0140772335000277
4.991249900000001,7.260464167376499,-6.341270121917476,-0.24642874707586604,4.009538976925222,-6.482038313284922,2.3675026487130197
5.0012499,7.3115255464555124,-6.325685500339643,-0.2513621594341623,2.414022143129595,-6.313597184816594,2.8745344899466025
5.0112499,7.414367096646149,-6.3387956907141385,-0.237996996585005,0.9076469312065872,-6.095376727747598,3.127299310772824
5.021249900000001,7.420085622672013,-6.363504795924188,-0.21636746415315436,-0.1644372295469444,-5.912218725565373,3.1968556999188547
5.031249900000001,7.409999152779936,-6.468737207262623,-0.1846961989423737,-0.42520056781109145,-5.588949918002728,3.516403221356998
5.0412499,7.438133404767164,-6.560804111654413,-0.18063800756527162,-0.03615924553562288,-5.194023341358399,4.095939482256801
5.0512499,7.427500536084342,-6.572215028749104,-0.19954878768985945,0.6135781275666441,-4.978707601964543,4.508851624010129
5.061249900000001,7.396969549270097,-6.565878502024259,-0.20529866071953032,1.301102673478003,-4.821524758508937,4.79147440310991
5.071249900000001,7.3935572939966265,-6.588230910170601,-0.18937976287982677,2.1535650719175177,-4.914677357362448,4.848588203239039
5.0812499,7.351338106814656,-6.620710297192274,-0.15976846003830567,3.1150833862594918,-5.422469878696959,4.842396602199052
5.0912499,7.280350360201293,-6.63802047939836,-0.15271053097795378,4.076944462206279,-5.742372014116995,4.989091068647047
5.101249900000001,7.288210530915693,-6.608675501081443,-0.17518588893717946,4.366916402447288,-6.004239575588723,5.188947996932897
5.111249900000001,7.434509533690718,-6.573536156955182,-0.14006182296940928,4.3193195391252726,-5.894381711418529,5.262543029525641
5.1212499000000005,7.564665533605755,-6.5186227404292865,-0.010358524365130925,3.8813675652122552,-5.403121385841268,5.028001206769256
5.1312499,7.6026976589042405,-6.48727841060423,0.1071636301357234,3.4390884028914472,-4.810640807306693,4.436551993130293
5.1412499,7.599045361703308,-6.543297009399207,0.08477558429105961,3.442699888961313,-4.018611519161978,3.953805552351593
5.151249900000001,7.51299601191272,-6.579764721461509,-0.0024229739197908226,3.2060677628154344,-3.5916136535792806,3.764868767170612
5.1612499000000005,7.42052863770605,-6.638422300903154,-0.03665757953979554,3.2673387372506073,-3.5694308307961844,3.826485700698664
5.1712499,7.364762048862129,-6.713253789962281,-0.04604050796083925,3.5784928859928264,-3.8450336776823897,3.8591876665076508
5.1812499,7.333706025696242,-6.7748598591083935,-0.035770435371330844,3.9356936931421087,-4.352669127038263,3.671627128100387
5.191249900000001,7.329322069229934,-6.801141380852166,-0.006006774871057955,4.075474290058937,-5.069274819120079,3.649190777431229
5.2012499000000005,7.311809130337186,-6.770855122349173,0.0052568765441064775,4.127432749954969,-5.605312279753738,3.4891734372653853
5.2112499,7.287825876095835,-6.76435673221165,-0.01987460355477752,4.278261173893933,-6.128628385272748,2.9929566159495096
5.2212499,7.303198224845042,-6.765274226265702,-0.047602246700350494,3.9332149994397914,-6.946315605178753,2.42080575898957
5.231249900000001,7.305112294434187,-6.740123627781837,-0.09237703152723838,3.2762092191240693,-7.721580584352858,1.9726552061130633
5.241249900000001,7.276181962345467,-6.692428967242664,-0.142017996353582,1.8927340173660296,-8.424150296397382,1.391969841481805
5.2512499,7.286818930590868,-6.6977205212775175,-0.11923786573490079,0.26201384343187556,-8.865262917166683,0.5528040594229512
5.2612499,7.289655048460819,-6.761190984642358,-0.08686026063336882,-0.7801765826992293,-8.805171895688627,-0.2382034075283067
5.271249900000001,7.287932701089163,-6.818633229554071,-0.09656342250383622,-1.3653721438818036,-8.330550889234944,-0.7312660859211296
5.281249900000001,7.296053410249835,-6.87029345464124,-0.0911491258726626,-1.288662191046295,-7.68163600256797,-0.9106156281961253
5.2912499,7.250645215363129,-6.905615751071347,-0.0896621641535078,-0.5948331845773456,-7.129876711972751,-0.9352467302036421
5.3012499,7.166178399414974,-6.927324995768606,-0.10454907599428712,0.6739134331223372,-6.590045853092865,-0.9165323238646131
5.311249900000001,7.086287699519303,-6.958041857737947,-0.1210413634151474,2.581354521272735,-6.256929742004171,-0.8829168338976414
5.321249900000001,6.992105973237931,-6.959678660810051,-0.15786934333109864,4.749258153759262,-6.093376692798619,-0.7790179591066444
5.3312499,6.918707384962183,-6.933108396460952,-0.19905028660653654,7.076943221522225,-5.713151401659202,-0.6667178751415784
5.3412499,6.865481651951589,-6.875021346322405,-0.21661285009435732,8.752040208128042,-5.314273037296904,-0.47387185697170225
5.351249900000001,6.802549410202705,-6.765422848820877,-0.23380104164119897,9.508752652401125,-4.965957012489625,-0.11730313875003956
5.361249900000001,6.732956416971169,-6.688645171845017,-0.2830991695603837,10.193490695778769,-4.084730250371206,0.402092212888588
5.3712499000000005,6.562180090173462,-6.567452675536394,-0.360336339505654,9.991711022208312,-3.5283251152993507,1.0570996073873133
5.3812499,6.429423158694397,-6.519447285203436,-0.374341911367286,9.887777224711748,-2.814563496384154,1.8337850313089914
5.3912499,6.347136970804376,-6.561504481540684,-0.3254848741589133,10.711124870299432,-1.6213931439994724,2.8552812091700073
5.401249900000001,6.191405928593011,-6.602911072340071,-0.30776211801624165,12.092992907117747,-0.5664933110297833,4.261880974314026
5.4112499000000005,6.0295711076159515,-6.68830903203341,-0.3562279940002266,14.169894645099205,0.6594945554794924,6.365325463181537
5.4212499,5.868064830018393,-6.677352182225224,-0.453650352677774,16.16312373940588,2.2128410110145618,8.904700770534987
5.4312499,5.723228682677373,-6.604652506660914,-0.512648679210449,18.11780846065811,4.404611416217497,11.056422847192136
5.441249900000001,5.574299173623289,-6.582150172698717,-0.554359516845578,19.80074932693813,6.657738719577311,12.808000999530877
5.4512499000000005,5.38249693951127,-6.55922565283344,-0.6440162493959323,21.19811438766207,9.48771965850707,14.941868553832931
5.4612499,5.21358481121051,-6.5288020515221294,-0.7072458956813623,22.32735170484251,12.77981022822119,17.36936434593219
5.4712499,5.044635755311054,-6.459180930894954,-0.74399591868373,23.007721688317904,15.543805866256768,20.036325025730704
5.481249900000001,4.886538550451539,-6.333136509319786,-0.8350013495330673,23.331497410754597,18.31365094262636,22.711461049287248
5.491249900000001,4.783238320312923,-6.207305094136839,-0.9479827617790011,23.188635106231704,21.11482116094176,25.56190496642083
5.5012499,4.693748322223215,-6.175152379583989,-1.0333990648342823,22.924489585157712,23.774302724614035,29.16888606105056
5.5112499,4.567280722227327,-6.207615678150541,-1.155005832846956,22.881954279231543,26.185402670855172,33.382816437853506
5.521249900000001,4.4290875621824926,-6.136242152882508,-1.3055499046567856,21.90221044928775,28.632156938488492,37.67579023937219
5.531249900000001,4.281244127674146,-5.968633927978408,-1.380960051493083,19.493100104674053,31.201749654476487,41.65889326190506
5.5412499,4.130734462899143,-5.896709152894436,-1.3960671886425988,16.77730524222507,33.916170999328095,45.28647779123353
5.5512499,3.9978377029995453,-5.920523341762843,-1.407003439097483,14.46931333866043,36.74545322961593,48.88258189378436
5.561249900000001,3.901544145573855,-6.068805324136065,-1.4942998077464407,13.406689963274774,39.9450212022454,52.60842252602092
5.571249900000001,3.8237022931145157,-6.228157516895623,-1.6072916375495963,12.80676978961726,43.33291324106347,57.2748638361307
5.5812499,3.7443754777693328,-6.345001511207582,-1.6522178953039186,11.939608893909584,47.1284570006025,63.20568000309136
5.5912499,3.6132700860641687,-6.423445951613604,-1.730613316795164,10.70810764557677,51.4364358959822,70.21254057342404
5.601249900000001,3.463976501670332,-6.356304055920882,-1.8302926695906985,7.924405270980004,56.30854730608962,78.11732747319039
5.611249900000001,3.3502426968439742,-6.280804553453673,-1.8939788255970051,3.6346048269898907,61.14665894520721,86.59096854080994
5.6212499000000005,3.2374319810426733,-6.242300386631784,-2.0154891744257033,-2.4248845382788615,65.89749075676644,95.51931827417457
5.6312499,3.141174735046831,-6.239240371572629,-2.135366833812453,-10.199807893601502,70.81787960386534,104.89525715189635
5.6412499,3.1229658484741276,-6.38029623451887,-2.1270947694750424,-18.65436589527629,75.62912316398803,114.17160171442478
5.651249900000001,3.1157006590914254,-6.719469084982305,-2.029841580341014,-26.87029701090318,80.16685435761198,122.73869255382373
5.6612499000000005,3.113487278468534,-7.287322769240419,-2.007085060597586,-35.28967421641396,85.44984388058758,132.30859718733467
5.6712499,3.1567525616528607,-7.931840687561887,-2.075954860452579,-43.09908745868933,90.521644224404,142.55134903423868
5.6812499,3.2442801157311325,-8.555379454795432,-2.1676839319499077,-49.304224269029326,94.0327290661616,151.61530397565605
5.691249900000001,3.4278583151054858,-9.265250988548265,-2.0936690813484167,-56.03126355268017,97.74426499821539,160.7355040247518
5.7012499000000005,3.6701402746044085,-10.02291260061531,-1.8132970300171265,-65.09432568876505,101.86070337281612,169.61560183041232
5.7112499,3.887575340943745,-10.81682964265525,-1.7526459092564746,-77.39486602538025,105.47193840263314,177.18105107335154
5.7212499,4.159231938806736,-11.531366672070275,-1.998537967519451,-94.58245941839753,108.68261010564638,181.8074114992635
5.731249900000001,4.3573776041793435,-12.481598905782981,-1.9765605665762505,-116.52333661434552,110.35674211657454,182.30987479614362
5.741249900000001,4.518069712510259,-13.863650888792142,-1.6888922266069875,-141.57142015125774,110.4144120119931,178.85011911388696
5.7512499,4.959317053679725,-15.382052347616874,-1.4493571519271187,-167.30140590138805,109.13125738042956,171.72802227597987
5.7612499,5.71993204667738,-17.04348915568402,-1.2087912112444068,-190.25406148489597,105.3353703526799,161.82378102561998
5.771249900000001,6.732979812988739,-18.875294723221273,-1.0842512265762905,-207.6417989313364,98.55134241966094,150.44628654772154
5.781249900000001,8.004029356666367,-20.814372337322062,-0.7351884904254897,-217.6243081329632,88.36879117518643,138.3986282236333
5.7912499,9.52719577718906,-22.839422532752238,0.3484180965124607,-219.25263667410033,73.77603872630833,126.0107180640108
5.8012499,11.219203758033187,-24.62708170490332,1.492662755385331,-211.20739232738046,54.20357385950855,112.55171557867952
5.811249900000001,13.46438224111314,-25.79659366981105,2.360172023685856,-193.62062819322384,29.10970912728181,95.83294194399105
5.821249900000001,16.646476964689843,-26.26671033126225,3.7279530943052706,-169.58737743165779,-2.192168894683728,72.91879827675503
5.8312499,20.23310426951143,-26.133209448483086,5.307153803570042,-146.20459567972105,-41.53968634605614,42.79542672681519
5.8412499,24.236316436206135,-25.360566186320206,6.840584627983378,-136.95754411995227,-88.03586467998385,6.059252213526574
5.851249900000001,28.867016463957633,-24.216254565371546,8.775651974410433,-152.1616476780669,-138.67079463685857,-36.117991000857174
5.861249900000001,33.36472574588594,-22.80077839100906,11.081584866064517,-203.55546486658716,-184.015370372647,-84.22562854808507
5.8712499000000005,35.62483499342351,-22.49265810377725,14.11325564654372,-309.2773076480516,-216.24033982309516,-159.32609822686214
5.8812499,34.54774697290832,-26.04784532213381,17.639701277357805,-425.3725573322815,-234.6017987870587,-258.8406213024212
5.8912499,31.5508903808985,-33.6048939839246,21.252401396223483,-486.49257189418336,-241.81988830659088,-364.57300125680297
5.901249900000001,27.649579323540454,-43.81125464260402,24.665162960314984,-478.89107006066365,-243.9415312865626,-466.3267768324427
5.9112499000000005,20.96326104995457,-52.08377612198175,27.04658465960482,-409.07813184919246,-251.06908962724236,-504.0615720731824
5.9212499,10.303916248981208,-53.200516681546695,27.715435028084286,-313.48265405188283,-273.8354351707031,-499.09114239875873
5.9312499,-1.5321136550242282,-46.274191410257835,25.181615841362003,-245.52937789325378,-317.82067847962577,-499.83005007480875
5.941249900000001,-11.230049002666243,-33.90277679124547,20.38231613715323,-225.54234377235747,-369.3536710111397,-500.6024318476222
5.9512499000000005,-20.23516525615603,-20.45136752769789,17.32228815602969,-242.6062953688151,-399.0557395973533,-498.38358600239167
5.9612499,-29.811977730263493,-10.159399356865018,15.295673746773552,-270.6754825634192,-395.6301286910729,-503.6149334332506
5.9712499,-34.27368295455152,-2.7853092503708603,10.990778566614969,-275.65478901808103,-357.33931969729554,-488.0999952377668
5.981249900000001,-35.81251971575978,3.3232242521313347,6.826437352057782,-256.3282977532826,-289.0794952968636,-402.34017992892063
5.991249900000001,-39.8735999115152,6.897492113519686,3.371814673914312,-202.4720679227331,-217.06038897816268,-299.93619976562155
6.0012499,-39.84219885385317,6.588245443329094,-0.10824787648067913,-116.4502906768814,-148.10000282925543,-204.17828455447435
6.0112499,-35.66557239546701,6.063519693057335,-2.0164131685184863,-33.88859688165701,-80.11927223150286,-106.17196997975353
6.021249900000001,-32.51214967726383,6.098729295491726,-3.4676573439558385,25.436410986060014,-26.285619730941576,-26.780659430355854
6.031249900000001,-30.526550169135533,5.399996244547759,-6.283764619783609,52.16495833251033,14.153098598200845,24.98456088208938
6.0412499,-27.94700217900923,3.0186496633076008,-8.997433064309226,57.05588657999946,44.042059799625285,52.543170873010354
6.0512499,-24.10626315047573,0.2916547309720216,-9.78414375190424,55.09520585630623,65.75563946506585,63.35745192426154
6.061249900000001,-19.77531590848705,-1.7748732308443234,-9.646996895862449,55.019467861171734,79.24957939564867,65.96888123519582
6.071249900000001,-15.27614345758715,-3.9478188275702215,-9.760919018152698,66.00374208876019,83.37238393542448,67.25624385150422
6.0812499,-9.920540240493878,-6.015962277673427,-10.329995406669092,95.1814509499366,79.82447670093862,71.1365357968592
6.0912499,-4.753899287169673,-6.901463785844991,-10.832480881346541,129.57266025797662,74.76653036751794,76.77440819857668
6.101249900000001,-0.7104220468452936,-7.218344221988612,-10.744703704868845,156.60198813132192,72.12259598402495,82.13915842418666
6.111249900000001,2.2874770474829154,-7.536722284751802,-10.368320625568336,175.6471114955244,71.78752753086314,85.11374212315415
6.1212499000000005,4.053545288835916,-7.463960336867551,-10.266163459233406,184.78043275024058,73.44275482169716,82.93896681836982
6.1312499,5.194424375872031,-7.151786120930027,-10.49872831220411,185.23828716308756,76.25939870452164,75.50609282181502
6.141249900000001,6.102338615759714,-6.64415659685447,-10.610576325601894,178.47096546449305,78.41852458733372,64.62741576326313
6.151249900000001,6.927563009007529,-6.089214539729292,-10.550243048233007,165.99647217227297,78.86319098475819,52.6312233238903
6.1612499000000005,7.875795032917309,-5.925176552588223,-10.337090578187874,149.92422493421347,77.81771193033909,41.659347754745944
6.1712499,8.589867674574492,-5.82860102391587,-9.870973494068055,130.1774455815394,76.80776917699119,31.45079495278733
6.1812499,8.571063197028677,-5.446000861595648,-9.408636509978297,105.81352784684546,78.19419773606147,21.258713994415007
6.191249900000001,7.943521392143564,-5.01834979001271,-9.107937992196831,77.4136401821305,83.31601423789034,11.720214998242412
6.2012499000000005,7.143537366043958,-4.550744493154058,-8.889209093526397,45.81355032066481,91.807306233126,2.5579986554909686
6.2112499,6.38463088661463,-4.288256804381078,-8.536631762773332,16.613757143152224,102.86928899502998,-6.420971529148133
6.2212499,5.72212016195288,-4.755947938105884,-7.915255540657785,-2.453211236419845,114.42773037692295,-14.193988298565744
6.231249900000001,5.367933330433914,-5.6033236947843,-7.234850941087847,-9.270932630418963,124.30813618211447,-19.704191293506792
6.241249900000001,5.119750812450121,-6.160130044818431,-6.70077909191124,-6.1008376553294275,131.2274438155104,-22.499277657351737
6.2512499,4.579904583314152,-6.513221943115524,-6.314531253035761,4.888708951475965,133.8055848330405,-22.74918731067607
6.2612499,4.185004032469153,-6.535074059387463,-6.25383212247208,19.898814537705253,133.24613243395999,-21.355375504181517
6.271249900000001,4.094339380430585,-5.99846965485952,-6.362569920308456,34.16674919056528,131.03757739450495,-19.477291467737505
6.281249900000001,3.959653797998095,-5.258518711777819,-6.272222512259468,46.08287212515226,128.25308055916352,-17.399956681352457
6.2912499,3.7695100820477876,-4.5336973710801125,-5.846946915097277,54.58572292865575,126.9956417460995,-15.048956568043478
6.3012499,3.803724481697195,-3.8609266402978912,-5.3522280851681,55.73544900859263,128.47975054466076,-13.214677276910272
6.311249900000001,4.317312726550244,-3.634009003358768,-5.1724291724000295,54.762384606892354,131.86523588045475,-11.700291320805963
6.321249900000001,4.994402443910261,-3.5655252442177967,-5.070343883285367,52.22453962759191,135.37066882256573,-10.288854803695155
6.3312499,5.64909685813106,-3.575209397090297,-4.720901999244966,49.76905009992968,139.25161209355878,-9.172554565974389
6.3412499,6.224706388037239,-4.172437085315914,-4.34559533949826,52.42892753091397,143.2247451058202,-8.291221430048003
6.351249900000001,6.484171448460339,-4.3297968942680995,-4.223464784619698,53.56671849449136,146.48542706832788,-7.527448666929591
6.361249900000001,6.612052736698394,-4.388052866963279,-4.140979858592321,56.31196104639829,149.24165590337955,-6.87646638051414
6.3712499000000005,6.8131573943600054,-4.903408612829585,-3.972694314781225,62.51142460898178,152.0067503212457,-6.203975227681292
6.3812499,6.852363762478964,-5.124467382770967,-3.7844981113104743,67.11739253674747,154.77095873528785,-5.00725290185409
6.391249900000001,6.826866256693336,-5.218720642230001,-3.482336841039576,71.70911845446327,158.2191918007255,-3.870634220533747
6.401249900000001,6.76918310303956,-5.43805866764435,-2.9049311034278795,76.677462774966,162.26618886236417,-2.954437615809759
6.4112499000000005,6.785637713482557,-5.506084400154117,-2.3526068961693554,80.87076404002227,165.95113091390365,-2.1318327713042184
6.4212499,6.872045160445389,-5.4157687915258395,-2.1301326561522167,83.95178957228073,167.47593423170574,-2.050228297904401
6.4312499,6.780319781572146,-5.1323286119208955,-1.9419910516352068,83.8401933405441,166.43090197511745,-3.287271663441299
6.441249900000001,6.667815729623966,-4.523196435838186,-1.7653284035441543,79.1023240743895,164.35887874936472,-5.8132632668524185
6.4512499000000005,6.579358845583639,-3.6597122452389175,-1.7597706430655555,68.10997287325165,161.05624360375748,-9.580479552440062
6.4612499,6.840059896814788,-3.806654063784552,-1.712765383817766,61.08332236107367,158.7900655624612,-11.768053920655804
6.4712499,7.3726340149596075,-5.137855414230099,-1.6364097360505787,64.55585494467681,158.36010860073728,-9.019811365297114
6.481249900000001,7.059668964028152,-5.168551001776728,-1.6521840259990754,61.64445039516054,153.37672863216608,-3.2221753769469186
6.491249900000001,6.8609311251720975,-4.7787607574597235,-1.2369091100354228,58.39448244439028,145.61729241383222,2.999828886243109
6.5012499,7.686102489330543,-5.111469358480395,-0.6406342272547155,64.30507559018498,138.33776682128823,8.502617609769462
6.5112499,8.40482146469826,-5.1019916517067765,-0.5015016790591632,71.01057739540856,129.70703127863482,12.93824789659944
6.521249900000001,8.967489241330473,-5.4209351002119,-0.5563417587339285,79.2268243330639,120.37835418197858,17.22879505753896
6.531249900000001,9.379375926909312,-5.8441427889614195,-0.6370059151352169,87.62584813690455,109.48200131765927,21.992778454621767
6.5412499,9.657519960268147,-5.813458687717478,-0.8125445040163053,93.27426569725392,98.02506437152869,26.249510825224434
6.5512499,9.987520626145413,-5.643433877861047,-0.9387433472796161,96.97231360452605,87.27114102550925,28.715310474797235
6.561249900000001,10.312179023048238,-5.332690087111813,-0.9978176950797573,96.17665729797992,77.56995559878348,28.996935562095796
6.571249900000001,10.648214032149498,-5.069143391609007,-1.072799693322533,90.58454676350719,69.52290313788995,27.716580054667094
6.5812499,10.732922142267336,-5.140283371227525,-1.088233114448161,81.87456494012802,61.677463753812034,25.80898289613972
6.5912499,10.579181900132385,-5.257069107258466,-1.0720437227889843,70.61233741049723,53.333106704492764,23.74391469479724
6.601249900000001,10.545101468737522,-5.3590545206564455,-1.0998040254678108,58.999457922078726,45.15443475521325,21.349231196524062
6.611249900000001,10.4880216713133,-5.541420478782437,-1.2110162296827771,47.80623815419889,36.692605104359416,19.025728376700183
6.6212499000000005,10.226187173289405,-5.603055329558575,-1.3906982787124504,35.69402700767188,28.00349450273551,16.723208783117688
6.6312499,9.888522175120036,-5.590378586383362,-1.478647069684972,23.651214317475812,19.569187003704133,13.206336093888357
6.641249900000001,9.56177230115527,-5.6571813873003975,-1.4204053083033596,12.435289232424484,11.809995093045409,8.76101289436451
6.651249900000001,9.203944424605705,-5.895301667992063,-1.1864064275152704,2.5448650077708064,4.9696224510538975,4.5908246111547
6.6612499000000005,8.832376468413653,-6.215460713039096,-0.8622402119622093,-5.695533396168833,-0.33531561751369354,0.8630662890937173
6.6712499,8.52509117815088,-6.390207770681534,-0.6299953094657373,-12.738382941489713,-3.692306430771198,-2.4495659316788196
6.6812499,8.439239981414293,-6.538853082512153,-0.4445988756434036,-16.878147021740883,-5.5473222288314155,-5.343841246732164
6.691249900000001,8.416155358966888,-6.857483322371024,-0.2209835417783301,-16.84367227439217,-6.682667475846191,-7.535770399167614
6.7012499000000005,8.183030998742655,-7.174527652388939,-0.015253364863893126,-12.81601439707167,-7.573161878140334,-8.1520522032596
6.7112499,7.823333429586835,-7.29390546214888,0.09573416936669875,-3.872176017535706,-8.458002227098827,-7.158360673879463
6.7212499,7.683260501274746,-7.2529091495647275,0.029917624234266738,7.016818859831888,-9.430649453155503,-5.833961005928254
6.731249900000001,7.726663798247621,-7.04424452528399,-0.1316598026713047,17.23569625360908,-11.24840395311886,-5.022375546838399
6.741249900000001,7.8180204905929145,-6.6204888276274465,-0.21826484179609482,26.153305153412962,-13.781784406756262,-5.071655045223488
6.7512499,8.068270892972958,-6.195893490936991,-0.17625360547921054,33.30606773754347,-15.674704555127283,-5.489545101487949
6.7612499,8.30097593116342,-5.850166276675569,-0.10298779806434459,37.783966008647965,-17.09179351146957,-5.293087991634287
6.771249900000001,8.35358592068091,-5.541548892288443,-0.038824691841028436,38.685482878437455,-17.171710790371698,-4.1152418892918305
6.781249900000001,8.318433860600571,-5.185737629710113,-0.031389409012217304,35.78539597620345,-15.926599622433692,-2.4862613186235154
6.7912499,8.19527930298922,-4.900297737874602,-0.02260850762226264,30.634929920385183,-14.82888309674596,-0.7345599615738025
6.8012499,8.023314091599307,-4.765838205220723,0.008498223552050153,24.826364713886242,-13.502916927316411,1.0328014500832452
6.811249900000001,7.826866279869091,-4.576702596807537,-0.005027941986747035,18.556379722487595,-11.747866367930282,2.0985584278709974
6.821249900000001,7.718175244545539,-4.419947003582065,0.04426795432059807,13.185374919438875,-10.058126806421471,2.140761807912722
6.8312499,7.790210186430688,-4.420939344067174,0.22773668734379016,9.271144766039733,-8.34800856961741,1.5459118663620852
6.8412499,7.863554565965617,-4.534985565335997,0.48752204253636666,6.837978830879132,-6.739366111760111,1.0701239479745368
6.851249900000001,7.817123477620843,-4.680577692134394,0.7337659796732211,5.807514258917582,-5.102382561553752,1.3192255332593616
6.861249900000001,7.7513000983943705,-4.862940164866102,0.9440250857938045,6.110560931535731,-3.2563757771632105,2.7257514844805284
6.8712499000000005,7.7260689821513155,-5.10180443280094,1.0801947285117703,8.439547638877603,-1.5836924492768674,5.163105084528614
6.8812499,7.759248890402413,-5.287118519717529,1.1723675529407127,11.659019686380132,-0.28445938069868043,8.063894663225348
6.891249900000001,7.86920684025998,-5.395882552695741,1.2841481062219877,14.441206711896696,0.7253054180471814,11.286432670644821
6.901249900000001,7.96983553617655,-5.47600870527441,1.379240071694564,16.696087962025427,1.4853701282843201,14.224413006998068
6.9112499000000005,7.948737870451535,-5.528123956268097,1.382955679109504,17.851805994357207,2.2468624620752555,16.086260305329855
6.9212499,7.921837132839748,-5.613102466018085,1.2964857825850338,17.16131238794375,2.8632254719504115,17.092561891530686
6.9312499,7.933140289801351,-5.722417174567239,1.237339496081699,14.975540293568377,2.877934883098261,17.42879885395796
6.941249900000001,7.883168556228877,-5.815989667649674,1.2097311576407161,12.055045804295714,2.556821732951079,16.995035144488398
6.9512499000000005,7.8726962960870495,-5.950583884530192,1.1611276934268178,9.35769227865268,2.2613683648587313,16.109433853482
6.9612499,7.936975457378503,-6.158008992163646,1.1391040861405342,7.53343990579121,1.6862222538029503,14.808994765154477
6.9712499,8.017597008241532,-6.36934562801203,1.1323649475081288,6.326485945249918,1.090642486831996,13.187946845619992
6.981249900000001,8.164573810327674,-6.487219340053894,1.1239819254288663,5.17527224298736,1.1082002305125687,11.832325590104439
6.991249900000001,8.421406996206185,-6.47985642358137,1.183344255192357,3.408591190559096,1.7752253519086336,10.624630970551948
7.0012499,8.66921463270959,-6.4263688947908975,1.2904940048886526,1.4677449772081177,2.626506539307134,9.16574464932798
7.0112499,8.801360300115846,-6.364427914952996,1.341315473933959,-0.033839147882555536,3.8186211801101124,7.537717743939284
7.021249900000001,8.804409391222782,-6.357478628038326,1.2948106903847336,-0.7594768317472161,4.904538853434992,6.060911490961317
7.031249900000001,8.738769430127537,-6.429549609127634,1.2017385605717967,-1.0226246397635048,5.394430741942015,5.051315627380563
7.0412499,8.649249260242826,-6.460757776596069,1.1069664020673895,-1.5361320998996002,5.46569796649724,4.243738250038709
7.0512499,8.60206587714714,-6.342586708889893,0.9860401264471886,-2.871586578880822,5.274272801136143,3.1030126206475264
7.061249900000001,8.651181107822328,-6.202111819398392,0.9186260672035879,-4.986030290650662,4.661041040601955,1.4552295144688594
7.071249900000001,8.734235358935607,-6.158059524707796,0.963708567532557,-7.471109048601172,4.108302645966996,-0.7152142597993831
7.0812499,8.7144105614372,-6.194778710132121,1.0342740988422359,-10.364904711356115,4.020619096187955,-3.306370949312673
7.0912499,8.582889634411568,-6.263188563751702,1.035708637854408,-13.424591205857737,3.6697498768210726,-5.9314449172662425
7.101249900000001,8.496331040904094,-6.337739407156121,1.0090248487499738,-16.129110767108212,3.06399899799164,-8.03897854405797
7.111249900000001,8.502257037316916,-6.434874896548921,1.100832833457328,-18.366501580182,2.576343514546443,-9.549723223923007
7.1212499000000005,8.462235139903388,-6.5523451846316485,1.3120710729455352,-20.62876885416814,1.8355384951709468,-10.881076579114579
7.1312499,8.314452043082573,-6.648018235877839,1.4205290093318452,-22.944692281134007,0.8232169087148832,-11.934325699208234
7.141249900000001,8.170992820392927,-6.654670095089334,1.3150021245842283,-25.00318417917694,-0.31382541948053605,-12.788683242061968
7.151249900000001,8.079178649022307,-6.600639670575176,1.1992992070525412,-27.217973175313038,-1.604261641648747,-13.690415216170527
7.1612499000000005,8.032957870771053,-6.632841237002701,1.231102615187475,-29.092701704776633,-2.5794659036185124,-14.429699656003335
7.1712499,7.974214456149406,-6.741923529529067,1.325343477090862,-29.648256028128586,-3.144766523728405,-14.842794411573959
7.1812499,7.823218853736658,-6.86772364660227,1.408788613706753,-28.70090812077768,-3.608871299479012,-14.728617411751815
7.191249900000001,7.592766877699008,-6.939517972713963,1.333598083366536,-26.335775160634665,-4.164006076868598,-13.74614348843691
7.2012499000000005,7.343266169648371,-6.8418478021205935,1.0310550635430162,-23.21240861921391,-5.114139014418149,-12.585359383915309
7.2112499,7.148066695402381,-6.593243649019655,0.7007029022445208,-19.725984886364206,-6.708600869745425,-11.619720119818176
7.2212499,6.983945736007543,-6.233037458641776,0.4257977277696933,-16.723361583888398,-8.732076119686468,-10.801160035997032
7.231249900000001,6.856740137086762,-5.86236254393678,0.2187621322857393,-14.83686284223024,-10.760241788136815,-9.992616472251063
7.241249900000001,6.773672503677654,-5.577706755109255,0.05291358709708968,-13.756936912692609,-12.486855315151475,-8.63284927101127
7.2512499,6.674669902623763,-5.324742476968125,-0.1407113665651032,-13.66901497937508,-14.10072668848578,-6.494870731137302
7.2612499,6.503235118237647,-5.059296434615216,-0.3225120802940156,-14.775142585611803,-15.370928501839028,-3.8156167051786003
7.271249900000001,6.343725370113675,-4.864796839465003,-0.42495298040231494,-16.363446299414385,-16.083614635978524,-0.6346794089254247
7.281249900000001,6.220008396965524,-4.761638669507859,-0.5056586946025164,-17.88591153447937,-16.40911967969069,3.0829166550767972
7.2912499,6.032009254024502,-4.713535069677474,-0.5487306983882547,-18.905755506948505,-16.37588187891237,7.060155890030388
7.3012499,5.835236563152019,-4.729999158648899,-0.51438691308108,-18.934184818266967,-15.916431251802061,11.37290539976731
7.311249900000001,5.700995228391734,-4.744641979175095,-0.47310515577120776,-18.439402962063422,-15.00002920836093,16.007414202133727
7.321249900000001,5.540929640680292,-4.757697670646171,-0.4297184034240183,-16.813788930429517,-14.016617121367226,21.029081826829433
7.3312499,5.299081298932544,-4.825884531960963,-0.38632493728638573,-14.21570450847235,-12.819468013424657,26.836559882222485
7.3412499,5.010096742530118,-4.875020365718027,-0.30837234094502447,-10.759449484580625,-11.17959329733801,34.038352623758634
7.351249900000001,4.745066644006571,-4.857466182995506,-0.3110970006361073,-7.108234534093363,-9.919562726545468,40.99284034410366
7.361249900000001,4.530263484630836,-4.805574990885245,-0.49288627377505084,-4.187021389568849,-8.659050012942952,47.720959331666634
7.3712499,4.345606588927572,-4.663592219201128,-0.724705118969229,-2.894566925454231,-6.905755800950627,54.532874382247314
7.3812499,4.110807013175643,-4.476322568221525,-0.9817182275501753,-3.969920489745941,-5.136279341971734,60.87752593786084
7.391249900000001,3.7908657945138557,-4.372803753507691,-1.310240448153921,-6.5472954005878226,-3.6335838248006436,67.36522514433408
7.401249900000001,3.4169624319957994,-4.3591152197393255,-1.6121452290431402,-9.908942699713071,-2.521589615911347,74.57568544488629
7.4112499,3.087222254692074,-4.427938388458057,-1.8789176488449584,-13.669105010755372,-1.6956789156775596,82.99802908553316
7.4212499,2.7764976542880153,-4.610689737925295,-2.1735717878108405,-17.0916949793784,-1.3781187168792013,92.57174217647969
7.4312499,2.3735856176621297,-4.8456328405657,-2.5183149812000174,-20.734452642112277,-1.503132798999486,103.0133247967784
7.441249900000001,2.0136302419559744,-4.9687667900483845,-2.9404681929338623,-26.044609458111925,-1.659417845378357,114.30085347323718
7.4512499,1.7541281473560149,-5.035993946863372,-3.4167685957177136,-32.852238015504895,-2.1233227401811634,125.93552483942432
7.4612499,1.5579356663286583,-5.183309642919217,-3.877629539094368,-41.21164702189302,-2.2626962963395787,137.4076344659417
7.4712499,1.411357674205628,-5.416843571082941,-4.2896964284776695,-51.5545602513483,-1.707191759272772,148.6683118390497
7.481249900000001,1.2281644500993902,-5.767524049336052,-4.723358650079938,-62.654158026091125,-1.1071313057628074,159.52952118691118
7.491249900000001,1.0538212914327334,-6.343431477573276,-5.089929544834445,-73.19550685588173,-0.38134965824965444,170.44225166747452
7.5012499,1.0333533957581733,-7.059190502841006,-5.402478110342239,-83.17149004907509,0.8732279957681467,181.58267953591388
7.5112499,0.9926427532570871,-7.804797096320901,-5.933019164669989,-91.7151648811009,2.0779114234184606,192.4102861304363
7.521249900000001,0.9911506106974731,-8.648755341935443,-6.617545937098905,-98.77401293700487,2.800942251219366,203.04298939970812
7.531249900000001,1.3238455862791243,-9.575006468591718,-7.2067456059513395,-104.8869840481512,3.4831890583233855,213.00821290422147
7.5412499,1.8356654538007728,-10.574686997972679,-7.557358547700977,-110.16492462720907,4.226054780248177,222.19631826202283
7.5512499,2.4224581845327635,-11.888247906852909,-7.7849769034759975,-114.55763344287756,5.1474469098271465,231.20066420689844
7.561249900000001,3.2514352628099275,-13.196225616692335,-8.07471782648293,-118.62028540575753,6.333094219091798,238.24662900363626
7.571249900000001,4.281254422338324,-14.363448072341168,-8.217026162945348,-123.59158497835803,8.365705104706603,242.36427975658262
7.5812499,5.361272291097172,-15.657858721668902,-8.094258543699896,-129.11785027827628,10.74705424574054,243.71295364975882
7.5912499,6.751072287605823,-17.198852354093333,-8.012734884851502,-134.4841928793781,13.096383984591709,242.13909328748548
7.601249900000001,8.437577407726307,-18.681080035547275,-7.993296845374038,-142.2740157238744,15.88554413313388,237.090187945258
7.611249900000001,9.92308408066028,-20.056181551334884,-8.006958733347926,-152.94355138916254,17.72262806056649,228.22696081216853
7.6212499,11.522491302648794,-21.728704632039832,-8.153849822950136,-167.12564663769808,18.066998670146024,215.6413779172656
7.6312499,13.73380832362074,-23.554338578566455,-8.254898489745917,-187.01493631032102,18.165839309041456,197.49038697613614
7.641249900000001,16.164329293761178,-25.084775566546877,-8.056243676086202,-211.45965141456898,16.849097015866313,170.5017859038941
7.651249900000001,18.71727390046608,-26.398663985537503,-7.820027886017337,-237.58634536781375,11.048572711395632,132.5751498815341
7.6612499,22.47387981799476,-27.613116977620752,-7.244133842322947,-265.52216428158306,0.745250691969002,82.62866999366364
7.6712499,27.63876111800953,-28.696577907849274,-5.635152943273902,-291.0877266704085,-15.099933087111522,20.309541615865093
7.6812499,33.828450287915494,-29.724199772954098,-1.9244397808133982,-309.7388528354353,-38.248574139058626,-56.03019770771899
7.691249900000001,39.55901443679302,-31.838228683339945,5.9419470161470525,-316.4776314179679,-70.84703863494013,-146.17019120851714
7.7012499,41.02008031333245,-35.844889900987596,15.595114702556671,-304.04597173785936,-114.38182350884175,-241.0433123515553
7.7112499,37.61541066932113,-38.57462399717458,21.11250347221417,-307.64565495604614,-158.87147788214668,-321.8475793915817
7.7212499,32.89434543466196,-39.90009324115643,22.632448979149096,-348.95266229523526,-190.91540535640922,-396.4887662345811
7.731249900000001,28.176204284100045,-42.726684248183695,22.55510167627294,-385.2355778338687,-213.01088747007515,-474.5098321275052
7.741249900000001,22.211778587483654,-45.30075787013159,21.348057251285375,-405.18180989220485,-233.40199605510418,-503.861461594732
7.7512499,14.499424922632553,-47.65226594136762,19.62009849217037,-410.16084207255096,-244.25738723098527,-499.02326150822296
7.7612499,3.275790807292927,-48.872003573930904,16.744719793587915,-376.2548688220974,-249.0205663154614,-500.30349632378505
7.771249900000001,-8.998434047318401,-43.71195499629325,13.474112547683504,-317.2970592925717,-257.1958264123991,-499.4927918186145
7.781249900000001,-20.653370917011447,-33.80441582371404,10.6853040405836,-253.25562503611394,-262.4922245060512,-499.84092627206127
7.7912499,-30.91607352581639,-24.353030297442842,7.13862251249746,-184.03718178400595,-246.91254388700685,-503.51127610631
7.8012499,-37.124037680310416,-13.959927227859712,2.7384968010615927,-122.87433274807725,-199.63614648475598,-443.6497483261229
7.811249900000001,-39.34676938935471,-2.1556515463243455,-1.1662585592162773,-105.22346698037651,-118.4234295061533,-325.8658443983763
7.821249900000001,-42.01077812596118,5.5952546738351625,-1.9548923665837925,-103.6797833435244,-27.442466669511173,-239.44872738190597
7.8312499,-43.29793127858453,8.155500553213866,-0.9479139747295379,-86.25226367828313,41.51778170377442,-189.16097232827772
7.8412499,-39.726047975021444,6.920694933342033,-1.9550958633703788,-53.3134605556018,94.77972881868584,-152.14580648447745
7.851249900000001,-36.60007402367986,1.947351988577852,-3.658950490705954,6.324500009249555,130.80013338853286,-108.34243139295309
7.861249900000001,-33.76402346637527,-2.1009655526952025,-4.224925519021416,77.32380837639651,149.41576146017354,-50.46606005209313
7.8712499,-29.353741561098737,-2.2900022097962394,-4.404125508034631,137.8258817709232,155.76539100127462,3.656680028890553
7.8812499,-24.490364145263865,-0.4070877794133691,-5.4177464746403405,182.38850730311677,155.40738997880652,37.748281976877415
7.891249900000001,-19.860429370856963,1.5744619939471944,-7.845765849333519,209.99482230254065,147.8683735905269,52.7921209396386
7.901249900000001,-15.619736610283155,3.449153812581865,-9.86923502339627,211.010541674734,129.9614728206105,59.64244426375931
7.9112499,-11.5097482227028,4.502764249646448,-10.29763072221813,185.341140445696,105.68978015178216,65.23591510629102
7.9212499,-6.963246031959062,3.3587927460061446,-9.885283857991666,149.75988128710344,82.14770168757033,71.1183356574231
7.931249900000001,-2.3128556950535115,0.5483480997261604,-9.320433593481226,116.61486225871563,63.48011200998795,76.63550728219819
7.941249900000001,1.5476361573700523,-2.4605582405129,-8.814782360047397,88.92789599441059,50.97272713740433,79.78425422682015
7.9512499,4.230233550523231,-5.163678115265163,-8.519905825299235,67.20350988015998,45.26556743032858,78.50304077445509
7.9612499,5.654824227772471,-7.849880139991618,-8.450307017722942,54.364168986780996,46.912389051361735,71.47921871553014
7.9712499,5.910345299760494,-10.059510108835237,-8.36527377877892,51.30960555781241,53.43514294044383,60.84106511832083
7.981249900000001,5.8228914379012915,-10.983530733682604,-8.614699386937364,57.319850077031525,58.08122404943368,50.48789760229965
7.991249900000001,6.238167237197614,-10.826531224176694,-9.14095384901587,70.00195401844375,57.438791847744135,40.21901942660862
8.0012499,6.883464416487736,-10.198132838455152,-9.23865966237526,87.47231913278826,52.35875767825136,30.352240993795693
8.0112499,7.034499091113745,-9.468029055510852,-9.062298496275037,106.64267172544642,44.918083148888535,22.588387727154814
8.021249899999999,6.692676360330046,-8.46194797198848,-8.968343277730542,122.37205658542801,37.24968959032841,17.581532895532927
8.031249899999999,6.158943612804541,-7.281963613217978,-8.83129886679073,130.15371423664962,31.23486667815089,14.701759133290741
8.0412499,5.623776458548998,-5.921774343843603,-8.817137193142944,126.28539947803824,28.478402346692214,12.529709603548408
8.0512499,5.19938154283807,-4.582846558402809,-8.944407126255351,111.20480217159502,28.5008717813345,9.395289950745157
8.0612499,4.913522333257157,-3.778067997224769,-8.978802592416173,88.99629594831754,30.393300884110907,4.797936986463857
8.0712499,4.840159269955764,-3.1953781128332883,-8.944414220304964,61.10339023590389,34.42540592235006,-1.9215757032024399
8.0812499,5.013901527951774,-2.6727441729085486,-8.758348908469838,30.203620950894553,41.491550534530994,-11.192672877092885
8.0912499,5.290303605603446,-2.5991521379860973,-8.237260819059586,1.795462510888782,52.55773986219338,-21.68491630318399
8.1012499,5.601302417905669,-3.113593764649979,-7.730171334711945,-18.47476216945762,65.67982513071863,-30.33569575604182
8.111249899999999,5.966238910816609,-3.9533510339851983,-7.491878596650596,-27.54449166673629,77.83376788226028,-34.66898175724989
8.1212499,6.1311950371013335,-4.392315069882575,-7.0353376221426,-29.97457650312904,88.70793080636605,-34.996683453749824
8.1312499,5.786043923952914,-4.673280161612559,-6.415093697085574,-24.828595036547345,98.14941829834513,-31.806772483241485
8.1412499,5.146540442386502,-5.023283683433626,-5.953968068555489,-11.977898903435287,106.05888316136287,-25.3949993527087
8.1512499,4.674331769474063,-4.989931861506681,-5.807039428587621,2.370827347326857,113.76564676806414,-17.07356857715788
8.1612499,4.392387917043836,-4.480569857764172,-6.00578112941823,13.845561318730542,121.10642275156034,-9.097872319183427
8.1712499,4.425083542647775,-3.84019228664028,-6.333108212111984,23.476611630679525,129.29396622823455,-2.534205063792903
8.1812499,4.854267102186606,-3.6086741396694966,-6.28280798110866,32.28353665040168,139.08554092693518,3.100972287323401
8.191249899999999,5.34405899429669,-3.7838643708425197,-5.870015140079069,38.184756163122024,148.26636718780068,7.000020668302467
8.201249899999999,5.741216651123249,-3.9249116564557496,-5.547227533891361,43.45959029242202,157.6387184291909,9.425473662537787
8.2112499,6.069755167433868,-4.045683380361399,-5.210963299798642,50.37408420561717,167.05542355311917,10.64338525801617
8.2212499,6.4613954256459705,-4.361814707975887,-4.869384151834119,59.685603792831984,176.20602910129747,11.501389290973991
8.2312499,6.820204158331681,-4.7629906411202185,-4.858662449321204,71.46376169336482,184.08656063208173,12.722124672218497
8.2412499,6.961470741833592,-4.946429596413572,-4.977661180820083,82.67967094604707,189.3061204693193,13.752101854313484
8.2512499,7.081503415372147,-4.9078379417332965,-4.897387822293288,91.32791745573522,192.49913869153244,13.91426032959063
8.2612499,7.418647736101773,-4.750284825759346,-4.698728548966983,98.05968951798685,194.5786232841696,12.627523681877516
8.271249899999999,7.870280718331901,-4.808957341768699,-4.3580147020466855,104.521343982431,196.0170000560593,9.998871526697675
8.281249899999999,8.033117356160867,-5.110505925462898,-3.8624533934518737,109.68077845992984,196.43190849689967,7.1686762096023475
8.2912499,7.977074409245716,-5.315278971626734,-3.5268697468115158,113.52758174834855,194.87295195975048,4.010330814559077
8.3012499,8.070477151404463,-5.4169594773639504,-3.3417782330134567,117.5946800519222,191.48011746286863,-0.33660489294618134
8.3112499,8.169204067166074,-5.4506491077872035,-3.0591113117395965,120.2342830985094,187.10718508815614,-5.625492580431067
8.3212499,8.115436989147003,-5.497728961583376,-2.7508965185991343,120.08052758770017,182.48264622539455,-10.980075047556301
8.3312499,8.073348843605748,-5.696722509533867,-2.4759099059048117,118.01666622996343,176.7596864209767,-15.508682266748476
8.3412499,8.064971588105532,-5.785112691017167,-2.229456637186705,114.021129301824,169.41494909135773,-19.07810385091136
8.3512499,7.692434111526049,-5.25001024732812,-2.0087517183649974,104.82283395610447,159.3293126288637,-23.265396934211918
8.361249899999999,7.836405926813913,-4.581248387833071,-1.7256800144150148,92.62199784009168,148.96868551954518,-28.206440342414137
8.3712499,9.36370661480603,-5.121904179479118,-1.495875670105617,88.73869904293484,142.95015883278214,-31.76184386466364
8.3812499,9.873306222543079,-6.082772157508192,-1.5681599986817114,92.80777801054055,132.34843035656166,-31.726614184183706
8.3912499,8.759913636323702,-6.239050225816385,-1.7381334245659044,96.16608781950666,112.03776336791987,-28.334272539468746
8.4012499,8.614941347782697,-6.147530331250767,-1.6653467629987735,99.49921795518584,94.85085255247935,-25.148540443665397
8.4112499,9.112299665853216,-5.796485157548734,-1.5003990268669094,102.86631427118621,81.30322101946388,-23.469716390700608
8.4212499,9.450885870931787,-5.310640753188912,-1.3274314264019114,104.10470696560247,68.60808354293262,-22.97053424900962
8.4312499,9.72361116350442,-5.001803237876772,-1.1653327609203386,101.83018406548591,57.609648674071984,-22.993547459369964
8.441249899999999,9.89933792544163,-4.789380824945389,-0.9048855759438477,96.78204303276577,48.22842500200373,-22.684735650985978
8.451249899999999,9.93551615780431,-4.621397866703596,-0.6008215000314105,89.68436926688595,40.514315217913925,-22.114076648191233
8.4612499,9.703875009481616,-4.395689996656412,-0.5273011546047496,79.45908567496821,33.31859226828767,-21.19184856156448
8.4712499,9.367109397139103,-4.233573754791062,-0.5352411533810529,66.97084813839666,26.706450323910605,-20.42536542979684
8.4812499,9.034981028250346,-4.103676033480684,-0.49452182227939845,53.497350255386905,21.027692794681077,-20.055195052666768
8.4912499,8.678153655228279,-3.9727164424430135,-0.3826937409438019,40.84022552147342,15.3492535990244,-20.053192578697146
8.5012499,8.433136011872707,-4.062493292697934,-0.16054888090839084,30.554655595362053,10.235143518013963,-20.185528254838868
8.5112499,8.309816816483355,-4.165451123555726,0.07482260979225631,21.86726684067393,6.374938089532236,-19.246644190889032
8.521249899999999,8.246694582251942,-4.135829529479502,0.37637572019003507,14.643214575887916,3.2463483212172357,-17.07779851876105
8.531249899999999,8.25063485674739,-4.129661863317889,0.7443005335384574,8.960838900319597,1.099841498011968,-13.627485347660294
8.5412499,8.202242705319422,-4.077879727039091,1.0538063822986166,3.844658461951687,0.3781980643973704,-9.249480849404254
8.5512499,8.00095071811105,-3.9415367276719016,1.2382740602362101,-1.2011255089747757,0.3202081808278348,-4.419537331362834
8.5612499,7.818357292951255,-3.762677315653498,1.3120398554854324,-6.234123591463025,0.8857973538372267,0.6425598200335396
8.5712499,7.825436215770755,-3.570239048443884,1.2771602542868274,-11.093123606417675,1.8776514683749599,5.2446142353054
8.5812499,7.932869022165173,-3.416928146244347,1.163053272708242,-15.498742764282843,2.8728853548587336,8.90124597604717
8.5912499,8.068116253964076,-3.3046285421922,1.1558984355318742,-20.07802357929775,4.325129174837594,12.149163351728083
8.6012499,8.152472437302338,-3.322604989121602,1.2854868491215963,-23.686252366925554,5.8718202282207415,14.87142994888803
8.611249899999999,8.16446851672861,-3.5661965561470357,1.4159880851169857,-24.737498864060285,7.372943916721795,16.773169270267115
8.6212499,8.120982593905051,-3.9023179574133655,1.521535928158449,-23.902900326232647,9.253102008727923,18.588322195371973
8.6312499,8.083357436087761,-4.266206773922647,1.6210563586758489,-20.63771664705722,10.610119036944845,20.4347474633496
8.6412499,8.199897686690186,-4.5511400444686085,1.570727633011816,-15.525572049926009,11.25831687324518,22.139905207117167
8.6512499,8.414276058327413,-4.660413502698778,1.5164934640821512,-11.389023792023298,11.222950792820686,23.75856562635657
8.6612499,8.616900487151582,-4.796443943093675,1.6822535555842186,-9.028064380106839,11.130765495721384,24.791582933273855
8.6712499,8.702966143471137,-5.075618084803724,1.8524105306407697,-8.80928971255785,11.493566579629679,25.37352217622407
8.6812499,8.623342058232017,-5.3179889814554455,1.9091271496540623,-11.351223166243267,12.05318998565248,25.237933965195428
8.691249899999999,8.552733903145583,-5.56768790371255,1.90537887943993,-14.495789296372056,12.593134824678373,24.150115156862157
8.7012499,8.49922531710203,-5.843022288869988,1.8486841428257976,-16.78721026296917,12.378063327222948,22.69267578466915
8.7112499,8.417615945422963,-6.078620791381701,1.7385400740932204,-17.7107072186824,11.187239062653443,21.069745967312535
8.7212499,8.400894371796928,-6.2511705335433865,1.5200901303909289,-17.078386277549498,9.208880843070903,19.46849833464331
8.7312499,8.4429422755224,-6.291829792443408,1.204849426362536,-14.872708374077867,6.609465544834927,17.902377734417993
8.7412499,8.592949249116229,-6.188740379594941,0.9312022928606957,-11.357758470613717,3.6175060409119286,16.394650210046315
8.7512499,8.807380218279226,-6.015429720682543,0.7116046752336291,-7.774872572612018,0.5242930588430359,15.211043673632423
8.7612499,8.97531761675498,-5.765015457385927,0.4910582154858578,-5.273113465338844,-2.137795433363984,14.22418612857181
8.771249899999999,9.113100036451074,-5.434725329058299,0.21670057891328326,-4.3452193097216885,-4.27535669305122,13.274699110588417
8.781249899999999,9.277755232913462,-5.183741958658845,-0.03580407729309129,-4.86588528556406,-6.267511073458254,12.441484582593255
8.7912499,9.384143134975956,-5.023803359499023,-0.1659888002436369,-6.802169709886914,-7.8428032278408555,11.801105358374327
8.8012499,9.301989958437103,-4.999255253437115,-0.2352530278335006,-9.620670036346098,-9.13660261802696,11.128577218728282
8.8112499,9.140178137478177,-5.147029204242681,-0.2697040398689638,-12.404456453978243,-10.074661119368105,10.120984835980979
8.8212499,8.975301070587527,-5.381248682464935,-0.32980304584022246,-13.9835353407757,-10.367595537273319,9.266720560459285
8.8312499,8.715673376042322,-5.595460465900102,-0.4140045265749568,-15.11439514953743,-10.19565541539438,8.34998976999467
8.8412499,8.485460388694413,-5.746610651791008,-0.38158736960057915,-16.613403057588776,-9.606113184088093,7.108520503916279
8.8512499,8.363096041595794,-5.963774736351885,-0.237471404919398,-17.90247987854327,-8.168623853187855,5.58540115319397
8.861249899999999,8.188771297782372,-6.179880591680095,-0.0805093941078785,-18.730691943758814,-6.1277909780257005,3.9510864013124847
8.8712499,7.943798652108935,-6.370161445215712,0.0016976745593245892,-18.44976767642888,-3.8475529461298557,2.3364401413130036
8.8812499,7.686468408646586,-6.524930735694409,0.02552146164638159,-16.912147573329243,-1.7392575771163055,1.0209318330995487
8.8912499,7.505561710970192,-6.6219080295768515,0.10873735402231544,-14.38122230269832,0.07801984065303422,0.27606894691227607
8.9012499,7.454707311745332,-6.674957402719258,0.24152933608329358,-10.882930687105876,1.704383614906703,-0.05782331509918901
8.9112499,7.453956358677993,-6.645036395342456,0.32625922618705105,-7.046397711102495,3.1961772767959986,-0.20900530245066035
8.9212499,7.413283567168876,-6.505801975960687,0.40073936854332,-3.4885269478086536,4.383937043234153,0.0558439504942082
8.9312499,7.346081570719208,-6.282946338737397,0.4909807749290059,-0.4610491831600553,5.391924754195052,0.2888976933541227
8.941249899999999,7.266305985691599,-6.069746853863842,0.4838793701458043,1.7519082519197526,6.06752291110802,0.404318079606589
8.9512499,7.166352777399881,-5.881163300235942,0.34052313675796547,2.8830568055356602,6.371460244532763,0.5671198018502585
8.9612499,7.0831681227718075,-5.721801477669571,0.18791572386612132,2.8797084298364344,6.446263206158366,0.8796565022732
8.9712499,7.036443787849891,-5.582403807669183,0.12418349712869736,2.1544609450787533,6.155217900713642,1.5237189467337833
8.9812499,7.0841539823797,-5.447602366783499,0.114970761419537,1.1260682844935226,6.153960623068666,2.55192089124958
8.9912499,7.161508854253858,-5.400891279153234,0.16399658135583947,0.21993212162865147,6.280915391933536,4.13283566078735
9.0012499,7.145482833511482,-5.4237870428414485,0.2886781153519528,-0.28954344112095914,6.312863903123489,6.142561081859746
9.0112499,7.121517144239667,-5.424849831395772,0.3919352516358038,0.1439637855070197,6.587374733392054,8.793555588318718
9.0212499,7.0217761748232,-5.49864700198836,0.44835048230099156,1.8738536851869472,6.477919488432209,12.112921565152499
9.0312499,6.756845852816754,-5.557002272581471,0.48936367419394133,3.5952959649522676,5.917120061533158,15.678758824735112
9.0412499,6.490815460888741,-5.46034589675394,0.45666927907168076,5.074492826069224,5.138925149420442,19.501888897557528
9.0512499,6.3213201534858525,-5.317146233273926,0.40567859389000066,6.698488762576821,3.909713185767849,23.111122193828926
9.0612499,6.200281693757628,-5.191884100244393,0.5180345947497503,8.29023895634808,2.4255446445261737,26.21367314757894
9.0712499,6.056771867360064,-5.103382666568893,0.6944178053626414,9.932641797168195,1.169764109275611,29.73213965359208
9.0812499,5.885850487621232,-5.043829799117135,0.7273623765904123,11.183569872218797,0.256777421623386,33.896866612887166
9.0912499,5.672712291486536,-4.920447779241101,0.6625151394073797,11.524749053445333,-0.667410182515054,38.378410813952144
9.1012499,5.438336075645196,-4.7566493898961575,0.5070809742133883,11.15378871692315,-1.620435966858527,43.13326609009924
9.1112499,5.233584325332161,-4.591779549139626,0.11515440926425889,9.801933223440077,-2.808264426369686,48.0792311216648
9.1212499,4.999096799960612,-4.373947440640804,-0.271680259360328,6.9663236626303835,-4.28458355632265,53.50113676223751
9.1312499,4.621037228724232,-4.190418232284572,-0.5635320813467352,2.677784955124227,-6.09945912254725,59.67569697034257
9.1412499,4.1622471937626075,-4.009494356936825,-1.067482853220145,-3.1716900224447144,-8.70040798752232,67.09230392561958
9.1512499,3.708446690357071,-3.793359894499684,-1.5653046131021433,-9.887707509553163,-12.131395760271687,75.7147847033724
9.1612499,3.1797627602607066,-3.659656919791501,-1.813302982547838,-16.004598946473603,-16.169493521237946,85.68409401586997
9.1712499,2.6079144492586215,-3.742395015349267,-2.1201135248411687,-21.297929561183366,-20.47683962252112,97.51822418798054
9.1812499,2.136125195722694,-4.032645805027801,-2.542631202996672,-27.352595167886133,-24.996065707260858,111.406985985171
9.1912499,1.7645265635473102,-4.26100536079527,-3.0312521402252672,-36.47347228482058,-28.385146595777094,126.56445494026427
9.2012499,1.4203081603018521,-4.378444579372836,-3.6165948459565036,-49.36059945669357,-30.38655471061226,141.7006302738792
9.2112499,1.1680400517381528,-4.607558661450812,-4.252313890217327,-65.54699075355592,-31.485987199581206,155.9714813780959
9.2212499,0.9187855811024773,-5.040388972423448,-4.966739168161118,-86.8800080066437,-31.13958412225025,171.02550930303119
9.2312499,0.5541173585635936,-5.646207321054829,-5.648867874507351,-109.29899123505172,-29.516830568366128,185.46007696497767
9.2412499,0.19140990676937614,-6.476861052286264,-6.282543539901113,-126.29596367043577,-27.678807115803924,197.27425205073732
9.2512499,-0.06570335075640671,-7.4974710972889085,-7.028083119632133,-140.00319108985968,-25.540502413636748,209.72855747812278
9.2612499,-0.2389199602836664,-8.615030161805219,-7.700927281593151,-151.49352641008798,-23.08402433483662,223.54997357983922
9.2712499,-0.359307231925514,-9.724082196427794,-8.225246571149581,-160.3100079173453,-20.338144120821333,237.38666652769314
9.2812499,-0.34643572124856853,-10.872871249140944,-8.672356188309317,-165.29017901343988,-17.317672775619776,250.96495192911416
9.2912499,-0.18860399414937418,-12.121645587461112,-9.030751903156071,-167.63297872555853,-13.335783379268083,264.67566770228024
9.3012499,0.03178004551947289,-13.294985271116218,-9.256120413994534,-169.26386390463213,-8.184318645952414,277.6574880912883
9.3112499,0.4200030079996216,-14.252856169384042,-9.412826005996505,-171.87863299009325,-1.6068923882877648,289.2067902539811
9.3212499,0.981218425195715,-15.208595681176348,-9.468481488086498,-176.7979019508814,5.832587720431862,298.46427064435005
9.3312499,1.8133646210851102,-16.458209911258216,-9.445703936688258,-182.95647739492705,13.427411164724374,303.8161701827708
9.3412499,2.835415635723103,-18.04195063926721,-9.480246089898504,-189.3573347223157,20.316922521448483,304.28358674706425
9.3512499,3.8813374069633295,-20.177209131989404,-9.791100838368248,-193.88151772526888,25.833501487618474,299.6454619642164
9.3612499,5.427137597376348,-22.75989476261638,-10.39936008867619,-195.93298842836694,30.752601126303247,289.6734934945906
9.3712499,7.563192091575857,-25.237396517301107,-11.11046200280793,-197.51945170228595,33.8159217648653,273.6574084564046
9.3812499,10.1689299084743,-27.40690801652757,-11.759517479298225,-199.61578894114368,35.012574660958435,250.3115242278651
9.3912499,13.412692386528853,-29.350735141831297,-11.848192909249457,-202.6851452336504,36.10092183638741,217.97309565508303
9.4012499,17.08460811644794,-30.95031696125132,-11.285006997223366,-207.77823033068037,37.71887829609371,174.26252155353797
9.4112499,20.737341122382176,-32.33798374965228,-10.887087432162904,-214.7281146109845,40.6611701583889,120.54698231033754
9.4212499,24.2759640622784,-33.46203394765537,-10.4021145691989,-224.10605152834384,43.36159301229323,58.82076811233054
9.4312499,28.841495526104634,-34.25136284354532,-7.717133217567825,-235.6375386396089,41.20453689729817,-24.92903835248417
9.4412499,33.65951851346513,-35.1012462808208,-3.0231854737718518,-241.35967750562563,32.75342430094297,-123.23959778249835
9.4512499,36.125399932657594,-36.019638733168996,2.174110449043119,-240.46946364184063,20.150919246896894,-215.45947400631744
9.4612499,35.92479813762119,-36.44861774306345,8.018963607863036,-244.77783529692115,6.274541261987088,-308.37130579625335
9.4712499,33.20550876759609,-37.53186473195706,13.927729514612325,-262.44590802988137,-7.286723990641259,-402.5092906481094
9.4812499,28.077736588915478,-40.685491192166424,18.874151928194898,-289.5174360184638,-21.384945426393088,-480.0212592779117
9.4912499,21.24967273052437,-44.149663527938415,22.88754133065994,-310.50406652482667,-39.54708698817966,-503.13193789286305
9.5012499,13.876718120238376,-46.779412582772665,25.870593895175908,-308.27329766842035,-66.67659091535248,-499.1969222337371
9.5112499,5.406608115143694,-48.489737588322356,27.080244778529405,-290.3212002988609,-106.30613182101736,-499.92723023457495
9.5212499,-4.946228091392223,-48.01509797530886,25.909677525558642,-268.3620300429568,-159.44995272246382,-500.10976376790904
9.5312499,-14.503357694233305,-43.20416999857729,22.19314502801061,-240.88991962976817,-218.3410717256899,-500.3312267560791
9.5412499,-21.697111357346124,-34.723253702556704,18.17371174705573,-212.70357767193485,-269.5403061773631,-498.9572708782038
9.5512499,-30.757921366263353,-26.6645504033044,15.766876054347806,-185.33971104606775,-309.6968150309749,-501.38548303632723
