# Time (seconds),Accel_X,Accel_Y,Accel_Z,Gyro_X,Gyro_Y,Gyro_Z
0.0012499,7.778761386871338,-3.2776620388031006,5.027823448181152,-0.7171630859375,-1.129150390625,-0.701904296875
0.0037499,7.785943984985352,-3.2632968425750732,5.03021764755249,-0.7476806640625,-1.1444091796875,-0.79345703125
0.0062499,7.793126583099365,-3.246537446975708,5.03021764755249,-0.640869140625,-0.9765625,-0.823974609375
0.0087499,7.802703380584717,-3.2369606494903564,5.039794445037842,-0.6561279296875,-0.8392333984375,-0.6866455078125
0.0112499,7.8098859786987305,-3.227383852005005,5.044582843780518,-0.762939453125,-0.7171630859375,-0.9918212890625
0.0137499,7.814674377441406,-3.227383852005005,5.058948040008545,-0.6561279296875,-0.7781982421875,-0.91552734375
0.016249899999999998,7.817068576812744,-3.224989652633667,5.070919036865234,-0.5645751953125,-0.7171630859375,-0.91552734375
0.0187499,7.817068576812744,-3.227383852005005,5.080495834350586,-0.6561279296875,-0.4425048828125,-0.9765625
0.021249900000000002,7.817068576812744,-3.2345664501190186,5.080495834350586,-0.5645751953125,-0.4730224609375,-1.1138916015625
0.023749899999999997,7.817068576812744,-3.246537446975708,5.070919036865234,-0.335693359375,-0.4730224609375,-1.068115234375
0.0262499,7.82185697555542,-3.2609026432037354,5.049371242523193,-0.48828125,-0.3662109375,-1.068115234375
0.028749900000000002,7.824251174926758,-3.268085241317749,5.032611846923828,-0.3814697265625,-0.5340576171875,-0.9613037109375
0.031249899999999997,7.824251174926758,-3.268085241317749,5.018246650695801,-0.3204345703125,-0.5340576171875,-0.9918212890625
0.0337499,7.82185697555542,-3.2632968425750732,5.013458251953125,-0.2593994140625,-0.54931640625,-1.0986328125
0.0362499,7.819462776184082,-3.2537200450897217,5.020640850067139,-0.5035400390625,-0.54931640625,-1.129150390625
0.0387499,7.814674377441406,-3.2417490482330322,5.032611846923828,-0.6103515625,-0.518798828125,-0.9765625
0.0412499,7.805097579956055,-3.227383852005005,5.051765441894531,-0.6103515625,-0.5950927734375,-1.0223388671875
0.0437499,7.797914981842041,-3.205836057662964,5.066130638122559,-0.6103515625,-0.67138671875,-1.1138916015625
0.0462499,7.793126583099365,-3.184288263320923,5.073313236236572,-0.8392333984375,-0.5340576171875,-1.4190673828125
0.0487499,7.790732383728027,-3.162740468978882,5.0685248374938965,-1.1138916015625,-0.5340576171875,-1.2969970703125
0.0512499,7.802703380584717,-3.1531636714935303,5.056553840637207,-1.373291015625,-0.518798828125,-1.3427734375
0.053749899999999996,7.817068576812744,-3.1459810733795166,5.039794445037842,-1.64794921875,-0.48828125,-1.4190673828125
0.0562499,7.833827972412109,-3.1435868740081787,5.027823448181152,-1.7852783203125,-0.335693359375,-1.3580322265625
0.0587499,7.848193168640137,-3.1483752727508545,5.013458251953125,-2.13623046875,-0.0762939453125,-1.40380859375
0.061249899999999996,7.8529815673828125,-3.1507694721221924,5.003881454467773,-2.44140625,-0.0762939453125,-1.4190673828125
0.0637499,7.860164165496826,-3.155557870864868,5.013458251953125,-2.7313232421875,-0.1220703125,-1.3275146484375
0.0662499,7.8529815673828125,-3.160346269607544,5.023035049438477,-3.11279296875,-0.0457763671875,-1.4801025390625
0.0687499,7.843404769897461,-3.1675288677215576,5.049371242523193,-3.4942626953125,-0.0152587890625,-1.3427734375
0.0712499,7.829039573669434,-3.1723172664642334,5.0685248374938965,-3.5400390625,-0.1373291015625,-1.5869140625
0.0737499,7.812280178070068,-3.181894063949585,5.07570743560791,-3.326416015625,-0.2593994140625,-1.89208984375
0.0762499,7.802703380584717,-3.1962592601776123,5.0685248374938965,-3.0059814453125,0.0152587890625,-1.922607421875
0.0787499,7.797914981842041,-3.222595453262329,5.061342239379883,-2.655029296875,-0.1373291015625,-1.8157958984375
0.0812499,7.795520782470703,-3.2585084438323975,5.044582843780518,-2.4566650390625,-0.1373291015625,-1.9989013671875
0.0837499,7.795520782470703,-3.2992098331451416,5.03021764755249,-2.38037109375,-0.335693359375,-2.2125244140625
0.0862499,7.797914981842041,-3.339911460876465,5.015852451324463,-2.044677734375,-0.396728515625,-2.13623046875
0.0887499,7.800309181213379,-3.3734302520751953,5.0014872550964355,-1.800537109375,-0.6103515625,-2.0294189453125
0.0912499,7.800309181213379,-3.397372245788574,5.003881454467773,-1.5869140625,-0.640869140625,-1.8157958984375
0.0937499,7.802703380584717,-3.406949043273926,5.008669853210449,-1.5106201171875,-0.5950927734375,-1.6632080078125
0.0962499,7.800309181213379,-3.399766445159912,5.027823448181152,-1.46484375,-0.5340576171875,-1.7852783203125
0.0987499,7.800309181213379,-3.380612850189209,5.049371242523193,-1.373291015625,-0.7171630859375,-1.8157958984375
0.1012499,7.800309181213379,-3.3446998596191406,5.0685248374938965,-1.312255859375,-0.42724609375,-1.6326904296875
0.1037499,7.807491779327393,-3.3039982318878174,5.085284233093262,-1.3275146484375,-0.48828125,-1.4495849609375
0.1062499,7.819462776184082,-3.2585084438323975,5.099649429321289,-1.4801025390625,-0.4730224609375,-1.5716552734375
0.1087499,7.833827972412109,-3.220201253890991,5.102043628692627,-1.8768310546875,-0.335693359375,-1.7242431640625
0.1112499,7.85537576675415,-3.1866824626922607,5.102043628692627,-1.89208984375,-0.1220703125,-1.9073486328125
0.1137499,7.872135162353516,-3.1675288677215576,5.0900726318359375,-2.25830078125,-0.18310546875,-1.9683837890625
0.1162499,7.886500358581543,-3.1651346683502197,5.078101634979248,-2.50244140625,-0.3204345703125,-2.1514892578125
0.1187499,7.888894557952881,-3.1723172664642334,5.070919036865234,-2.7008056640625,0.1373291015625,-2.62451171875
0.1212499,7.881711959838867,-3.1866824626922607,5.070919036865234,-2.960205078125,0.1068115234375,-2.3956298828125
0.1237499,7.8745293617248535,-3.201047658920288,5.07570743560791,-3.1280517578125,-0.0457763671875,-2.3651123046875
0.1262499,7.862558364868164,-3.220201253890991,5.07570743560791,-3.143310546875,-0.18310546875,-2.288818359375
0.1287499,7.8529815673828125,-3.2393548488616943,5.073313236236572,-3.35693359375,0.152587890625,-2.2125244140625
0.1312499,7.850587368011475,-3.2561142444610596,5.066130638122559,-3.3416748046875,0.18310546875,-2.227783203125
0.1337499,7.845798969268799,-3.270479440689087,5.061342239379883,-3.23486328125,-0.06103515625,-2.1209716796875
0.1362499,7.845798969268799,-3.2752678394317627,5.049371242523193,-3.082275390625,0.030517578125,-2.2430419921875
0.1387499,7.843404769897461,-3.2776620388031006,5.044582843780518,-2.7313232421875,0.0152587890625,-2.2735595703125
0.1412499,7.841010570526123,-3.270479440689087,5.035006046295166,-2.777099609375,-0.0762939453125,-2.25830078125
0.1437499,7.838616371154785,-3.270479440689087,5.023035049438477,-2.5787353515625,-0.1373291015625,-2.349853515625
0.1462499,7.836222171783447,-3.2632968425750732,5.020640850067139,-2.3345947265625,-0.1983642578125,-2.410888671875
0.1487499,7.836222171783447,-3.272873640060425,5.008669853210449,-2.1514892578125,-0.1678466796875,-2.3651123046875
0.1512499,7.838616371154785,-3.2800562381744385,5.0014872550964355,-2.1514892578125,-0.42724609375,-2.3040771484375
0.1537499,7.848193168640137,-3.294421434402466,4.991910457611084,-2.3040771484375,-0.48828125,-2.4566650390625
0.1562499,7.860164165496826,-3.3063924312591553,4.987122058868408,-1.9989013671875,-0.48828125,-2.3193359375
0.1587499,7.869740962982178,-3.308786630630493,4.991910457611084,-2.105712890625,-0.7476806640625,-2.227783203125
0.1612499,7.879317760467529,-3.3039982318878174,4.999093055725098,-2.227783203125,-0.7171630859375,-2.0751953125
0.1637499,7.884106159210205,-3.287238836288452,5.015852451324463,-2.38037109375,-0.79345703125,-2.0751953125
0.1662499,7.884106159210205,-3.265691041946411,5.039794445037842,-2.6092529296875,-0.5645751953125,-1.9073486328125
0.1687499,7.886500358581543,-3.246537446975708,5.066130638122559,-2.777099609375,-0.6866455078125,-2.1209716796875
0.1712499,7.886500358581543,-3.224989652633667,5.0900726318359375,-2.9296875,-0.5035400390625,-2.105712890625
0.1737499,7.888894557952881,-3.2082302570343018,5.106832027435303,-3.082275390625,-0.579833984375,-2.0751953125
0.17624990000000001,7.893682956695557,-3.1962592601776123,5.116408824920654,-3.0059814453125,-0.823974609375,-2.197265625
0.1787499,7.893682956695557,-3.1890766620635986,5.109226226806641,-2.9144287109375,-0.67138671875,-2.2125244140625
0.1812499,7.8960771560668945,-3.1938650608062744,5.102043628692627,-3.0670166015625,-0.5645751953125,-2.3040771484375
0.1837499,7.898471355438232,-3.205836057662964,5.0876784324646,-3.0517578125,-0.6256103515625,-2.1820068359375
0.1862499,7.898471355438232,-3.220201253890991,5.073313236236572,-2.86865234375,-0.6866455078125,-1.953125
0.1887499,7.898471355438232,-3.2393548488616943,5.061342239379883,-2.9449462890625,-0.7476806640625,-2.01416015625
0.1912499,7.8960771560668945,-3.2561142444610596,5.051765441894531,-2.9144287109375,-0.9002685546875,-2.105712890625
0.1937499,7.886500358581543,-3.268085241317749,5.0469770431518555,-2.7923583984375,-0.8697509765625,-1.89208984375
0.1962499,7.881711959838867,-3.2752678394317627,5.0469770431518555,-2.899169921875,-0.9307861328125,-1.861572265625
0.1987499,7.876923561096191,-3.2776620388031006,5.0469770431518555,-2.6397705078125,-1.190185546875,-1.8463134765625
0.2012499,7.881711959838867,-3.272873640060425,5.058948040008545,-2.410888671875,-1.007080078125,-1.983642578125
0.2037499,7.886500358581543,-3.2609026432037354,5.0685248374938965,-2.3193359375,-1.068115234375,-1.9073486328125
0.2062499,7.898471355438232,-3.246537446975708,5.080495834350586,-2.0751953125,-1.007080078125,-1.9989013671875
0.20874990000000002,7.90086555480957,-3.2321722507476807,5.085284233093262,-1.8768310546875,-1.1749267578125,-1.953125
0.2112499,7.908048152923584,-3.220201253890991,5.080495834350586,-1.5411376953125,-1.190185546875,-2.2125244140625
0.2137499,7.908048152923584,-3.2178070545196533,5.070919036865234,-1.4190673828125,-1.2664794921875,-1.9683837890625
0.2162499,7.908048152923584,-3.220201253890991,5.058948040008545,-1.2054443359375,-1.46484375,-2.1820068359375
0.2187499,7.91283655166626,-3.224989652633667,5.04218864440918,-0.9918212890625,-1.556396484375,-2.0904541015625
0.2212499,7.9176249504089355,-3.2345664501190186,5.018246650695801,-0.9918212890625,-1.495361328125,-2.166748046875
0.2237499,7.922413349151611,-3.2393548488616943,4.994304656982422,-0.9918212890625,-1.708984375,-2.2430419921875
0.2262499,7.924807548522949,-3.248931646347046,4.972756862640381,-0.8087158203125,-1.64794921875,-1.953125
0.2287499,7.922413349151611,-3.2537200450897217,4.955997467041016,-0.67138671875,-1.7852783203125,-1.7547607421875
0.2312499,7.910442352294922,-3.2585084438323975,4.946420669555664,-0.823974609375,-1.495361328125,-1.7852783203125
0.2337499,7.8960771560668945,-3.2561142444610596,4.95120906829834,-1.1749267578125,-1.5716552734375,-1.8310546875
0.2362499,7.879317760467529,-3.24414324760437,4.953603267669678,-1.068115234375,-1.9073486328125,-1.556396484375
0.23874990000000001,7.86734676361084,-3.224989652633667,4.965574264526367,-1.1749267578125,-1.7547607421875,-1.739501953125
0.2412499,7.864952564239502,-3.1938650608062744,4.98472785949707,-1.220703125,-1.922607421875,-1.5106201171875
0.2437499,7.869740962982178,-3.1651346683502197,5.0014872550964355,-1.678466796875,-1.983642578125,-1.7852783203125
0.2462499,7.879317760467529,-3.136404275894165,5.018246650695801,-1.739501953125,-1.983642578125,-1.9073486328125
0.2487499,7.886500358581543,-3.117250680923462,5.027823448181152,-1.739501953125,-1.922607421875,-1.922607421875
0.2512499,7.90086555480957,-3.1076738834381104,5.027823448181152,-2.1514892578125,-1.922607421875,-2.105712890625
0.25374990000000003,7.903259754180908,-3.1028854846954346,5.035006046295166,-2.13623046875,-2.01416015625,-1.9989013671875
0.25624990000000003,7.908048152923584,-3.1052796840667725,5.035006046295166,-2.38037109375,-1.9073486328125,-2.0751953125
0.25874990000000003,7.908048152923584,-3.114856481552124,5.04218864440918,-2.7008056640625,-1.9073486328125,-2.166748046875
0.26124990000000003,7.905653953552246,-3.1268274784088135,5.039794445037842,-2.99072265625,-2.0294189453125,-2.227783203125
0.26374990000000004,7.903259754180908,-3.1459810733795166,5.03021764755249,-3.0059814453125,-2.0294189453125,-2.349853515625
0.26624990000000004,7.905653953552246,-3.1651346683502197,5.018246650695801,-2.9296875,-1.922607421875,-2.349853515625
0.26874990000000004,7.908048152923584,-3.184288263320923,4.999093055725098,-3.1280517578125,-1.983642578125,-2.105712890625
0.27124990000000004,7.91283655166626,-3.201047658920288,4.989516258239746,-3.3721923828125,-2.0904541015625,-2.227783203125
0.27374990000000005,7.908048152923584,-3.2082302570343018,4.9799394607543945,-3.4027099609375,-1.89208984375,-2.166748046875
0.27624990000000005,7.903259754180908,-3.2130186557769775,4.982333660125732,-3.3721923828125,-1.9989013671875,-2.0904541015625
0.27874990000000005,7.891288757324219,-3.2106244564056396,4.9799394607543945,-3.35693359375,-2.166748046875,-2.1514892578125
0.28124990000000005,7.881711959838867,-3.205836057662964,4.98472785949707,-3.23486328125,-2.0751953125,-2.227783203125
0.28374990000000005,7.876923561096191,-3.1962592601776123,4.987122058868408,-3.2501220703125,-2.01416015625,-2.1820068359375
0.28624990000000006,7.8745293617248535,-3.1914708614349365,4.989516258239746,-3.509521484375,-2.13623046875,-2.0904541015625
0.28874990000000006,7.872135162353516,-3.184288263320923,4.989516258239746,-3.2806396484375,-2.1514892578125,-2.044677734375
0.2912499,7.872135162353516,-3.1866824626922607,4.98472785949707,-3.021240234375,-2.25830078125,-2.0904541015625
0.2937499,7.869740962982178,-3.1938650608062744,4.972756862640381,-2.960205078125,-2.288818359375,-1.922607421875
0.2962499,7.8745293617248535,-3.19865345954895,4.960785865783691,-2.899169921875,-2.197265625,-1.9989013671875
0.2987499,7.872135162353516,-3.205836057662964,4.948814868927002,-2.9144287109375,-1.9378662109375,-1.9378662109375
0.3012499,7.869740962982178,-3.2106244564056396,4.941632270812988,-3.143310546875,-1.9073486328125,-1.8157958984375
0.3037499,7.862558364868164,-3.2154128551483154,4.946420669555664,-3.3111572265625,-1.9378662109375,-1.7852783203125
0.3062499,7.857769966125488,-3.224989652633667,4.95120906829834,-3.3721923828125,-1.9073486328125,-1.800537109375
0.3087499,7.8529815673828125,-3.2321722507476807,4.963180065155029,-3.204345703125,-1.8768310546875,-1.7242431640625
0.3112499,7.850587368011475,-3.2369606494903564,4.967968463897705,-3.204345703125,-1.8768310546875,-1.77001953125
0.3137499,7.850587368011475,-3.2369606494903564,4.965574264526367,-2.9754638671875,-1.708984375,-1.495361328125
0.31624990000000003,7.848193168640137,-3.2345664501190186,4.967968463897705,-3.0517578125,-1.7547607421875,-1.312255859375
0.31874990000000003,7.8529815673828125,-3.224989652633667,4.9583916664123535,-3.204345703125,-1.739501953125,-1.3580322265625
0.32124990000000003,7.85537576675415,-3.222595453262329,4.955997467041016,-3.204345703125,-1.434326171875,-1.3580322265625
0.32374990000000003,7.860164165496826,-3.2178070545196533,4.944026470184326,-3.082275390625,-1.4801025390625,-1.373291015625
0.32624990000000004,7.860164165496826,-3.222595453262329,4.9368438720703125,-3.1585693359375,-1.800537109375,-1.251220703125
0.32874990000000004,7.864952564239502,-3.227383852005005,4.924872875213623,-3.3111572265625,-1.46484375,-1.190185546875
0.33124990000000004,7.857769966125488,-3.2393548488616943,4.929661273956299,-3.082275390625,-1.52587890625,-1.0528564453125
0.33374990000000004,7.857769966125488,-3.246537446975708,4.924872875213623,-3.0975341796875,-1.52587890625,-0.9765625
0.33624990000000005,7.8529815673828125,-3.248931646347046,4.941632270812988,-3.1280517578125,-1.434326171875,-0.8087158203125
0.33874990000000005,7.850587368011475,-3.2537200450897217,4.95120906829834,-3.0517578125,-1.46484375,-0.7781982421875
0.34124990000000005,7.848193168640137,-3.251325845718384,4.963180065155029,-2.8076171875,-1.3580322265625,-0.6256103515625
0.34374990000000005,7.85537576675415,-3.2561142444610596,4.970362663269043,-2.8076171875,-1.3275146484375,-0.8392333984375
0.34624990000000005,7.860164165496826,-3.2537200450897217,4.960785865783691,-2.5634765625,-1.46484375,-0.6103515625
0.34874990000000006,7.860164165496826,-3.2561142444610596,4.953603267669678,-2.532958984375,-1.2969970703125,-0.5950927734375
0.35124990000000006,7.864952564239502,-3.2561142444610596,4.941632270812988,-2.7923583984375,-1.1749267578125,-0.8697509765625
0.3537499,7.857769966125488,-3.2609026432037354,4.9368438720703125,-2.4566650390625,-1.3275146484375,-0.5035400390625
0.3562499,7.857769966125488,-3.2632968425750732,4.9368438720703125,-2.44140625,-1.312255859375,-0.5340576171875
0.3587499,7.85537576675415,-3.268085241317749,4.93923807144165,-2.4871826171875,-1.0528564453125,-0.6256103515625
0.3612499,7.860164165496826,-3.265691041946411,4.93923807144165,-2.50244140625,-0.946044921875,-0.1373291015625
0.3637499,7.864952564239502,-3.2632968425750732,4.9368438720703125,-2.2735595703125,-0.946044921875,-0.3204345703125
0.3662499,7.869740962982178,-3.2585084438323975,4.924872875213623,-2.3040771484375,-0.9918212890625,-0.3509521484375
0.3687499,7.86734676361084,-3.2561142444610596,4.922478675842285,-2.1820068359375,-0.823974609375,-0.274658203125
0.3712499,7.86734676361084,-3.2537200450897217,4.917690277099609,-2.3193359375,-0.7781982421875,-0.6256103515625
0.3737499,7.857769966125488,-3.2585084438323975,4.920084476470947,-2.25830078125,-0.823974609375,-0.5035400390625
0.3762499,7.8529815673828125,-3.270479440689087,4.922478675842285,-2.1514892578125,-0.8392333984375,-0.213623046875
0.37874990000000003,7.8529815673828125,-3.270479440689087,4.922478675842285,-2.1514892578125,-0.8392333984375,-0.213623046875
0.38124990000000003,7.845798969268799,-3.2752678394317627,4.912901878356934,-2.3193359375,-0.640869140625,-0.4425048828125
0.38374990000000003,7.845798969268799,-3.2752678394317627,4.912901878356934,-2.3193359375,-0.640869140625,-0.4425048828125
0.38624990000000003,7.836222171783447,-3.270479440689087,4.90571928024292,-2.5482177734375,-0.6561279296875,-0.274658203125
0.38874990000000004,7.836222171783447,-3.270479440689087,4.90571928024292,-2.5482177734375,-0.6561279296875,-0.274658203125
0.39124990000000004,7.829039573669434,-3.2609026432037354,4.917690277099609,-2.685546875,-0.54931640625,-0.396728515625
0.39374990000000004,7.829039573669434,-3.2609026432037354,4.917690277099609,-2.685546875,-0.54931640625,-0.396728515625
0.39624990000000004,7.838616371154785,-3.2537200450897217,4.93923807144165,-2.899169921875,-0.518798828125,-0.579833984375
0.39874990000000005,7.838616371154785,-3.2537200450897217,4.93923807144165,-2.899169921875,-0.518798828125,-0.579833984375
0.40124990000000005,7.8529815673828125,-3.251325845718384,4.9583916664123535,-2.960205078125,-0.48828125,-0.5645751953125
0.40374990000000005,7.8529815673828125,-3.251325845718384,4.9583916664123535,-2.960205078125,-0.48828125,-0.5645751953125
0.40624990000000005,7.857769966125488,-3.248931646347046,4.960785865783691,-3.021240234375,-0.396728515625,-0.9613037109375
0.40874990000000005,7.857769966125488,-3.248931646347046,4.960785865783691,-3.021240234375,-0.396728515625,-0.9613037109375
0.41124990000000006,7.860164165496826,-3.251325845718384,4.934449672698975,-3.1890869140625,-0.213623046875,-0.91552734375
0.41374990000000006,7.860164165496826,-3.251325845718384,4.934449672698975,-3.1890869140625,-0.213623046875,-0.91552734375
0.41624990000000006,7.864952564239502,-3.2632968425750732,4.90571928024292,-2.9754638671875,-0.4730224609375,-0.8087158203125
0.4187499,7.864952564239502,-3.2632968425750732,4.90571928024292,-2.9754638671875,-0.4730224609375,-0.8087158203125
0.4212499,7.869740962982178,-3.2800562381744385,4.908113479614258,-3.0975341796875,-0.244140625,-1.03759765625
0.4237499,7.869740962982178,-3.2800562381744385,4.908113479614258,-3.0975341796875,-0.244140625,-1.03759765625
0.4262499,7.872135162353516,-3.272873640060425,4.932055473327637,-2.7923583984375,-0.457763671875,-0.9765625
0.4287499,7.872135162353516,-3.272873640060425,4.932055473327637,-2.7923583984375,-0.457763671875,-0.9765625
0.4312499,7.881711959838867,-3.251325845718384,4.9583916664123535,-2.7618408203125,-0.152587890625,-1.0986328125
0.4337499,7.881711959838867,-3.251325845718384,4.9583916664123535,-2.7618408203125,-0.152587890625,-1.0986328125
0.4362499,7.90086555480957,-3.2345664501190186,4.963180065155029,-2.44140625,-0.1678466796875,-1.15966796875
0.4387499,7.90086555480957,-3.2345664501190186,4.963180065155029,-2.44140625,-0.1678466796875,-1.15966796875
0.44124990000000003,7.920019149780273,-3.220201253890991,4.963180065155029,-2.3040771484375,0.1220703125,-1.1444091796875
0.44374990000000003,7.920019149780273,-3.220201253890991,4.963180065155029,-2.3040771484375,0.1220703125,-1.1444091796875
0.44624990000000003,7.920019149780273,-3.2130186557769775,4.960785865783691,-2.13623046875,0.030517578125,-1.3580322265625
0.44874990000000003,7.920019149780273,-3.2130186557769775,4.960785865783691,-2.13623046875,0.030517578125,-1.3580322265625
0.45124990000000004,7.915230751037598,-3.2082302570343018,4.948814868927002,-2.0751953125,-0.0762939453125,-1.3427734375
0.45374990000000004,7.915230751037598,-3.2082302570343018,4.948814868927002,-2.0751953125,-0.0762939453125,-1.3427734375
0.45624990000000004,7.910442352294922,-3.2154128551483154,4.934449672698975,-1.9683837890625,-0.0762939453125,-1.28173828125
0.45874990000000004,7.910442352294922,-3.2154128551483154,4.934449672698975,-1.9683837890625,-0.0762939453125,-1.28173828125
0.46124990000000005,7.905653953552246,-3.224989652633667,4.932055473327637,-1.983642578125,-0.1678466796875,-1.2664794921875
0.46374990000000005,7.905653953552246,-3.224989652633667,4.932055473327637,-1.983642578125,-0.1678466796875,-1.2664794921875
0.46624990000000005,7.903259754180908,-3.2154128551483154,4.9368438720703125,-2.0904541015625,0.1220703125,-1.2359619140625
0.46874990000000005,7.903259754180908,-3.2154128551483154,4.9368438720703125,-2.0904541015625,0.1220703125,-1.2359619140625
0.47124990000000005,7.905653953552246,-3.1962592601776123,4.948814868927002,-1.9073486328125,-0.1068115234375,-1.0986328125
0.47374990000000006,7.905653953552246,-3.1962592601776123,4.948814868927002,-1.9073486328125,-0.1068115234375,-1.0986328125
0.47624990000000006,7.908048152923584,-3.181894063949585,4.960785865783691,-2.197265625,-0.0152587890625,-1.2664794921875
0.47874990000000006,7.908048152923584,-3.181894063949585,4.960785865783691,-2.197265625,-0.0152587890625,-1.2664794921875
0.4812499,7.905653953552246,-3.1723172664642334,4.963180065155029,-2.3040771484375,-0.1220703125,-1.0833740234375
0.4837499,7.905653953552246,-3.1723172664642334,4.963180065155029,-2.3040771484375,-0.1220703125,-1.0833740234375
0.4862499,7.908048152923584,-3.1699230670928955,4.963180065155029,-1.89208984375,0.152587890625,-1.03759765625
0.4887499,7.908048152923584,-3.1699230670928955,4.963180065155029,-1.89208984375,0.152587890625,-1.03759765625
0.4912499,7.9176249504089355,-3.184288263320923,4.963180065155029,-2.227783203125,-0.06103515625,-0.7476806640625
0.4937499,7.9176249504089355,-3.184288263320923,4.963180065155029,-2.227783203125,-0.06103515625,-0.7476806640625
0.4962499,7.915230751037598,-3.203441858291626,4.960785865783691,-2.1514892578125,-0.091552734375,-0.8544921875
0.4987499,7.915230751037598,-3.203441858291626,4.960785865783691,-2.1514892578125,-0.091552734375,-0.8544921875
0.5012499,7.898471355438232,-3.1962592601776123,4.967968463897705,-2.0904541015625,-0.06103515625,-0.7781982421875
0.5037499000000001,7.898471355438232,-3.1962592601776123,4.967968463897705,-2.0904541015625,-0.06103515625,-0.7781982421875
0.5062499,7.888894557952881,-3.1747114658355713,4.989516258239746,-1.8768310546875,-0.244140625,-0.9002685546875
0.5087499000000001,7.888894557952881,-3.1747114658355713,4.989516258239746,-1.8768310546875,-0.244140625,-0.9002685546875
0.5112499,7.886500358581543,-3.162740468978882,5.013458251953125,-1.8463134765625,-0.213623046875,-0.8697509765625
0.5137499,7.886500358581543,-3.162740468978882,5.013458251953125,-1.8463134765625,-0.213623046875,-0.8697509765625
0.5162499,7.884106159210205,-3.177105665206909,5.0254292488098145,-1.922607421875,-0.213623046875,-0.8544921875
0.5187499,7.884106159210205,-3.177105665206909,5.0254292488098145,-1.922607421875,-0.213623046875,-0.8544921875
0.5212499,7.876923561096191,-3.19865345954895,5.015852451324463,-1.6937255859375,-0.1373291015625,-0.732421875
0.5237499,7.876923561096191,-3.19865345954895,5.015852451324463,-1.6937255859375,-0.1373291015625,-0.732421875
0.5262499,7.860164165496826,-3.205836057662964,4.982333660125732,-1.7242431640625,-0.152587890625,-0.8087158203125
0.5287499,7.860164165496826,-3.205836057662964,4.982333660125732,-1.7242431640625,-0.152587890625,-0.8087158203125
0.5312499,7.85537576675415,-3.203441858291626,4.934449672698975,-1.2969970703125,-0.2899169921875,-0.6103515625
0.5337499,7.85537576675415,-3.203441858291626,4.934449672698975,-1.2969970703125,-0.2899169921875,-0.6103515625
0.5362499000000001,7.862558364868164,-3.1962592601776123,4.900930881500244,-1.1749267578125,-0.30517578125,-0.518798828125
0.5387499,7.862558364868164,-3.1962592601776123,4.900930881500244,-1.1749267578125,-0.30517578125,-0.518798828125
0.5412499000000001,7.869740962982178,-3.1890766620635986,4.908113479614258,-1.3275146484375,-0.213623046875,-0.6103515625
0.5437499,7.869740962982178,-3.1890766620635986,4.908113479614258,-1.3275146484375,-0.213623046875,-0.6103515625
0.5462499000000001,7.860164165496826,-3.179499864578247,4.948814868927002,-1.40380859375,-0.48828125,-0.54931640625
0.5487499,7.860164165496826,-3.179499864578247,4.948814868927002,-1.40380859375,-0.48828125,-0.54931640625
0.5512499000000001,7.848193168640137,-3.1675288677215576,4.991910457611084,-1.1138916015625,-0.54931640625,-0.823974609375
0.5537499,7.848193168640137,-3.1675288677215576,4.991910457611084,-1.1138916015625,-0.54931640625,-0.823974609375
0.5562499000000001,7.857769966125488,-3.1699230670928955,5.006275653839111,-1.0833740234375,-0.701904296875,-0.6866455078125
0.5587499,7.857769966125488,-3.1699230670928955,5.006275653839111,-1.0833740234375,-0.701904296875,-0.6866455078125
0.5612499000000001,7.891288757324219,-3.184288263320923,4.987122058868408,-0.91552734375,-0.3662109375,-1.03759765625
0.5637499,7.891288757324219,-3.184288263320923,4.987122058868408,-0.91552734375,-0.3662109375,-1.03759765625
0.5662499000000001,7.924807548522949,-3.201047658920288,4.963180065155029,-0.67138671875,-0.732421875,-0.762939453125
0.5687499,7.934384346008301,-3.2106244564056396,4.955997467041016,-0.7171630859375,-0.54931640625,-0.5340576171875
0.5712499000000001,7.934384346008301,-3.2154128551483154,4.941632270812988,-0.640869140625,-0.396728515625,-0.6103515625
0.5737499,7.934384346008301,-3.2130186557769775,4.9368438720703125,-0.8392333984375,-0.274658203125,-0.6561279296875
0.5762499000000001,7.927201747894287,-3.2106244564056396,4.929661273956299,-0.9765625,-0.3204345703125,-0.5340576171875
0.5787499,7.927201747894287,-3.201047658920288,4.927267074584961,-0.823974609375,-0.396728515625,-0.54931640625
0.5812499,7.920019149780273,-3.1914708614349365,4.920084476470947,-0.946044921875,-0.518798828125,-0.5340576171875
0.5837499,7.920019149780273,-3.1747114658355713,4.908113479614258,-0.79345703125,-0.2899169921875,-0.457763671875
0.5862499,7.915230751037598,-3.1651346683502197,4.8937482833862305,-1.007080078125,-0.335693359375,-0.579833984375
0.5887499,7.908048152923584,-3.155557870864868,4.874594688415527,-1.15966796875,-0.4119873046875,-0.5645751953125
0.5912499,7.90086555480957,-3.1483752727508545,4.862623691558838,-1.3427734375,-0.4730224609375,-0.42724609375
0.5937499,7.891288757324219,-3.1507694721221924,4.853046894073486,-1.617431640625,-0.4119873046875,-0.6103515625
0.5962499,7.881711959838867,-3.1459810733795166,4.862623691558838,-1.7852783203125,-0.3509521484375,-0.6866455078125
0.5987499000000001,7.876923561096191,-3.1459810733795166,4.879383087158203,-1.89208984375,-0.579833984375,-0.579833984375
0.6012499,7.872135162353516,-3.1435868740081787,4.900930881500244,-2.227783203125,-0.5645751953125,-0.6256103515625
0.6037499000000001,7.879317760467529,-3.1459810733795166,4.917690277099609,-2.4261474609375,-0.3814697265625,-0.640869140625
0.6062499,7.886500358581543,-3.1459810733795166,4.927267074584961,-2.471923828125,-0.2899169921875,-0.701904296875
0.6087499000000001,7.898471355438232,-3.1507694721221924,4.932055473327637,-2.6397705078125,-0.18310546875,-0.7781982421875
0.6112499,7.905653953552246,-3.155557870864868,4.934449672698975,-2.74658203125,-0.213623046875,-0.8697509765625
0.6137499000000001,7.915230751037598,-3.157952070236206,4.9368438720703125,-3.1585693359375,-0.030517578125,-0.6256103515625
0.6162499,7.924807548522949,-3.1699230670928955,4.93923807144165,-3.082275390625,0.091552734375,-0.5340576171875
0.6187499000000001,7.924807548522949,-3.181894063949585,4.934449672698975,-3.23486328125,-0.0457763671875,-0.7476806640625
0.6212499,7.927201747894287,-3.19865345954895,4.927267074584961,-3.3111572265625,-0.0762939453125,-0.579833984375
0.6237499000000001,7.922413349151611,-3.2154128551483154,4.912901878356934,-3.448486328125,0.30517578125,-0.5340576171875
0.6262499,7.915230751037598,-3.2321722507476807,4.903325080871582,-3.4637451171875,0.4119873046875,-0.67138671875
0.6287499000000001,7.915230751037598,-3.24414324760437,4.888959884643555,-3.631591796875,0.091552734375,-0.640869140625
0.6312499,7.910442352294922,-3.251325845718384,4.884171485900879,-3.5247802734375,0.2899169921875,-0.79345703125
0.6337499000000001,7.91283655166626,-3.2537200450897217,4.876988887786865,-3.4332275390625,0.3662109375,-0.5645751953125
0.6362499,7.910442352294922,-3.2537200450897217,4.876988887786865,-3.5400390625,0.2593994140625,-0.2899169921875
0.6387499000000001,7.91283655166626,-3.246537446975708,4.879383087158203,-3.448486328125,0.2288818359375,-0.213623046875
0.6412499,7.910442352294922,-3.2417490482330322,4.886565685272217,-3.47900390625,0.2899169921875,-0.091552734375
0.6437499,7.910442352294922,-3.2393548488616943,4.891354084014893,-3.4332275390625,0.244140625,-0.0762939453125
0.6462499,7.91283655166626,-3.2369606494903564,4.900930881500244,-3.0517578125,0.396728515625,-0.3204345703125
0.6487499,7.91283655166626,-3.2393548488616943,4.910507678985596,-3.173828125,0.4730224609375,-0.2288818359375
0.6512499,7.91283655166626,-3.2369606494903564,4.917690277099609,-3.0517578125,0.4730224609375,-0.0762939453125
0.6537499,7.9176249504089355,-3.2417490482330322,4.922478675842285,-2.899169921875,0.5340576171875,-0.2288818359375
0.6562499,7.922413349151611,-3.246537446975708,4.920084476470947,-2.86865234375,0.5645751953125,-0.1220703125
0.6587499,7.929595947265625,-3.2632968425750732,4.910507678985596,-2.777099609375,0.640869140625,-0.0457763671875
0.6612499000000001,7.936778545379639,-3.2752678394317627,4.90571928024292,-2.7313232421875,0.6866455078125,0.030517578125
0.6637499,7.939172744750977,-3.2848446369171143,4.903325080871582,-2.532958984375,0.6256103515625,-0.0152587890625
0.6662499000000001,7.939172744750977,-3.287238836288452,4.90571928024292,-2.8228759765625,0.5645751953125,0.213623046875
0.6687499,7.931990146636963,-3.2824504375457764,4.908113479614258,-2.86865234375,0.732421875,0.3814697265625
0.6712499000000001,7.927201747894287,-3.2800562381744385,4.910507678985596,-2.5177001953125,0.8697509765625,0.5340576171875
0.6737499,7.924807548522949,-3.272873640060425,4.90571928024292,-2.3651123046875,0.640869140625,0.274658203125
0.6762499000000001,7.924807548522949,-3.268085241317749,4.896142482757568,-2.5177001953125,0.640869140625,0.42724609375
0.6787499,7.927201747894287,-3.2609026432037354,4.884171485900879,-2.38037109375,0.701904296875,0.457763671875
0.6812499000000001,7.927201747894287,-3.2561142444610596,4.867412090301514,-2.166748046875,0.5950927734375,0.5645751953125
0.6837499,7.927201747894287,-3.2561142444610596,4.8482584953308105,-2.1209716796875,0.4730224609375,0.3814697265625
0.6862499000000001,7.927201747894287,-3.2609026432037354,4.824316501617432,-2.2735595703125,0.518798828125,0.4119873046875
0.6887499,7.927201747894287,-3.270479440689087,4.802768707275391,-2.3193359375,0.5035400390625,0.5645751953125
0.6912499000000001,7.924807548522949,-3.2776620388031006,4.786009311676025,-2.1820068359375,0.3814697265625,0.701904296875
0.6937499,7.920019149780273,-3.2848446369171143,4.778826713562012,-2.166748046875,0.335693359375,0.9613037109375
0.6962499000000001,7.915230751037598,-3.28963303565979,4.778826713562012,-1.983642578125,0.42724609375,0.946044921875
0.6987499,7.910442352294922,-3.292027235031128,4.778826713562012,-2.1514892578125,0.06103515625,0.91552734375
0.7012499000000001,7.908048152923584,-3.2824504375457764,4.790797710418701,-2.044677734375,0.30517578125,0.8392333984375
0.7037499,7.91283655166626,-3.270479440689087,4.807557106018066,-2.01416015625,0.335693359375,1.15966796875
0.7062499,7.91283655166626,-3.2561142444610596,4.833893299102783,-2.25830078125,0.1983642578125,1.1749267578125
0.7087499,7.9176249504089355,-3.2417490482330322,4.867412090301514,-2.197265625,0.2288818359375,1.251220703125
0.7112499,7.9176249504089355,-3.2297780513763428,4.896142482757568,-2.3345947265625,-0.0152587890625,1.2054443359375
0.7137499,7.920019149780273,-3.220201253890991,4.920084476470947,-2.593994140625,0.396728515625,1.03759765625
0.7162499,7.929595947265625,-3.2106244564056396,4.9368438720703125,-2.471923828125,0.2593994140625,1.1749267578125
0.7187499,7.936778545379639,-3.2082302570343018,4.9368438720703125,-2.5787353515625,0.3204345703125,1.0986328125
0.7212499,7.94635534286499,-3.2154128551483154,4.929661273956299,-2.532958984375,0.48828125,0.9765625
0.7237499000000001,7.955932140350342,-3.2178070545196533,4.912901878356934,-2.716064453125,0.3814697265625,1.1444091796875
0.7262499,7.95832633972168,-3.2345664501190186,4.896142482757568,-2.62451171875,0.30517578125,1.2054443359375
0.7287499000000001,7.95832633972168,-3.2417490482330322,4.876988887786865,-2.655029296875,0.3814697265625,1.190185546875
0.7312499,7.95832633972168,-3.248931646347046,4.865017890930176,-2.685546875,0.518798828125,1.40380859375
0.7337499000000001,7.955932140350342,-3.2537200450897217,4.857835292816162,-2.7618408203125,0.457763671875,1.3275146484375
0.7362499,7.953537940979004,-3.2609026432037354,4.8602294921875,-2.685546875,0.5645751953125,1.3427734375
0.7387499000000001,7.948749542236328,-3.270479440689087,4.865017890930176,-2.5482177734375,0.5645751953125,1.373291015625
0.7412499,7.9415669441223145,-3.2800562381744385,4.874594688415527,-2.38037109375,0.2899169921875,1.46484375
0.7437499000000001,7.934384346008301,-3.287238836288452,4.886565685272217,-2.3040771484375,0.5035400390625,1.4190673828125
0.7462499,7.931990146636963,-3.28963303565979,4.900930881500244,-2.0294189453125,0.2288818359375,1.40380859375
0.7487499000000001,7.927201747894287,-3.2848446369171143,4.912901878356934,-1.9378662109375,0.3204345703125,1.4495849609375
0.7512499,7.927201747894287,-3.272873640060425,4.922478675842285,-1.9683837890625,0.3662109375,1.5716552734375
0.7537499000000001,7.929595947265625,-3.2632968425750732,4.924872875213623,-1.77001953125,0.213623046875,1.434326171875
0.7562499,7.929595947265625,-3.251325845718384,4.924872875213623,-1.556396484375,0.2593994140625,1.5716552734375
0.7587499000000001,7.931990146636963,-3.2417490482330322,4.917690277099609,-1.52587890625,0.3662109375,1.373291015625
0.7612499,7.934384346008301,-3.2393548488616943,4.917690277099609,-1.28173828125,0.3204345703125,1.190185546875
0.7637499000000001,7.931990146636963,-3.2393548488616943,4.912901878356934,-1.220703125,0.335693359375,1.15966796875
0.7662499,7.931990146636963,-3.2417490482330322,4.910507678985596,-1.28173828125,0.3814697265625,1.2664794921875
0.7687499000000001,7.929595947265625,-3.251325845718384,4.912901878356934,-1.0986328125,0.1068115234375,1.1444091796875
0.7712499,7.927201747894287,-3.2585084438323975,4.9152960777282715,-0.9918212890625,0.2288818359375,1.373291015625
0.7737499,7.924807548522949,-3.272873640060425,4.917690277099609,-0.8087158203125,0.2593994140625,1.46484375
0.7762499,7.924807548522949,-3.2800562381744385,4.917690277099609,-0.7781982421875,0.1983642578125,1.2054443359375
0.7787499,7.922413349151611,-3.2848446369171143,4.910507678985596,-0.8697509765625,0.1373291015625,1.220703125
0.7812499,7.920019149780273,-3.287238836288452,4.900930881500244,-0.8392333984375,0.06103515625,1.373291015625
0.7837499,7.9176249504089355,-3.2824504375457764,4.888959884643555,-0.5645751953125,0.030517578125,1.46484375
0.7862499000000001,7.9176249504089355,-3.270479440689087,4.881777286529541,-0.5950927734375,0.1373291015625,1.434326171875
0.7887499,7.9176249504089355,-3.268085241317749,4.874594688415527,-0.6103515625,0.06103515625,1.434326171875
0.7912499000000001,7.915230751037598,-3.2561142444610596,4.8722004890441895,-0.762939453125,0.1983642578125,1.3427734375
0.7937499,7.91283655166626,-3.246537446975708,4.876988887786865,-0.7781982421875,-0.1678466796875,1.2359619140625
0.7962499000000001,7.908048152923584,-3.2345664501190186,4.884171485900879,-0.8087158203125,-0.0152587890625,1.28173828125
0.7987499,7.903259754180908,-3.2178070545196533,4.896142482757568,-0.67138671875,-0.0762939453125,1.312255859375
0.8012499000000001,7.905653953552246,-3.203441858291626,4.903325080871582,-0.7476806640625,0.152587890625,1.2054443359375
0.8037499,7.905653953552246,-3.201047658920288,4.903325080871582,-0.9002685546875,-0.06103515625,1.312255859375
0.8062499000000001,7.910442352294922,-3.1962592601776123,4.896142482757568,-1.0528564453125,-0.1068115234375,1.220703125
0.8087499,7.9176249504089355,-3.203441858291626,4.884171485900879,-1.0986328125,-0.0762939453125,1.2359619140625
0.8112499000000001,7.922413349151611,-3.2130186557769775,4.874594688415527,-1.2054443359375,-0.1373291015625,1.2359619140625
0.8137499,7.934384346008301,-3.2178070545196533,4.865017890930176,-1.4190673828125,-0.274658203125,1.15966796875
0.8162499000000001,7.939172744750977,-3.227383852005005,4.855441093444824,-1.3427734375,-0.1983642578125,1.28173828125
0.8187499,7.939172744750977,-3.2321722507476807,4.855441093444824,-1.3885498046875,-0.244140625,1.2664794921875
0.8212499000000001,7.936778545379639,-3.2393548488616943,4.853046894073486,-1.617431640625,-0.42724609375,1.5869140625
0.8237499,7.927201747894287,-3.24414324760437,4.855441093444824,-1.46484375,-0.457763671875,1.6937255859375
0.8262499000000001,7.922413349151611,-3.248931646347046,4.855441093444824,-1.52587890625,-0.3509521484375,1.4801025390625
0.8287499,7.9176249504089355,-3.248931646347046,4.855441093444824,-1.434326171875,-0.4730224609375,1.8157958984375
0.8312499000000001,7.915230751037598,-3.246537446975708,4.857835292816162,-1.5869140625,-0.30517578125,1.739501953125
0.8337499,7.91283655166626,-3.246537446975708,4.8602294921875,-1.6632080078125,-0.5645751953125,1.8157958984375
0.8362499,7.910442352294922,-3.2369606494903564,4.857835292816162,-1.7242431640625,-0.6256103515625,1.953125
0.8387499,7.910442352294922,-3.2345664501190186,4.857835292816162,-1.7547607421875,-0.6561279296875,1.922607421875
0.8412499,7.910442352294922,-3.227383852005005,4.857835292816162,-1.8157958984375,-0.518798828125,2.044677734375
0.8437499,7.908048152923584,-3.227383852005005,4.8602294921875,-2.0294189453125,-0.5645751953125,1.7852783203125
0.8462499,7.910442352294922,-3.222595453262329,4.8722004890441895,-2.13623046875,-0.7476806640625,1.739501953125
0.8487499000000001,7.908048152923584,-3.220201253890991,4.881777286529541,-2.13623046875,-0.6561279296875,1.617431640625
0.8512499,7.91283655166626,-3.220201253890991,4.888959884643555,-2.3345947265625,-0.5950927734375,1.5411376953125
0.8537499000000001,7.910442352294922,-3.222595453262329,4.888959884643555,-2.288818359375,-0.762939453125,1.3885498046875
0.8562499,7.9176249504089355,-3.2345664501190186,4.886565685272217,-2.0904541015625,-0.701904296875,1.4495849609375
0.8587499000000001,7.9176249504089355,-3.2537200450897217,4.884171485900879,-2.0751953125,-0.6256103515625,1.556396484375
0.8612499,7.922413349151611,-3.2824504375457764,4.884171485900879,-1.9989013671875,-0.8087158203125,1.4801025390625
0.8637499000000001,7.920019149780273,-3.31118106842041,4.888959884643555,-1.983642578125,-0.67138671875,1.3885498046875
0.8662499,7.920019149780273,-3.332728862762451,4.891354084014893,-1.8310546875,-0.6561279296875,1.556396484375
0.8687499000000001,7.915230751037598,-3.3446998596191406,4.896142482757568,-1.556396484375,-0.6561279296875,1.4801025390625
0.8712499,7.910442352294922,-3.3423056602478027,4.898536682128906,-1.434326171875,-0.701904296875,1.2359619140625
0.8737499000000001,7.903259754180908,-3.335123062133789,4.898536682128906,-1.220703125,-0.732421875,1.373291015625
0.8762499,7.90086555480957,-3.3255462646484375,4.903325080871582,-1.007080078125,-0.7476806640625,1.617431640625
0.8787499000000001,7.891288757324219,-3.3207578659057617,4.90571928024292,-0.8087158203125,-0.701904296875,1.373291015625
0.8812499,7.886500358581543,-3.318363666534424,4.90571928024292,-0.579833984375,-0.8544921875,1.3275146484375
0.8837499000000001,7.881711959838867,-3.315969467163086,4.908113479614258,-0.579833984375,-1.007080078125,1.4495849609375
0.8862499,7.8745293617248535,-3.315969467163086,4.908113479614258,-0.579833984375,-1.03759765625,1.556396484375
0.8887499000000001,7.8745293617248535,-3.313575267791748,4.912901878356934,-0.5645751953125,-0.7171630859375,1.2054443359375
0.8912499,7.872135162353516,-3.31118106842041,4.922478675842285,-0.396728515625,-0.8087158203125,1.373291015625
0.8937499000000001,7.879317760467529,-3.308786630630493,4.929661273956299,-0.396728515625,-0.5950927734375,1.5106201171875
0.8962499,7.879317760467529,-3.3063924312591553,4.932055473327637,-0.3814697265625,-0.6256103515625,1.312255859375
0.8987499,7.888894557952881,-3.3016040325164795,4.929661273956299,-0.06103515625,-0.8087158203125,1.28173828125
0.9012499,7.886500358581543,-3.3039982318878174,4.929661273956299,-0.06103515625,-0.6866455078125,1.28173828125
0.9037499,7.881711959838867,-3.308786630630493,4.927267074584961,-0.0457763671875,-0.7171630859375,1.5106201171875
0.9062499,7.876923561096191,-3.315969467163086,4.927267074584961,0.3204345703125,-0.7781982421875,1.5106201171875
0.9087499,7.86734676361084,-3.3279404640197754,4.922478675842285,0.457763671875,-0.91552734375,1.5411376953125
0.9112499000000001,7.864952564239502,-3.337517261505127,4.9152960777282715,0.4730224609375,-0.823974609375,1.556396484375
0.9137499,7.864952564239502,-3.3446998596191406,4.90571928024292,0.6561279296875,-0.6256103515625,1.64794921875
0.9162499000000001,7.864952564239502,-3.3494882583618164,4.896142482757568,0.8697509765625,-0.701904296875,1.64794921875
0.9187499,7.860164165496826,-3.3470940589904785,4.888959884643555,0.7476806640625,-0.7171630859375,1.739501953125
0.9212499000000001,7.85537576675415,-3.3423056602478027,4.891354084014893,0.9613037109375,-0.518798828125,1.8768310546875
0.9237499,7.845798969268799,-3.337517261505127,4.898536682128906,0.823974609375,-0.732421875,1.8157958984375
0.9262499000000001,7.836222171783447,-3.335123062133789,4.910507678985596,0.8544921875,-0.6561279296875,1.6632080078125
0.9287499,7.824251174926758,-3.332728862762451,4.912901878356934,1.0528564453125,-0.5340576171875,1.8157958984375
0.9312499000000001,7.824251174926758,-3.3303346633911133,4.912901878356934,1.190185546875,-0.5645751953125,1.9683837890625
0.9337499,7.826645374298096,-3.332728862762451,4.908113479614258,1.52587890625,-0.7781982421875,1.8310546875
0.9362499000000001,7.8314337730407715,-3.332728862762451,4.903325080871582,1.4801025390625,-0.6561279296875,1.708984375
0.9387499,7.836222171783447,-3.339911460876465,4.903325080871582,1.3427734375,-0.5645751953125,1.64794921875
0.9412499000000001,7.838616371154785,-3.3470940589904785,4.90571928024292,1.6326904296875,-0.42724609375,1.922607421875
0.9437499,7.836222171783447,-3.354276657104492,4.898536682128906,1.5411376953125,-0.5035400390625,1.922607421875
0.9462499000000001,7.843404769897461,-3.3662476539611816,4.8937482833862305,1.251220703125,-0.5645751953125,1.9683837890625
0.9487499,7.843404769897461,-3.3686418533325195,4.881777286529541,1.068115234375,-0.4425048828125,1.617431640625
0.9512499000000001,7.848193168640137,-3.3710360527038574,4.876988887786865,0.9765625,-0.4730224609375,1.678466796875
0.9537499,7.841010570526123,-3.3662476539611816,4.874594688415527,0.9307861328125,-0.2593994140625,1.9989013671875
0.9562499000000001,7.836222171783447,-3.359065055847168,4.869806289672852,0.79345703125,-0.4730224609375,1.7242431640625
0.9587499,7.8314337730407715,-3.3494882583618164,4.865017890930176,0.732421875,-0.579833984375,1.556396484375
0.9612499,7.8314337730407715,-3.3446998596191406,4.857835292816162,0.6256103515625,-0.2593994140625,1.46484375
0.9637499,7.836222171783447,-3.3494882583618164,4.853046894073486,0.4425048828125,-0.335693359375,1.4190673828125
0.9662499,7.845798969268799,-3.361459255218506,4.857835292816162,0.457763671875,-0.2899169921875,1.52587890625
0.9687499,7.850587368011475,-3.3854012489318848,4.857835292816162,0.4119873046875,-0.335693359375,1.373291015625
0.9712499,7.860164165496826,-3.404554843902588,4.865017890930176,0.244140625,-0.335693359375,1.0986328125
0.9737499000000001,7.857769966125488,-3.423708438873291,4.867412090301514,0.244140625,-0.274658203125,1.28173828125
0.9762499,7.862558364868164,-3.4380736351013184,4.865017890930176,0.18310546875,-0.1220703125,1.2359619140625
0.9787499000000001,7.862558364868164,-3.44765043258667,4.862623691558838,0.335693359375,-0.1373291015625,1.0223388671875
0.9812499,7.860164165496826,-3.4572272300720215,4.8602294921875,0.3204345703125,-0.244140625,0.885009765625
0.9837499000000001,7.864952564239502,-3.4596214294433594,4.862623691558838,0.3662109375,-0.091552734375,0.8697509765625
0.9862499,7.862558364868164,-3.4572272300720215,4.865017890930176,0.42724609375,-0.1068115234375,0.885009765625
0.9887499000000001,7.860164165496826,-3.450044631958008,4.869806289672852,0.5340576171875,-0.091552734375,1.03759765625
0.9912499,7.857769966125488,-3.445256233215332,4.8722004890441895,0.6256103515625,-0.06103515625,0.9002685546875
0.9937499000000001,7.857769966125488,-3.442862033843994,4.874594688415527,0.42724609375,0.1373291015625,0.7781982421875
0.9962499,7.860164165496826,-3.442862033843994,4.8722004890441895,0.396728515625,0.1220703125,0.701904296875
0.9987499000000001,7.862558364868164,-3.44765043258667,4.874594688415527,0.274658203125,0.18310546875,0.6561279296875
1.0012499,7.864952564239502,-3.4524388313293457,4.8722004890441895,0.42724609375,0.1068115234375,0.6866455078125
1.0037498999999999,7.86734676361084,-3.4524388313293457,4.8722004890441895,0.396728515625,0.1220703125,0.5645751953125
1.0062499,7.86734676361084,-3.4572272300720215,4.8722004890441895,0.06103515625,0.3204345703125,0.3662109375
1.0087499,7.86734676361084,-3.4548330307006836,4.874594688415527,-0.0762939453125,0.335693359375,0.4730224609375
1.0112499,7.86734676361084,-3.4596214294433594,4.867412090301514,-0.1068115234375,0.335693359375,0.518798828125
1.0137498999999999,7.85537576675415,-3.4572272300720215,4.857835292816162,-0.18310546875,0.5340576171875,0.3509521484375
1.0162499,7.848193168640137,-3.4572272300720215,4.843470096588135,-0.2593994140625,0.67138671875,0.30517578125
1.0187499,7.838616371154785,-3.450044631958008,4.824316501617432,-0.274658203125,0.5035400390625,0.244140625
1.0212499,7.829039573669434,-3.445256233215332,4.812345504760742,-0.2593994140625,0.518798828125,0.0762939453125
1.0237498999999999,7.826645374298096,-3.442862033843994,4.8051629066467285,-0.5035400390625,0.4119873046875,0.0457763671875
1.0262498999999998,7.824251174926758,-3.44765043258667,4.807557106018066,-1.068115234375,0.6256103515625,-0.1983642578125
1.0287499,7.82185697555542,-3.450044631958008,4.817133903503418,-1.2054443359375,0.67138671875,-0.457763671875
1.0312499,7.82185697555542,-3.4572272300720215,4.831499099731445,-1.15966796875,0.732421875,-0.3814697265625
1.0337498999999999,7.82185697555542,-3.4620156288146973,4.845864295959473,-1.2664794921875,0.5340576171875,-0.5340576171875
1.0362498999999998,7.82185697555542,-3.469198226928711,4.865017890930176,-1.6021728515625,0.6561279296875,-0.7781982421875
1.0387499,7.826645374298096,-3.4739866256713867,4.869806289672852,-1.7547607421875,0.9765625,-0.8544921875
1.0412499,7.829039573669434,-3.4763808250427246,4.879383087158203,-1.7852783203125,1.1138916015625,-1.15966796875
1.0437499,7.836222171783447,-3.4739866256713867,4.876988887786865,-2.0294189453125,1.1749267578125,-1.0986328125
1.0462498999999998,7.836222171783447,-3.4739866256713867,4.884171485900879,-2.105712890625,1.190185546875,-1.007080078125
1.0487499,7.836222171783447,-3.471592426300049,4.8937482833862305,-2.0599365234375,1.4495849609375,-0.9765625
1.0512499,7.8314337730407715,-3.4763808250427246,4.903325080871582,-2.2125244140625,1.5716552734375,-1.0986328125
1.0537499,7.829039573669434,-3.4811692237854004,4.910507678985596,-2.38037109375,1.556396484375,-1.312255859375
1.0562498999999999,7.82185697555542,-3.4955344200134277,4.912901878356934,-2.2125244140625,1.5869140625,-1.4190673828125
1.0587499,7.817068576812744,-3.507505416870117,4.90571928024292,-2.01416015625,1.739501953125,-1.5716552734375
1.0612499,7.817068576812744,-3.5242648124694824,4.891354084014893,-1.983642578125,1.861572265625,-1.708984375
1.0637499,7.812280178070068,-3.5410242080688477,4.881777286529541,-1.89208984375,1.8310546875,-1.8768310546875
1.0662498999999999,7.8098859786987305,-3.557783842086792,4.867412090301514,-1.7242431640625,1.7547607421875,-2.044677734375
1.0687499,7.807491779327393,-3.5745432376861572,4.865017890930176,-1.3885498046875,1.9378662109375,-2.01416015625
1.0712499,7.805097579956055,-3.5865142345428467,4.862623691558838,-1.251220703125,1.8157958984375,-2.01416015625
1.0737499,7.802703380584717,-3.5865142345428467,4.8722004890441895,-1.2969970703125,1.922607421875,-2.044677734375
1.0762498999999999,7.802703380584717,-3.576937437057495,4.881777286529541,-1.1749267578125,2.197265625,-1.9073486328125
1.0787499,7.802703380584717,-3.56017804145813,4.891354084014893,-0.946044921875,2.1209716796875,-1.983642578125
1.0812499,7.805097579956055,-3.5434184074401855,4.891354084014893,-1.0833740234375,2.13623046875,-2.0751953125
1.0837499,7.8098859786987305,-3.5266590118408203,4.886565685272217,-1.1138916015625,2.410888671875,-2.288818359375
1.0862498999999999,7.812280178070068,-3.512293815612793,4.886565685272217,-1.434326171875,2.3956298828125,-2.44140625
1.0887499,7.817068576812744,-3.4955344200134277,4.884171485900879,-1.617431640625,2.777099609375,-2.410888671875
1.0912499,7.817068576812744,-3.4811692237854004,4.8937482833862305,-1.678466796875,2.532958984375,-2.4871826171875
1.0937499,7.814674377441406,-3.4739866256713867,4.8937482833862305,-1.678466796875,2.5787353515625,-2.6092529296875
1.0962498999999999,7.812280178070068,-3.466804027557373,4.8937482833862305,-2.2125244140625,2.899169921875,-2.74658203125
1.0987498999999998,7.812280178070068,-3.464409828186035,4.884171485900879,-2.38037109375,2.960205078125,-2.8228759765625
1.1012499,7.817068576812744,-3.4596214294433594,4.8722004890441895,-2.532958984375,2.8076171875,-2.8839111328125
1.1037499,7.826645374298096,-3.4548330307006836,4.855441093444824,-2.7313232421875,2.8076171875,-3.0517578125
1.1062499,7.833827972412109,-3.450044631958008,4.841075897216797,-2.8076171875,2.7923583984375,-3.0517578125
1.1087498999999998,7.838616371154785,-3.44765043258667,4.829104900360107,-3.0364990234375,2.7618408203125,-3.1585693359375
1.1112499,7.836222171783447,-3.445256233215332,4.829104900360107,-3.2196044921875,2.899169921875,-3.4332275390625
1.1137499,7.824251174926758,-3.4380736351013184,4.831499099731445,-3.60107421875,2.9144287109375,-3.4942626953125
1.1162499,7.817068576812744,-3.4308910369873047,4.841075897216797,-3.814697265625,3.0364990234375,-3.72314453125
1.1187498999999999,7.805097579956055,-3.421314239501953,4.857835292816162,-3.90625,3.021240234375,-3.7384033203125
1.1212499,7.800309181213379,-3.4141316413879395,4.879383087158203,-4.2724609375,2.9296875,-3.7841796875
1.1237499,7.797914981842041,-3.4165258407592773,4.903325080871582,-4.3182373046875,3.11279296875,-3.90625
1.1262499,7.802703380584717,-3.421314239501953,4.922478675842285,-4.5013427734375,3.1585693359375,-3.8909912109375
1.1287498999999999,7.8098859786987305,-3.4308910369873047,4.932055473327637,-4.57763671875,2.74658203125,-3.96728515625
1.1312499,7.819462776184082,-3.4356794357299805,4.929661273956299,-4.608154296875,3.0975341796875,-4.1046142578125
1.1337499,7.8314337730407715,-3.4380736351013184,4.924872875213623,-4.730224609375,3.3111572265625,-4.0740966796875
1.1362499,7.838616371154785,-3.4380736351013184,4.908113479614258,-4.69970703125,3.2196044921875,-4.2266845703125
1.1387498999999999,7.838616371154785,-3.4380736351013184,4.891354084014893,-4.730224609375,3.1890869140625,-4.1046142578125
1.1412499,7.841010570526123,-3.442862033843994,4.879383087158203,-4.69970703125,3.143310546875,-4.0130615234375
1.1437499,7.836222171783447,-3.445256233215332,4.865017890930176,-4.6844482421875,3.143310546875,-4.21142578125
1.1462499,7.8314337730407715,-3.450044631958008,4.865017890930176,-4.5013427734375,3.2806396484375,-4.08935546875
1.1487498999999999,7.829039573669434,-3.44765043258667,4.8722004890441895,-4.608154296875,3.1585693359375,-3.997802734375
1.1512499,7.829039573669434,-3.4332852363586426,4.884171485900879,-4.69970703125,3.0975341796875,-4.1351318359375
1.1537499,7.8314337730407715,-3.423708438873291,4.896142482757568,-4.5166015625,3.11279296875,-4.150390625
1.1562499,7.838616371154785,-3.404554843902588,4.910507678985596,-4.425048828125,2.99072265625,-4.0283203125
1.1587498999999999,7.845798969268799,-3.3925838470458984,4.917690277099609,-4.3182373046875,3.143310546875,-4.0283203125
1.1612498999999998,7.848193168640137,-3.375824451446533,4.922478675842285,-4.3792724609375,3.1585693359375,-3.96728515625
1.1637499,7.850587368011475,-3.359065055847168,4.929661273956299,-4.2572021484375,3.143310546875,-4.0283203125
1.1662499,7.8529815673828125,-3.3423056602478027,4.932055473327637,-4.302978515625,3.2501220703125,-4.119873046875
1.1687499,7.857769966125488,-3.332728862762451,4.932055473327637,-4.33349609375,3.2501220703125,-4.241943359375
1.1712498999999998,7.86734676361084,-3.3279404640197754,4.929661273956299,-4.5623779296875,3.173828125,-4.425048828125
1.1737499,7.8745293617248535,-3.3303346633911133,4.924872875213623,-4.5623779296875,3.387451171875,-4.180908203125
1.1762499,7.884106159210205,-3.332728862762451,4.922478675842285,-4.69970703125,3.4027099609375,-4.4097900390625
1.1787499,7.886500358581543,-3.3279404640197754,4.917690277099609,-4.4708251953125,3.2196044921875,-4.1961669921875
1.1812498999999999,7.888894557952881,-3.3279404640197754,4.912901878356934,-4.547119140625,3.3111572265625,-3.936767578125
1.1837499,7.886500358581543,-3.313575267791748,4.912901878356934,-4.82177734375,3.5247802734375,-3.96728515625
1.1862499,7.888894557952881,-3.313575267791748,4.9152960777282715,-4.8370361328125,3.4332275390625,-3.9215087890625
1.1887499,7.884106159210205,-3.308786630630493,4.927267074584961,-4.7607421875,3.5858154296875,-3.8604736328125
1.1912498999999999,7.881711959838867,-3.3063924312591553,4.934449672698975,-4.974365234375,3.3721923828125,-3.9825439453125
1.1937499,7.879317760467529,-3.3016040325164795,4.948814868927002,-4.8065185546875,3.326416015625,-4.0435791015625
1.1962499,7.879317760467529,-3.294421434402466,4.95120906829834,-4.7760009765625,3.5858154296875,-3.96728515625
1.1987499,7.884106159210205,-3.2848446369171143,4.9583916664123535,-4.547119140625,3.509521484375,-3.8909912109375
1.2012498999999999,7.888894557952881,-3.2800562381744385,4.955997467041016,-4.45556640625,3.3721923828125,-3.875732421875
1.2037499,7.8960771560668945,-3.272873640060425,4.955997467041016,-4.1656494140625,3.509521484375,-3.8909912109375
1.2062499,7.90086555480957,-3.268085241317749,4.955997467041016,-4.08935546875,3.265380859375,-3.9520263671875
1.2087499,7.903259754180908,-3.268085241317749,4.955997467041016,-4.1046142578125,3.082275390625,-3.6163330078125
1.2112498999999999,7.90086555480957,-3.272873640060425,4.953603267669678,-4.08935546875,3.2958984375,-3.692626953125
1.2137499,7.8960771560668945,-3.2824504375457764,4.9583916664123535,-3.9215087890625,3.448486328125,-3.7384033203125
1.2162499,7.8960771560668945,-3.28963303565979,4.963180065155029,-3.509521484375,3.2958984375,-3.47900390625
1.2187499,7.8960771560668945,-3.287238836288452,4.970362663269043,-3.35693359375,3.326416015625,-3.2806396484375
1.2212498999999999,7.90086555480957,-3.270479440689087,4.987122058868408,-3.2958984375,3.448486328125,-3.387451171875
1.2237498999999998,7.905653953552246,-3.248931646347046,4.991910457611084,-3.2501220703125,3.3416748046875,-3.2806396484375
1.2262499,7.908048152923584,-3.224989652633667,4.991910457611084,-2.99072265625,3.47900390625,-3.11279296875
1.2287499,7.915230751037598,-3.205836057662964,4.989516258239746,-2.8228759765625,3.2501220703125,-3.1890869140625
1.2312499,7.922413349151611,-3.1914708614349365,4.970362663269043,-2.716064453125,3.3416748046875,-3.4637451171875
1.2337498999999998,7.927201747894287,-3.1866824626922607,4.955997467041016,-2.4566650390625,3.1280517578125,-3.2501220703125
1.2362499,7.931990146636963,-3.1866824626922607,4.934449672698975,-2.349853515625,3.0670166015625,-3.4027099609375
1.2387499,7.936778545379639,-3.1938650608062744,4.927267074584961,-2.227783203125,2.9144287109375,-3.47900390625
1.2412499,7.936778545379639,-3.201047658920288,4.922478675842285,-2.166748046875,2.777099609375,-3.265380859375
1.2437498999999999,7.939172744750977,-3.2082302570343018,4.929661273956299,-2.105712890625,2.8228759765625,-3.326416015625
1.2462499,7.939172744750977,-3.2106244564056396,4.948814868927002,-1.983642578125,2.7313232421875,-3.173828125
1.2487499,7.939172744750977,-3.2082302570343018,4.963180065155029,-2.0751953125,2.62451171875,-3.11279296875
1.2512499,7.939172744750977,-3.1962592601776123,4.982333660125732,-2.13623046875,2.6702880859375,-3.173828125
1.2537498999999999,7.931990146636963,-3.181894063949585,4.991910457611084,-2.0751953125,2.471923828125,-3.021240234375
1.2562499,7.934384346008301,-3.1651346683502197,4.99669885635376,-1.9683837890625,2.3651123046875,-3.143310546875
1.2587499,7.931990146636963,-3.1531636714935303,4.99669885635376,-1.9073486328125,2.25830078125,-3.2806396484375
1.2612499,7.934384346008301,-3.1507694721221924,4.989516258239746,-1.8310546875,2.3040771484375,-3.47900390625
1.2637498999999999,7.936778545379639,-3.1531636714935303,4.982333660125732,-1.678466796875,2.197265625,-3.265380859375
1.2662499,7.934384346008301,-3.1651346683502197,4.970362663269043,-1.800537109375,2.0599365234375,-3.2501220703125
1.2687499,7.929595947265625,-3.181894063949585,4.963180065155029,-1.739501953125,1.7547607421875,-3.4942626953125
1.2712499,7.922413349151611,-3.19865345954895,4.955997467041016,-1.678466796875,1.8157958984375,-3.2501220703125
1.2737498999999999,7.91283655166626,-3.2130186557769775,4.95120906829834,-1.708984375,1.5716552734375,-3.23486328125
1.2762499,7.910442352294922,-3.222595453262329,4.944026470184326,-1.7547607421875,1.5869140625,-3.2196044921875
1.2787499,7.91283655166626,-3.224989652633667,4.948814868927002,-1.7852783203125,1.4190673828125,-3.021240234375
1.2812499,7.9176249504089355,-3.2178070545196533,4.953603267669678,-1.3885498046875,1.4190673828125,-3.0059814453125
1.2837498999999999,7.924807548522949,-3.2106244564056396,4.967968463897705,-1.40380859375,1.6326904296875,-3.1585693359375
1.2862498999999998,7.931990146636963,-3.1938650608062744,4.982333660125732,-1.5411376953125,1.3427734375,-2.86865234375
1.2887499,7.931990146636963,-3.181894063949585,4.994304656982422,-1.4801025390625,1.220703125,-2.838134765625
1.2912499,7.931990146636963,-3.1747114658355713,5.0014872550964355,-1.373291015625,1.40380859375,-2.86865234375
1.2937499,7.927201747894287,-3.1723172664642334,5.0014872550964355,-1.3275146484375,1.2664794921875,-2.7618408203125
1.2962498999999998,7.920019149780273,-3.179499864578247,4.999093055725098,-1.2664794921875,1.15966796875,-2.7618408203125
1.2987499,7.910442352294922,-3.184288263320923,4.989516258239746,-1.2969970703125,0.9613037109375,-2.8076171875
1.3012499,7.908048152923584,-3.1914708614349365,4.98472785949707,-1.068115234375,1.03759765625,-2.716064453125
1.3037499,7.903259754180908,-3.1914708614349365,4.972756862640381,-1.312255859375,0.91552734375,-2.4566650390625
1.3062498999999999,7.905653953552246,-3.1890766620635986,4.965574264526367,-1.0833740234375,0.8087158203125,-2.349853515625
1.3087499,7.910442352294922,-3.179499864578247,4.955997467041016,-1.068115234375,0.6866455078125,-2.685546875
1.3112499,7.915230751037598,-3.1723172664642334,4.953603267669678,-1.15966796875,0.91552734375,-2.716064453125
1.3137499,7.9176249504089355,-3.1675288677215576,4.95120906829834,-1.1138916015625,0.7781982421875,-2.4871826171875
1.3162498999999999,7.920019149780273,-3.1651346683502197,4.946420669555664,-1.068115234375,0.5950927734375,-2.3345947265625
1.3187499,7.922413349151611,-3.1675288677215576,4.93923807144165,-0.91552734375,0.48828125,-2.2735595703125
1.3212499,7.922413349151611,-3.1723172664642334,4.929661273956299,-0.8697509765625,0.5340576171875,-1.861572265625
1.3237499,7.922413349151611,-3.1723172664642334,4.929661273956299,-0.8697509765625,0.5340576171875,-1.861572265625
1.3262498999999999,7.927201747894287,-3.1866824626922607,4.946420669555664,-0.823974609375,0.579833984375,-1.9073486328125
1.3287499,7.927201747894287,-3.1866824626922607,4.946420669555664,-0.823974609375,0.579833984375,-1.9073486328125
1.3312499,7.931990146636963,-3.1962592601776123,4.963180065155029,-0.6256103515625,0.5645751953125,-1.5869140625
1.3337499,7.931990146636963,-3.1962592601776123,4.963180065155029,-0.6256103515625,0.5645751953125,-1.5869140625
1.3362498999999999,7.936778545379639,-3.201047658920288,4.963180065155029,-0.732421875,0.3509521484375,-1.4495849609375
1.3387499,7.936778545379639,-3.201047658920288,4.963180065155029,-0.732421875,0.3509521484375,-1.4495849609375
1.3412499,7.953537940979004,-3.203441858291626,4.965574264526367,-0.48828125,0.640869140625,-1.495361328125
1.3437499,7.953537940979004,-3.203441858291626,4.965574264526367,-0.48828125,0.640869140625,-1.495361328125
1.3462498999999999,7.960720539093018,-3.2082302570343018,4.975151062011719,-0.1220703125,0.5950927734375,-1.2969970703125
1.3487498999999998,7.960720539093018,-3.2082302570343018,4.975151062011719,-0.1220703125,0.5950927734375,-1.2969970703125
1.3512499,7.955932140350342,-3.203441858291626,4.982333660125732,0.0457763671875,0.4730224609375,-1.2664794921875
1.3537499,7.955932140350342,-3.203441858291626,4.982333660125732,0.0457763671875,0.4730224609375,-1.2664794921875
1.3562499,7.955932140350342,-3.179499864578247,4.994304656982422,0.4119873046875,0.457763671875,-1.1749267578125
1.3587498999999998,7.955932140350342,-3.179499864578247,4.994304656982422,0.4119873046875,0.457763671875,-1.1749267578125
1.3612499,7.94635534286499,-3.155557870864868,5.008669853210449,0.91552734375,0.579833984375,-1.5716552734375
1.3637499,7.94635534286499,-3.155557870864868,5.008669853210449,0.91552734375,0.579833984375,-1.5716552734375
1.3662499,7.924807548522949,-3.157952070236206,5.018246650695801,1.0986328125,0.4425048828125,-1.495361328125
1.3687498999999999,7.924807548522949,-3.157952070236206,5.018246650695801,1.0986328125,0.4425048828125,-1.495361328125
1.3712499,7.91283655166626,-3.184288263320923,5.011064052581787,1.3580322265625,0.2899169921875,-1.556396484375
1.3737499,7.91283655166626,-3.184288263320923,5.011064052581787,1.3580322265625,0.2899169921875,-1.556396484375
1.3762499,7.908048152923584,-3.2082302570343018,4.989516258239746,1.373291015625,0.213623046875,-1.7242431640625
1.3787498999999999,7.908048152923584,-3.2082302570343018,4.989516258239746,1.373291015625,0.213623046875,-1.7242431640625
1.3812499,7.90086555480957,-3.2178070545196533,4.982333660125732,1.6326904296875,0.1068115234375,-1.5869140625
1.3837499,7.90086555480957,-3.2178070545196533,4.982333660125732,1.6326904296875,0.1068115234375,-1.5869140625
1.3862499,7.8960771560668945,-3.2130186557769775,4.99669885635376,2.1209716796875,-0.1678466796875,-1.8463134765625
1.3887498999999999,7.8960771560668945,-3.2130186557769775,4.99669885635376,2.1209716796875,-0.1678466796875,-1.8463134765625
1.3912499,7.898471355438232,-3.2106244564056396,4.98472785949707,2.2735595703125,-0.396728515625,-1.9683837890625
1.3937499,7.898471355438232,-3.2106244564056396,4.98472785949707,2.2735595703125,-0.396728515625,-1.9683837890625
1.3962499,7.893682956695557,-3.205836057662964,4.960785865783691,2.25830078125,-0.7781982421875,-2.197265625
1.3987498999999999,7.893682956695557,-3.205836057662964,4.960785865783691,2.25830078125,-0.7781982421875,-2.197265625
1.4012499,7.884106159210205,-3.205836057662964,4.970362663269043,2.5177001953125,-0.823974609375,-2.227783203125
1.4037499,7.884106159210205,-3.205836057662964,4.970362663269043,2.5177001953125,-0.823974609375,-2.227783203125
1.4062499,7.893682956695557,-3.220201253890991,4.991910457611084,2.777099609375,-0.9918212890625,-2.0599365234375
1.4087498999999999,7.893682956695557,-3.220201253890991,4.991910457611084,2.777099609375,-0.9918212890625,-2.0599365234375
1.4112498999999998,7.920019149780273,-3.2369606494903564,4.989516258239746,3.143310546875,-0.8697509765625,-2.4871826171875
1.4137499,7.920019149780273,-3.2369606494903564,4.989516258239746,3.143310546875,-0.8697509765625,-2.4871826171875
1.4162499,7.934384346008301,-3.2585084438323975,4.967968463897705,3.570556640625,-1.0833740234375,-2.288818359375
1.4187499,7.934384346008301,-3.2585084438323975,4.967968463897705,3.570556640625,-1.0833740234375,-2.288818359375
1.4212498999999998,7.936778545379639,-3.2800562381744385,4.953603267669678,3.84521484375,-1.2054443359375,-2.4261474609375
1.4237499,7.936778545379639,-3.2800562381744385,4.953603267669678,3.84521484375,-1.2054443359375,-2.4261474609375
1.4262499,7.934384346008301,-3.292027235031128,4.932055473327637,4.1656494140625,-1.5106201171875,-2.2735595703125
1.4287499,7.934384346008301,-3.292027235031128,4.932055473327637,4.1656494140625,-1.5106201171875,-2.2735595703125
1.4312498999999999,7.934384346008301,-3.2848446369171143,4.9152960777282715,4.5166015625,-1.708984375,-2.3956298828125
1.4337499,7.934384346008301,-3.2848446369171143,4.9152960777282715,4.5166015625,-1.708984375,-2.3956298828125
1.4362499,7.929595947265625,-3.2537200450897217,4.908113479614258,4.7149658203125,-1.9073486328125,-2.3040771484375
1.4387499,7.929595947265625,-3.2537200450897217,4.908113479614258,4.7149658203125,-1.9073486328125,-2.3040771484375
1.4412498999999999,7.929595947265625,-3.2130186557769775,4.90571928024292,4.730224609375,-1.8463134765625,-2.4261474609375
1.4437499,7.929595947265625,-3.2130186557769775,4.90571928024292,4.730224609375,-1.8463134765625,-2.4261474609375
1.4462499,7.9415669441223145,-3.184288263320923,4.908113479614258,4.4097900390625,-2.5177001953125,-2.5787353515625
1.4487499,7.9415669441223145,-3.184288263320923,4.908113479614258,4.4097900390625,-2.5177001953125,-2.5787353515625
1.4512498999999999,7.95832633972168,-3.160346269607544,4.90571928024292,4.4708251953125,-2.410888671875,-2.4261474609375
1.4537499,7.95832633972168,-3.160346269607544,4.90571928024292,4.4708251953125,-2.410888671875,-2.4261474609375
1.4562499,7.975085735321045,-3.1459810733795166,4.920084476470947,3.9825439453125,-2.4566650390625,-2.532958984375
1.4587499,7.975085735321045,-3.1459810733795166,4.920084476470947,3.9825439453125,-2.4566650390625,-2.532958984375
1.4612498999999999,7.9846625328063965,-3.1483752727508545,4.93923807144165,3.448486328125,-2.38037109375,-2.50244140625
1.4637499,7.9846625328063965,-3.1483752727508545,4.93923807144165,3.448486328125,-2.38037109375,-2.50244140625
1.4662499,7.9846625328063965,-3.155557870864868,4.948814868927002,3.5858154296875,-2.593994140625,-2.4261474609375
1.4687499,7.9846625328063965,-3.155557870864868,4.948814868927002,3.5858154296875,-2.593994140625,-2.4261474609375
1.4712498999999999,7.979874134063721,-3.160346269607544,4.946420669555664,3.1280517578125,-2.349853515625,-2.349853515625
1.4737498999999998,7.979874134063721,-3.160346269607544,4.946420669555664,3.1280517578125,-2.349853515625,-2.349853515625
1.4762499,7.9631147384643555,-3.1675288677215576,4.9368438720703125,3.1890869140625,-2.6092529296875,-2.25830078125
1.4787499,7.9631147384643555,-3.1675288677215576,4.9368438720703125,3.1890869140625,-2.6092529296875,-2.25830078125
1.4812499,7.94635534286499,-3.1747114658355713,4.924872875213623,3.387451171875,-2.410888671875,-2.0294189453125
1.4837498999999998,7.94635534286499,-3.1747114658355713,4.924872875213623,3.387451171875,-2.410888671875,-2.0294189453125
1.4862499,7.936778545379639,-3.1866824626922607,4.898536682128906,3.6163330078125,-2.9296875,-2.01416015625
1.4887499,7.936778545379639,-3.1866824626922607,4.898536682128906,3.6163330078125,-2.9296875,-2.01416015625
1.4912499,7.936778545379639,-3.2154128551483154,4.884171485900879,3.7689208984375,-2.838134765625,-1.5106201171875
1.4937498999999999,7.936778545379639,-3.2154128551483154,4.884171485900879,3.7689208984375,-2.838134765625,-1.5106201171875
1.4962499,7.936778545379639,-3.2345664501190186,4.908113479614258,4.119873046875,-3.11279296875,-1.4495849609375
1.4987499,7.936778545379639,-3.2345664501190186,4.908113479614258,4.119873046875,-3.11279296875,-1.4495849609375
1.5012499,7.936778545379639,-3.2393548488616943,4.9368438720703125,4.058837890625,-2.8533935546875,-0.9918212890625
1.5037498999999999,7.936778545379639,-3.2393548488616943,4.9368438720703125,4.058837890625,-2.8533935546875,-0.9918212890625
1.5062499,7.9415669441223145,-3.227383852005005,4.944026470184326,4.33349609375,-3.2196044921875,-0.8544921875
1.5087499,7.939172744750977,-3.2106244564056396,4.941632270812988,4.302978515625,-3.173828125,-0.6561279296875
1.5112499,7.939172744750977,-3.1938650608062744,4.93923807144165,4.119873046875,-3.0975341796875,-0.8392333984375
1.5137498999999999,7.929595947265625,-3.177105665206909,4.9368438720703125,4.21142578125,-3.173828125,-0.579833984375
1.5162499,7.924807548522949,-3.1675288677215576,4.934449672698975,4.302978515625,-3.1890869140625,-0.48828125
1.5187499,7.920019149780273,-3.162740468978882,4.927267074584961,4.180908203125,-3.3721923828125,-0.4730224609375
1.5212499,7.922413349151611,-3.157952070236206,4.912901878356934,4.150390625,-3.631591796875,-0.4730224609375
1.5237498999999999,7.927201747894287,-3.155557870864868,4.90571928024292,3.997802734375,-3.4942626953125,-0.4119873046875
1.5262499,7.934384346008301,-3.155557870864868,4.8937482833862305,3.7994384765625,-3.4027099609375,-0.0457763671875
1.5287499,7.94635534286499,-3.1531636714935303,4.8937482833862305,3.631591796875,-3.5552978515625,-0.030517578125
1.5312499,7.951143741607666,-3.1531636714935303,4.896142482757568,3.5247802734375,-3.47900390625,0.06103515625
1.5337498999999999,7.955932140350342,-3.1435868740081787,4.898536682128906,3.3111572265625,-3.5858154296875,0.1068115234375
1.5362499,7.953537940979004,-3.136404275894165,4.90571928024292,3.3721923828125,-3.631591796875,0.2899169921875
1.5387499,7.94635534286499,-3.1268274784088135,4.9152960777282715,3.387451171875,-3.7994384765625,0.2288818359375
1.5412499,7.931990146636963,-3.1196448802948,4.929661273956299,3.1890869140625,-3.7078857421875,0.2899169921875
1.5437499,7.9176249504089355,-3.114856481552124,4.946420669555664,3.1890869140625,-3.8299560546875,0.4119873046875
1.5462498999999998,7.905653953552246,-3.117250680923462,4.95120906829834,3.3111572265625,-3.875732421875,0.4119873046875
1.5487499,7.903259754180908,-3.1244332790374756,4.960785865783691,3.5858154296875,-3.72314453125,0.54931640625
1.5512499,7.903259754180908,-3.136404275894165,4.955997467041016,3.509521484375,-3.8909912109375,0.8544921875
1.5537499,7.915230751037598,-3.1531636714935303,4.948814868927002,3.35693359375,-4.0740966796875,0.701904296875
1.5562498999999999,7.924807548522949,-3.1699230670928955,4.944026470184326,3.7078857421875,-4.1656494140625,0.7781982421875
1.5587499,7.934384346008301,-3.184288263320923,4.93923807144165,3.936767578125,-4.1961669921875,1.1749267578125
1.5612499,7.9415669441223145,-3.1938650608062744,4.944026470184326,3.9215087890625,-4.180908203125,1.3275146484375
1.5637499,7.951143741607666,-3.201047658920288,4.955997467041016,4.058837890625,-4.1046142578125,1.220703125
1.5662498999999999,7.95832633972168,-3.205836057662964,4.967968463897705,4.1656494140625,-4.21142578125,1.373291015625
1.5687499,7.967903137207031,-3.205836057662964,4.982333660125732,4.21142578125,-4.4403076171875,1.5869140625
1.5712499,7.975085735321045,-3.205836057662964,4.994304656982422,4.4708251953125,-4.4403076171875,1.6937255859375
1.5737499,7.989450931549072,-3.19865345954895,5.008669853210449,4.669189453125,-4.364013671875,1.4495849609375
1.5762498999999999,8.003816604614258,-3.1914708614349365,5.018246650695801,4.82177734375,-4.3182373046875,1.7547607421875
1.5787499,8.015787124633789,-3.179499864578247,5.032611846923828,5.0811767578125,-4.2877197265625,1.800537109375
1.5812499,8.027758598327637,-3.1675288677215576,5.037400245666504,5.5694580078125,-4.3182373046875,1.8768310546875
1.5837499,8.037335395812988,-3.160346269607544,5.039794445037842,5.889892578125,-4.2877197265625,1.9989013671875
1.5862498999999999,8.044517517089844,-3.155557870864868,5.035006046295166,6.1798095703125,-4.2266845703125,2.105712890625
1.5887499,8.04930591583252,-3.160346269607544,5.023035049438477,6.4849853515625,-4.2724609375,2.1514892578125
1.5912499,8.04691219329834,-3.1699230670928955,5.011064052581787,6.8206787109375,-4.150390625,2.197265625
1.5937499,8.034940719604492,-3.179499864578247,4.994304656982422,7.32421875,-4.33349609375,2.4566650390625
1.5962498999999999,8.020575523376465,-3.1890766620635986,4.982333660125732,7.4920654296875,-4.5166015625,2.3193359375
1.5987499,8.003816604614258,-3.1938650608062744,4.975151062011719,7.7362060546875,-4.6539306640625,2.532958984375
1.6012499,7.9846625328063965,-3.1962592601776123,4.970362663269043,8.3465576171875,-4.547119140625,2.74658203125
1.6037499,7.972691535949707,-3.1962592601776123,4.970362663269043,8.5296630859375,-4.5013427734375,3.0059814453125
1.6062499,7.960720539093018,-3.1962592601776123,4.970362663269043,8.7127685546875,-4.608154296875,2.9449462890625
1.6087498999999998,7.955932140350342,-3.1962592601776123,4.970362663269043,9.1400146484375,-4.69970703125,3.1280517578125
1.6112499,7.951143741607666,-3.1938650608062744,4.972756862640381,9.4451904296875,-4.7454833984375,3.173828125
1.6137499,7.94635534286499,-3.1914708614349365,4.9799394607543945,9.6893310546875,-4.82177734375,3.0975341796875
1.6162499,7.948749542236328,-3.181894063949585,4.9799394607543945,10.0250244140625,-4.9896240234375,3.173828125
1.6187498999999999,7.955932140350342,-3.1747114658355713,4.982333660125732,10.31494140625,-5.0201416015625,3.204345703125
1.6212499,7.972691535949707,-3.1675288677215576,4.977545261383057,10.2691650390625,-5.035400390625,3.2196044921875
1.6237499,7.99184513092041,-3.157952070236206,4.972756862640381,10.498046875,-5.035400390625,3.23486328125
1.6262499,8.015787124633789,-3.1531636714935303,4.965574264526367,10.6048583984375,-5.0048828125,3.1890869140625
1.6287498999999999,8.037335395812988,-3.1459810733795166,4.960785865783691,10.7879638671875,-5.096435546875,3.1585693359375
1.6312499,8.056488990783691,-3.138798475265503,4.953603267669678,10.7269287109375,-5.1422119140625,3.1890869140625
1.6337499,8.068459510803223,-3.1292216777801514,4.946420669555664,10.6658935546875,-5.2490234375,3.265380859375
1.6362499,8.075642585754395,-3.112462282180786,4.944026470184326,10.5743408203125,-5.2337646484375,3.1280517578125
1.6387498999999999,8.068459510803223,-3.1004912853240967,4.93923807144165,10.4217529296875,-5.3253173828125,2.9754638671875
1.6412499,8.061277389526367,-3.0861260890960693,4.944026470184326,10.5133056640625,-5.4168701171875,3.082275390625
1.6437499,8.051700592041016,-3.071760892868042,4.948814868927002,10.25390625,-5.340576171875,3.0059814453125
1.6462499,8.051700592041016,-3.0573954582214355,4.948814868927002,10.101318359375,-5.401611328125,2.8839111328125
1.6487498999999999,8.058882713317871,-3.047818660736084,4.953603267669678,10.1776123046875,-5.6304931640625,2.86865234375
1.6512499,8.075642585754395,-3.0406360626220703,4.963180065155029,10.009765625,-5.645751953125,2.7923583984375
1.6537499,8.094796180725098,-3.043030261993408,4.972756862640381,10.1165771484375,-5.5999755859375,2.8228759765625
1.6562499,8.106766700744629,-3.045424461364746,4.98472785949707,10.0555419921875,-5.9814453125,2.7008056640625
1.6587498999999999,8.118738174438477,-3.050212860107422,4.994304656982422,10.0250244140625,-6.103515625,2.685546875
1.6612499,8.121131896972656,-3.0526070594787598,4.99669885635376,9.979248046875,-6.072998046875,2.7618408203125
1.6637499,8.118738174438477,-3.0526070594787598,4.991910457611084,9.979248046875,-6.1187744140625,2.62451171875
1.6662499,8.118738174438477,-3.045424461364746,4.987122058868408,9.8419189453125,-6.011962890625,2.62451171875
1.6687499,8.118738174438477,-3.045424461364746,4.977545261383057,9.979248046875,-6.34765625,2.7008056640625
1.6712498999999998,8.11634349822998,-3.0406360626220703,4.972756862640381,9.9334716796875,-6.439208984375,2.8228759765625
1.6737499,8.111555099487305,-3.0406360626220703,4.970362663269043,9.613037109375,-6.5155029296875,2.5482177734375
1.6762499,8.099584579467773,-3.0382418632507324,4.965574264526367,9.5672607421875,-6.4849853515625,2.716064453125
1.6787499,8.085219383239746,-3.0382418632507324,4.965574264526367,9.490966796875,-6.6986083984375,2.8076171875
1.6812498999999999,8.070854187011719,-3.0358476638793945,4.955997467041016,9.368896484375,-6.89697265625,2.7313232421875
1.6837499,8.063671112060547,-3.0310592651367188,4.95120906829834,9.368896484375,-7.080078125,2.74658203125
1.6862499,8.061277389526367,-3.023876667022705,4.948814868927002,9.1705322265625,-7.110595703125,2.8533935546875
1.6887499,8.066065788269043,-3.0119056701660156,4.948814868927002,9.0179443359375,-7.2021484375,2.8076171875
1.6912498999999999,8.078036308288574,-3.00711727142334,4.953603267669678,9.0789794921875,-7.232666015625,2.8839111328125
1.6937499,8.092401504516602,-2.9951462745666504,4.95120906829834,8.72802734375,-7.38525390625,2.86865234375
1.6962499,8.10437297821045,-2.9951462745666504,4.95120906829834,8.636474609375,-7.6141357421875,2.777099609375
1.6987499,8.1139497756958,-2.9927520751953125,4.95120906829834,8.544921875,-7.75146484375,2.7923583984375
1.7012498999999999,8.111555099487305,-2.9951462745666504,4.95120906829834,8.4686279296875,-7.8125,2.9144287109375
1.7037499,8.106766700744629,-2.999934673309326,4.95120906829834,8.4381103515625,-7.75146484375,2.838134765625
1.7062499,8.094796180725098,-3.00711727142334,4.9583916664123535,8.575439453125,-7.8887939453125,2.99072265625
1.7087499,8.08282470703125,-3.0166940689086914,4.965574264526367,8.331298828125,-8.0718994140625,2.99072265625
1.7112498999999999,8.073247909545898,-3.028665065765381,4.9799394607543945,8.514404296875,-8.026123046875,3.0059814453125
1.7137499,8.068459510803223,-3.0406360626220703,4.989516258239746,8.758544921875,-8.2244873046875,3.0975341796875
1.7162499,8.063671112060547,-3.0526070594787598,5.006275653839111,8.72802734375,-8.23974609375,2.899169921875
1.7187499,8.054094314575195,-3.064578056335449,5.003881454467773,8.8348388671875,-8.3465576171875,3.11279296875
1.7212498999999999,8.034940719604492,-3.071760892868042,5.011064052581787,8.97216796875,-8.4686279296875,3.23486328125
1.7237499,8.010998725891113,-3.0837318897247314,4.99669885635376,9.1552734375,-8.4686279296875,3.326416015625
1.7262499,7.982268333435059,-3.098097085952759,4.98472785949707,9.4757080078125,-8.3465576171875,3.387451171875
1.7287499,7.955932140350342,-3.1076738834381104,4.963180065155029,9.765625,-8.758544921875,3.631591796875
1.7312499,7.934384346008301,-3.1220390796661377,4.948814868927002,9.735107421875,-8.9874267578125,3.72314453125
1.7337498999999998,7.915230751037598,-3.1316158771514893,4.932055473327637,10.19287109375,-8.97216796875,3.814697265625
1.7362499,7.90086555480957,-3.141192674636841,4.917690277099609,10.2996826171875,-8.9263916015625,3.6773681640625
1.7387499,7.893682956695557,-3.1531636714935303,4.90571928024292,10.345458984375,-9.1400146484375,3.9825439453125
1.7412499,7.881711959838867,-3.160346269607544,4.896142482757568,10.4522705078125,-9.2315673828125,4.3792724609375
1.7437498999999999,7.872135162353516,-3.1675288677215576,4.886565685272217,10.8489990234375,-9.21630859375,4.5166015625
1.7462499,7.857769966125488,-3.1747114658355713,4.879383087158203,10.9100341796875,-9.429931640625,4.6234130859375
1.7487499,7.843404769897461,-3.1723172664642334,4.876988887786865,10.7421875,-9.4757080078125,4.8980712890625
1.7512499,7.826645374298096,-3.1747114658355713,4.8722004890441895,10.894775390625,-9.2926025390625,4.974365234375
1.7537498999999999,7.812280178070068,-3.1699230670928955,4.867412090301514,10.8795166015625,-9.368896484375,5.218505859375
1.7562499,7.802703380584717,-3.1699230670928955,4.857835292816162,10.9100341796875,-9.490966796875,5.0506591796875
1.7587499,7.800309181213379,-3.1651346683502197,4.845864295959473,11.016845703125,-9.27734375,5.126953125
1.7612499,7.797914981842041,-3.157952070236206,4.838681697845459,10.6658935546875,-9.124755859375,5.3558349609375
1.7637498999999999,7.805097579956055,-3.155557870864868,4.833893299102783,10.55908203125,-9.1400146484375,5.401611328125
1.7662499,7.807491779327393,-3.1507694721221924,4.831499099731445,10.5438232421875,-9.2926025390625,5.279541015625
1.7687499,7.8098859786987305,-3.1507694721221924,4.8267107009887695,10.3607177734375,-9.0484619140625,5.462646484375
1.7712499,7.812280178070068,-3.1507694721221924,4.812345504760742,10.0555419921875,-8.85009765625,5.4779052734375
1.7737498999999999,7.8098859786987305,-3.1507694721221924,4.788403511047363,9.9029541015625,-8.8348388671875,5.3558349609375
1.7762499,7.812280178070068,-3.1507694721221924,4.759673118591309,9.7808837890625,-8.5906982421875,5.5694580078125
1.7787499,7.817068576812744,-3.1531636714935303,4.728548526763916,9.3231201171875,-8.48388671875,5.7373046875
1.7812499,7.824251174926758,-3.1507694721221924,4.702212333679199,9.124755859375,-8.4686279296875,5.5694580078125
1.7837498999999999,7.829039573669434,-3.1459810733795166,4.680664539337158,8.758544921875,-8.0718994140625,5.4779052734375
1.7862499,7.836222171783447,-3.141192674636841,4.67827033996582,8.544921875,-7.7667236328125,5.5999755859375
1.7887499,7.841010570526123,-3.1316158771514893,4.683058738708496,8.0718994140625,-7.8582763671875,5.615234375
1.7912499,7.848193168640137,-3.1196448802948,4.704606533050537,7.8582763671875,-7.7972412109375,5.5694580078125
1.7937499,7.850587368011475,-3.1100680828094482,4.73573112487793,7.75146484375,-7.4310302734375,5.615234375
1.7962498999999998,7.857769966125488,-3.1004912853240967,4.766855716705322,7.7972412109375,-7.3699951171875,5.584716796875
1.7987499,7.869740962982178,-3.1004912853240967,4.800374507904053,7.8125,-7.0648193359375,5.5084228515625
1.8012499,7.886500358581543,-3.1052796840667725,4.8267107009887695,7.7667236328125,-6.77490234375,5.645751953125
1.8037499,7.908048152923584,-3.112462282180786,4.845864295959473,7.965087890625,-6.591796875,5.584716796875
1.8062498999999999,7.934384346008301,-3.1244332790374756,4.857835292816162,7.8887939453125,-6.4697265625,5.4473876953125
1.8087499,7.960720539093018,-3.134010076522827,4.8602294921875,8.056640625,-6.2408447265625,5.5389404296875
1.8112499,7.977479934692383,-3.141192674636841,4.857835292816162,8.209228515625,-5.584716796875,5.523681640625
1.8137499,7.99184513092041,-3.1435868740081787,4.8482584953308105,8.5601806640625,-5.4168701171875,5.462646484375
1.8162498999999999,7.99184513092041,-3.141192674636841,4.841075897216797,8.7890625,-5.5389404296875,5.4168701171875
1.8187499,7.982268333435059,-3.1316158771514893,4.838681697845459,8.819580078125,-5.3863525390625,5.1116943359375
1.8212499,7.965508937835693,-3.1220390796661377,4.836287498474121,9.033203125,-5.218505859375,5.2337646484375
1.8237499,7.951143741607666,-3.112462282180786,4.8267107009887695,9.490966796875,-5.0506591796875,5.523681640625
1.8262498999999999,7.934384346008301,-3.1028854846954346,4.807557106018066,9.6893310546875,-4.7607421875,5.18798828125
1.8287499,7.927201747894287,-3.093308687210083,4.7836151123046875,9.82666015625,-4.82177734375,5.157470703125
1.8312499,7.922413349151611,-3.090914487838745,4.754884719848633,10.040283203125,-4.7607421875,5.340576171875
1.8337499,7.922413349151611,-3.0861260890960693,4.726154327392578,10.1470947265625,-4.5318603515625,5.340576171875
1.8362498999999999,7.924807548522949,-3.0837318897247314,4.707000732421875,10.07080078125,-4.669189453125,5.3253173828125
1.8387499,7.929595947265625,-3.0813376903533936,4.692635536193848,9.8419189453125,-4.7454833984375,5.2947998046875
1.8412499,7.931990146636963,-3.069366693496704,4.683058738708496,9.765625,-4.5318603515625,5.18798828125
1.8437499,7.936778545379639,-3.0597896575927734,4.67827033996582,9.8724365234375,-4.425048828125,5.2642822265625
1.8462498999999999,7.936778545379639,-3.0573954582214355,4.675876140594482,9.3994140625,-4.364013671875,5.0811767578125
1.8487499,7.931990146636963,-3.0573954582214355,4.668693542480469,9.3994140625,-4.241943359375,5.218505859375
1.8512499,7.924807548522949,-3.0573954582214355,4.671087741851807,9.3994140625,-4.2572021484375,5.2642822265625
1.8537499,7.915230751037598,-3.064578056335449,4.6734819412231445,9.1705322265625,-4.21142578125,5.218505859375
1.8562499,7.91283655166626,-3.0597896575927734,4.680664539337158,9.09423828125,-4.1961669921875,5.2032470703125
1.8587498999999998,7.910442352294922,-3.0621838569641113,4.683058738708496,8.85009765625,-3.9215087890625,5.096435546875
1.8612499,7.915230751037598,-3.064578056335449,4.685452938079834,9.002685546875,-3.9215087890625,4.8828125
1.8637499,7.920019149780273,-3.064578056335449,4.687847137451172,9.0789794921875,-3.662109375,5.096435546875
1.8662499,7.929595947265625,-3.0789434909820557,4.69024133682251,8.9263916015625,-3.7689208984375,5.2490234375
1.8687498999999999,7.936778545379639,-3.0885202884674072,4.6950297355651855,8.758544921875,-3.875732421875,5.06591796875
1.8712499,7.948749542236328,-3.1052796840667725,4.697423934936523,8.8653564453125,-3.90625,5.2947998046875
1.8737499,7.972691535949707,-3.1100680828094482,4.702212333679199,8.9111328125,-3.814697265625,5.279541015625
1.8762499,7.999027729034424,-3.1052796840667725,4.707000732421875,8.697509765625,-3.631591796875,5.279541015625
1.8787498999999999,8.042123794555664,-3.090914487838745,4.716577529907227,9.0484619140625,-3.6163330078125,5.0811767578125
1.8812499,8.08282470703125,-3.066972494125366,4.72376012802124,9.307861328125,-3.4942626953125,5.2032470703125
1.8837499,8.128314971923828,-3.0406360626220703,4.7405195236206055,9.3841552734375,-3.3721923828125,5.218505859375
1.8862499,8.17380428314209,-3.0166940689086914,4.7620673179626465,9.58251953125,-3.143310546875,5.1116943359375
1.8887498999999999,8.219294548034668,-2.9951462745666504,4.790797710418701,9.735107421875,-3.1280517578125,5.2337646484375
1.8912499,8.271966934204102,-2.9664158821105957,4.829104900360107,10.0555419921875,-3.1280517578125,5.31005859375
1.8937499,8.322244644165039,-2.9472622871398926,4.867412090301514,10.7269287109375,-3.265380859375,5.0811767578125
1.8962499,8.374917984008789,-2.9233202934265137,4.900930881500244,11.3983154296875,-2.960205078125,5.2642822265625
1.8987498999999999,8.42040729522705,-2.9089550971984863,4.929661273956299,12.0086669921875,-2.7618408203125,5.340576171875
1.9012499,8.453926086425781,-2.9017724990844727,4.955997467041016,12.7716064453125,-2.8839111328125,5.218505859375
1.9037499,8.485051155090332,-2.911349296569824,4.972756862640381,13.763427734375,-2.8533935546875,5.2490234375
1.9062499,8.494627952575684,-2.9257144927978516,4.987122058868408,14.8162841796875,-2.7618408203125,5.2642822265625
1.9087498999999999,8.501810073852539,-2.9520506858825684,4.999093055725098,15.777587890625,-2.5634765625,5.3253173828125
1.9112499,8.494627952575684,-2.9735984802246094,5.003881454467773,17.02880859375,-2.8228759765625,5.462646484375
1.9137499,8.480262756347656,-2.9903578758239746,5.006275653839111,18.3563232421875,-2.86865234375,5.55419921875
1.9162499,8.456320762634277,-3.002328872680664,5.0014872550964355,19.5465087890625,-2.8839111328125,5.584716796875
1.9187499,8.425195693969727,-3.0142998695373535,4.987122058868408,20.81298828125,-3.1585693359375,5.8135986328125
1.9212498999999998,8.391676902770996,-3.0334534645080566,4.970362663269043,22.4609375,-3.5858154296875,6.04248046875
1.9237499,8.358158111572266,-3.0526070594787598,4.95120906829834,23.9410400390625,-3.6468505859375,6.34765625
1.9262499,8.334216117858887,-3.0789434909820557,4.932055473327637,25.421142578125,-3.936767578125,6.53076171875
1.9287499,8.315062522888184,-3.1004912853240967,4.920084476470947,26.8096923828125,-4.0130615234375,6.866455078125
1.9312498999999999,8.300697326660156,-3.117250680923462,4.90571928024292,28.0914306640625,-4.2572021484375,7.2479248046875
1.9337499,8.288725852966309,-3.1268274784088135,4.90571928024292,29.4036865234375,-4.7760009765625,7.3394775390625
1.9362499,8.276755332946777,-3.134010076522827,4.903325080871582,31.1737060546875,-4.8828125,7.38525390625
1.9387499,8.26478385925293,-3.141192674636841,4.90571928024292,32.65380859375,-4.9896240234375,7.7056884765625
1.9412498999999999,8.250418663024902,-3.1483752727508545,4.908113479614258,33.782958984375,-5.462646484375,8.0718994140625
1.9437499,8.24084186553955,-3.1507694721221924,4.910507678985596,35.0799560546875,-5.950927734375,8.4075927734375
1.9462499,8.236053466796875,-3.1459810733795166,4.912901878356934,36.2548828125,-6.53076171875,8.48388671875
1.9487499,8.238448143005371,-3.141192674636841,4.908113479614258,37.1856689453125,-6.77490234375,8.97216796875
1.9512498999999999,8.238448143005371,-3.138798475265503,4.896142482757568,38.2232666015625,-6.591796875,9.033203125
1.9537499,8.22887134552002,-3.138798475265503,4.869806289672852,39.4134521484375,-6.683349609375,9.2926025390625
1.9562499,8.212111473083496,-3.1316158771514893,4.838681697845459,39.97802734375,-7.3699951171875,9.3231201171875
1.9587499,8.195352554321289,-3.117250680923462,4.807557106018066,40.4052734375,-7.4615478515625,9.8419189453125
1.9612498999999999,8.188169479370117,-3.0813376903533936,4.7836151123046875,40.6951904296875,-7.7972412109375,10.25390625
1.9637499,8.192957878112793,-3.0382418632507324,4.771644115447998,40.863037109375,-7.8125,10.498046875
1.9662499,8.20492935180664,-2.983175277709961,4.771644115447998,40.6494140625,-7.99560546875,10.5743408203125
1.9687499,8.212111473083496,-2.9257144927978516,4.771644115447998,40.3289794921875,-8.4075927734375,10.772705078125
1.9712498999999999,8.212111473083496,-2.87064790725708,4.76924991607666,39.9017333984375,-8.6822509765625,10.833740234375
1.9737499,8.195352554321289,-2.8203697204589844,4.754884719848633,39.36767578125,-8.97216796875,10.8795166015625
1.9762499,8.17141056060791,-2.7772738933563232,4.728548526763916,39.0167236328125,-9.46044921875,10.772705078125
1.9787499,8.147468566894531,-2.7437551021575928,4.699818134307861,37.994384765625,-9.613037109375,10.68115234375
1.9812499,8.128314971923828,-2.719813108444214,4.67827033996582,36.6668701171875,-9.9639892578125,10.8795166015625
1.9837499,8.11634349822998,-2.695871114730835,4.663905143737793,35.6597900390625,-10.223388671875,10.6353759765625
1.9862499,8.109161376953125,-2.6886885166168213,4.656722068786621,34.393310546875,-10.345458984375,10.6658935546875
1.9887499,8.092401504516602,-2.6862943172454834,4.656722068786621,32.8369140625,-10.43701171875,10.6964111328125
1.9912499,8.075642585754395,-2.691082715988159,4.654327869415283,31.5704345703125,-10.589599609375,10.7574462890625
1.9937498999999999,8.04691219329834,-2.7030537128448486,4.661510944366455,30.059814453125,-10.7879638671875,10.650634765625
1.9962499,8.022970199584961,-2.7126305103302,4.67827033996582,28.411865234375,-11.2152099609375,10.4827880859375
1.9987499,8.006210327148438,-2.715024709701538,4.707000732421875,26.885986328125,-11.3677978515625,10.5133056640625
2.0012499,8.003816604614258,-2.717418909072876,4.738125324249268,25.2685546875,-11.3372802734375,10.1470947265625
2.0037499,8.008605003356934,-2.717418909072876,4.766855716705322,23.9715576171875,-11.4593505859375,10.162353515625
2.0062499,8.008605003356934,-2.7269957065582275,4.786009311676025,22.5372314453125,-11.4898681640625,9.918212890625
2.0087498999999998,8.001421928405762,-2.741360902786255,4.8051629066467285,20.99609375,-11.6729736328125,9.70458984375
2.0112499,7.982268333435059,-2.762908697128296,4.824316501617432,19.6380615234375,-11.8408203125,9.5672607421875
2.0137499,7.95832633972168,-2.7916390895843506,4.838681697845459,18.1884765625,-11.932373046875,9.5367431640625
2.0162499,7.929595947265625,-2.8203697204589844,4.853046894073486,17.08984375,-11.8865966796875,9.368896484375
2.0187499,7.908048152923584,-2.849100112915039,4.8602294921875,15.960693359375,-11.962890625,9.246826171875
2.0212499,7.891288757324219,-2.873042106628418,4.869806289672852,14.8162841796875,-12.0697021484375,9.246826171875
2.0237499,7.876923561096191,-2.8993782997131348,4.8722004890441895,13.4735107421875,-12.0391845703125,9.002685546875
2.0262499,7.864952564239502,-2.913743495941162,4.884171485900879,12.26806640625,-11.9476318359375,8.60595703125
2.0287498999999998,7.857769966125488,-2.9305028915405273,4.891354084014893,11.23046875,-12.0086669921875,8.7127685546875
2.0312499,7.8529815673828125,-2.940079689025879,4.898536682128906,10.284423828125,-12.1917724609375,8.6669921875
2.0337499,7.848193168640137,-2.9496564865112305,4.912901878356934,9.246826171875,-12.1307373046875,8.5601806640625
2.0362499,7.838616371154785,-2.9712042808532715,4.927267074584961,8.1024169921875,-12.02392578125,8.4075927734375
2.0387499,7.826645374298096,-2.9951462745666504,4.95120906829834,7.26318359375,-11.993408203125,8.148193359375
2.0412499,7.807491779327393,-3.0334534645080566,4.9799394607543945,6.6680908203125,-12.0849609375,7.8125
2.0437499,7.797914981842041,-3.0765492916107178,5.018246650695801,6.4239501953125,-11.810302734375,7.9498291015625
2.0462499,7.783549785614014,-3.1268274784088135,5.049371242523193,6.2408447265625,-11.688232421875,7.9193115234375
2.0487499,7.778761386871338,-3.177105665206909,5.073313236236572,5.8135986328125,-11.7645263671875,7.781982421875
2.0512498999999997,7.7643961906433105,-3.2369606494903564,5.092466831207275,5.9814453125,-11.871337890625,7.598876953125
2.0537499,7.752425193786621,-3.287238836288452,5.104437828063965,6.04248046875,-11.688232421875,7.6446533203125
2.0562499,7.735665798187256,-3.339911460876465,5.114014625549316,6.195068359375,-11.566162109375,7.75146484375
2.0587499,7.716512203216553,-3.3854012489318848,5.12119722366333,6.6375732421875,-11.6424560546875,7.6751708984375
2.0612499,7.69735860824585,-3.423708438873291,5.1331682205200195,7.0343017578125,-11.3983154296875,7.598876953125
2.0637499,7.68538761138916,-3.4572272300720215,5.140350818634033,7.3699951171875,-11.2762451171875,7.843017578125
2.0662499,7.668628215789795,-3.488351821899414,5.149928092956543,7.9498291015625,-11.260986328125,7.843017578125
2.0687499,7.663839817047119,-3.5170822143554688,5.149928092956543,8.5906982421875,-11.1083984375,7.904052734375
2.0712498999999998,7.6566572189331055,-3.536235809326172,5.137956619262695,8.9874267578125,-11.1236572265625,7.8277587890625
2.0737499,7.65186882019043,-3.5434184074401855,5.125985622406006,9.552001953125,-10.9405517578125,7.8887939453125
2.0762499,7.647080421447754,-3.533841609954834,5.104437828063965,10.009765625,-10.8184814453125,7.8125
2.0787499,7.642292022705078,-3.5170822143554688,5.085284233093262,10.2996826171875,-10.5743408203125,7.87353515625
2.0812499,7.6351094245910645,-3.49314022064209,5.061342239379883,10.55908203125,-10.3759765625,7.9803466796875
2.0837499,7.630321025848389,-3.466804027557373,5.044582843780518,10.68115234375,-10.19287109375,8.0718994140625
2.0862499,7.620744228363037,-3.442862033843994,5.027823448181152,10.8642578125,-10.0860595703125,8.0718994140625
2.0887499,7.6111674308776855,-3.4117374420166016,5.011064052581787,10.6964111328125,-9.7808837890625,7.8887939453125
2.0912498999999998,7.601590633392334,-3.380612850189209,4.991910457611084,10.25390625,-9.5062255859375,7.568359375
2.0937499,7.599195957183838,-3.3446998596191406,4.963180065155029,9.857177734375,-9.3536376953125,7.537841796875
2.0962499,7.60637903213501,-3.308786630630493,4.922478675842285,9.46044921875,-9.185791015625,7.4310302734375
2.0987499,7.620744228363037,-3.270479440689087,4.881777286529541,8.9111328125,-8.9569091796875,7.293701171875
2.1012499,7.637503623962402,-3.2393548488616943,4.836287498474121,8.2244873046875,-8.4991455078125,6.866455078125
2.1037499,7.654263019561768,-3.201047658920288,4.795586109161377,7.476806640625,-8.453369140625,6.622314453125
2.1062499,7.666234016418457,-3.179499864578247,4.752490520477295,6.7138671875,-8.270263671875,6.5155029296875
2.1087499,7.671022415161133,-3.157952070236206,4.7189717292785645,5.9356689453125,-8.0108642578125,6.439208984375
2.1112499,7.675810813903809,-3.1435868740081787,4.692635536193848,4.974365234375,-7.6904296875,6.0272216796875
2.1137498999999997,7.675810813903809,-3.1459810733795166,4.675876140594482,3.90625,-7.3089599609375,5.7373046875
2.1162499,7.680599212646484,-3.1483752727508545,4.659116744995117,3.0059814453125,-7.171630859375,5.584716796875
2.1187499,7.6782050132751465,-3.157952070236206,4.644751071929932,2.1514892578125,-6.683349609375,5.3253173828125
2.1212499,7.6782050132751465,-3.1651346683502197,4.630385875701904,1.129150390625,-6.34765625,5.1422119140625
2.1237499,7.671022415161133,-3.1651346683502197,4.613626480102539,0.274658203125,-6.103515625,4.9285888671875
2.1262499,7.666234016418457,-3.160346269607544,4.599261283874512,-0.7781982421875,-5.706787109375,4.8065185546875
2.1287499,7.663839817047119,-3.155557870864868,4.5825018882751465,-1.7547607421875,-5.584716796875,4.6234130859375
2.1312499,7.666234016418457,-3.1507694721221924,4.563348293304443,-2.5634765625,-5.2490234375,4.33349609375
2.1337498999999998,7.675810813903809,-3.1507694721221924,4.54419469833374,-3.1280517578125,-4.791259765625,4.0740966796875
2.1362499,7.694964408874512,-3.160346269607544,4.527435302734375,-3.570556640625,-4.669189453125,3.72314453125
2.1387499,7.711723804473877,-3.1699230670928955,4.517858505249023,-4.241943359375,-4.425048828125,3.5247802734375
2.1412499,7.733271598815918,-3.179499864578247,4.51067590713501,-4.8980712890625,-4.180908203125,2.99072265625
2.1437499,7.757213592529297,-3.184288263320923,4.508281707763672,-5.2490234375,-3.875732421875,2.838134765625
2.1462499,7.785943984985352,-3.181894063949585,4.51067590713501,-5.7525634765625,-3.7689208984375,2.7618408203125
2.1487499,7.8098859786987305,-3.177105665206909,4.517858505249023,-6.1492919921875,-3.5552978515625,2.593994140625
2.1512499,7.843404769897461,-3.177105665206909,4.525041103363037,-6.4239501953125,-3.0059814453125,2.25830078125
2.1537498999999998,7.860164165496826,-3.1699230670928955,4.537012100219727,-6.866455078125,-2.7618408203125,2.166748046875
2.1562499,7.8745293617248535,-3.1699230670928955,4.54419469833374,-6.9732666015625,-2.38037109375,1.8310546875
2.1587499,7.879317760467529,-3.1651346683502197,4.548983097076416,-7.171630859375,-2.1514892578125,1.64794921875
2.1612499,7.881711959838867,-3.160346269607544,4.55616569519043,-7.2784423828125,-1.9683837890625,1.251220703125
2.1637499,7.881711959838867,-3.160346269607544,4.563348293304443,-7.4310302734375,-1.4801025390625,1.1749267578125
2.1662499,7.884106159210205,-3.162740468978882,4.572925090789795,-7.293701171875,-1.28173828125,1.28173828125
2.1687499,7.888894557952881,-3.1651346683502197,4.577713489532471,-7.080078125,-0.9765625,0.9765625
2.1712499,7.90086555480957,-3.1747114658355713,4.572925090789795,-7.0648193359375,-0.91552734375,0.244140625
2.1737499,7.9176249504089355,-3.181894063949585,4.565742492675781,-6.7291259765625,-0.6103515625,0.3204345703125
2.1762499,7.936778545379639,-3.1962592601776123,4.551377296447754,-6.3629150390625,-0.1983642578125,0.0762939453125
2.1787499,7.9631147384643555,-3.2082302570343018,4.546588897705078,-5.9051513671875,0.0457763671875,0.152587890625
2.1812499,7.987056732177734,-3.2154128551483154,4.54419469833374,-5.3863525390625,0.4730224609375,-0.3814697265625
2.1837499,8.015787124633789,-3.2178070545196533,4.558559894561768,-5.0048828125,0.7476806640625,-0.4119873046875
2.1862499,8.04691219329834,-3.2154128551483154,4.575319290161133,-4.3487548828125,0.8087158203125,-0.457763671875
2.1887499,8.075642585754395,-3.2154128551483154,4.60165548324585,-3.3721923828125,1.0223388671875,-0.5035400390625
2.1912499,8.10437297821045,-3.2130186557769775,4.630385875701904,-2.838134765625,1.220703125,-0.9307861328125
2.1937499,8.135497093200684,-3.2106244564056396,4.659116744995117,-1.9073486328125,1.495361328125,-1.007080078125
2.1962498999999998,8.164227485656738,-3.2106244564056396,4.687847137451172,-0.9613037109375,1.678466796875,-1.068115234375
2.1987499,8.202534675598145,-3.203441858291626,4.714183330535889,-0.152587890625,2.01416015625,-1.220703125
2.2012499,8.238448143005371,-3.1890766620635986,4.7405195236206055,1.068115234375,2.1820068359375,-1.220703125
2.2037499,8.279149055480957,-3.1699230670928955,4.76924991607666,1.89208984375,2.349853515625,-1.5106201171875
2.2062499,8.31985092163086,-3.141192674636841,4.788403511047363,2.838134765625,2.7618408203125,-1.708984375
2.2087499,8.365341186523438,-3.1052796840667725,4.800374507904053,3.509521484375,3.1585693359375,-1.8310546875
2.2112499,8.403648376464844,-3.064578056335449,4.800374507904053,4.1656494140625,3.1890869140625,-1.9683837890625
2.2137499,8.439560890197754,-3.021482467651367,4.788403511047363,4.82177734375,3.2958984375,-2.2125244140625
2.2162498999999998,8.470685958862305,-2.978386878967285,4.776432514190674,5.584716796875,3.6163330078125,-2.38037109375
2.2187499,8.487444877624512,-2.935291290283203,4.759673118591309,5.9661865234375,3.753662109375,-2.6092529296875
2.2212499,8.49941635131836,-2.894589900970459,4.754884719848633,6.134033203125,3.90625,-2.8228759765625
2.2237499,8.501810073852539,-2.8562827110290527,4.745307922363281,6.6375732421875,4.0740966796875,-2.9449462890625
2.2262499,8.492233276367188,-2.8227639198303223,4.747702121734619,6.7138671875,4.0435791015625,-3.35693359375
2.2287499,8.47547435760498,-2.7964274883270264,4.750096321105957,6.7291259765625,4.119873046875,-3.3721923828125
2.2312499,8.456320762634277,-2.7748796939849854,4.750096321105957,6.8511962890625,4.058837890625,-3.6163330078125
2.2337499,8.434772491455078,-2.760514497756958,4.742913722991943,6.927490234375,3.8909912109375,-3.662109375
2.2362499,8.415618896484375,-2.7509377002716064,4.728548526763916,6.6680908203125,3.5247802734375,-3.7689208984375
2.2387499,8.394071578979492,-2.7461493015289307,4.714183330535889,6.40869140625,3.8299560546875,-3.7994384765625
2.2412499,8.377311706542969,-2.7509377002716064,4.699818134307861,6.28662109375,3.5858154296875,-3.72314453125
2.2437499,8.358158111572266,-2.7509377002716064,4.69024133682251,5.79833984375,3.3111572265625,-3.814697265625
2.2462499,8.339004516601562,-2.760514497756958,4.683058738708496,5.6610107421875,2.99072265625,-3.631591796875
2.2487499,8.327033042907715,-2.7676970958709717,4.67827033996582,5.1116943359375,2.8228759765625,-3.60107421875
2.2512499,8.307879447937012,-2.7748796939849854,4.675876140594482,4.547119140625,2.593994140625,-3.7384033203125
2.2537499,8.291120529174805,-2.786850690841675,4.67827033996582,4.1656494140625,2.3040771484375,-3.4027099609375
2.2562499,8.255207061767578,-2.801215887069702,4.692635536193848,3.326416015625,1.89208984375,-2.9296875
2.2587498999999998,8.255207061767578,-2.801215887069702,4.692635536193848,3.326416015625,1.89208984375,-2.9296875
2.2612499,8.236053466796875,-2.82515811920166,4.716577529907227,2.471923828125,1.312255859375,-2.4871826171875
2.2637499,8.236053466796875,-2.82515811920166,4.716577529907227,2.471923828125,1.312255859375,-2.4871826171875
2.2662499,8.22887134552002,-2.8610711097717285,4.750096321105957,1.5869140625,0.8392333984375,-2.044677734375
2.2687499,8.22887134552002,-2.8610711097717285,4.750096321105957,1.5869140625,0.8392333984375,-2.044677734375
2.2712499,8.216899871826172,-2.9065608978271484,4.78122091293335,0.91552734375,0.244140625,-1.40380859375
2.2737499,8.216899871826172,-2.9065608978271484,4.78122091293335,0.91552734375,0.244140625,-1.40380859375
2.2762499,8.190564155578613,-2.964021682739258,4.802768707275391,0.3509521484375,-0.1983642578125,-0.946044921875
2.2787498999999998,8.190564155578613,-2.964021682739258,4.802768707275391,0.3509521484375,-0.1983642578125,-0.946044921875
2.2812499,8.161833763122559,-3.0166940689086914,4.819528102874756,-0.244140625,-0.6866455078125,-0.1983642578125
2.2837499,8.161833763122559,-3.0166940689086914,4.819528102874756,-0.244140625,-0.6866455078125,-0.1983642578125
2.2862499,8.13789176940918,-3.066972494125366,4.841075897216797,-0.67138671875,-1.007080078125,0.5035400390625
2.2887499,8.13789176940918,-3.066972494125366,4.841075897216797,-0.67138671875,-1.007080078125,0.5035400390625
2.2912499,8.106766700744629,-3.112462282180786,4.8722004890441895,-0.823974609375,-1.5716552734375,1.1138916015625
2.2937499,8.106766700744629,-3.112462282180786,4.8722004890441895,-0.823974609375,-1.5716552734375,1.1138916015625
2.2962499,8.075642585754395,-3.1459810733795166,4.903325080871582,-0.6256103515625,-1.708984375,1.7242431640625
2.2987499,8.075642585754395,-3.1459810733795166,4.903325080871582,-0.6256103515625,-1.708984375,1.7242431640625
2.3012499,8.04691219329834,-3.1675288677215576,4.922478675842285,-0.946044921875,-1.8157958984375,2.1209716796875
2.3037499,8.04691219329834,-3.1675288677215576,4.922478675842285,-0.946044921875,-1.8157958984375,2.1209716796875
2.3062499,8.030152320861816,-3.1747114658355713,4.927267074584961,-0.8697509765625,-2.197265625,2.471923828125
2.3087499,8.030152320861816,-3.1747114658355713,4.927267074584961,-0.8697509765625,-2.197265625,2.471923828125
2.3112499,8.008605003356934,-3.179499864578247,4.920084476470947,-1.129150390625,-2.2125244140625,3.143310546875
2.3137499,8.008605003356934,-3.179499864578247,4.920084476470947,-1.129150390625,-2.2125244140625,3.143310546875
2.3162499,7.970297336578369,-3.1890766620635986,4.8937482833862305,-1.1444091796875,-2.4871826171875,3.082275390625
2.3187499,7.970297336578369,-3.1890766620635986,4.8937482833862305,-1.1444091796875,-2.4871826171875,3.082275390625
2.3212498999999998,7.924807548522949,-3.203441858291626,4.855441093444824,-1.5869140625,-2.62451171875,3.509521484375
2.3237499,7.924807548522949,-3.203441858291626,4.855441093444824,-1.5869140625,-2.62451171875,3.509521484375
2.3262499,7.886500358581543,-3.224989652633667,4.831499099731445,-1.7852783203125,-2.6092529296875,3.7384033203125
2.3287499,7.886500358581543,-3.224989652633667,4.831499099731445,-1.7852783203125,-2.6092529296875,3.7384033203125
2.3312499,7.836222171783447,-3.268085241317749,4.833893299102783,-2.13623046875,-2.3193359375,3.662109375
2.3337499,7.836222171783447,-3.268085241317749,4.833893299102783,-2.13623046875,-2.3193359375,3.662109375
2.3362499,7.7643961906433105,-3.313575267791748,4.841075897216797,-2.2125244140625,-2.532958984375,3.9825439453125
2.3387499,7.7643961906433105,-3.313575267791748,4.841075897216797,-2.2125244140625,-2.532958984375,3.9825439453125
2.3412498999999998,7.709329605102539,-3.354276657104492,4.841075897216797,-2.38037109375,-2.2735595703125,3.814697265625
2.3437499,7.709329605102539,-3.354276657104492,4.841075897216797,-2.38037109375,-2.2735595703125,3.814697265625
2.3462499,7.668628215789795,-3.380612850189209,4.819528102874756,-2.593994140625,-2.0599365234375,3.692626953125
2.3487499,7.668628215789795,-3.380612850189209,4.819528102874756,-2.593994140625,-2.0599365234375,3.692626953125
2.3512499,7.615955829620361,-3.375824451446533,4.790797710418701,-3.3721923828125,-1.6326904296875,3.4332275390625
2.3537499,7.615955829620361,-3.375824451446533,4.790797710418701,-3.3721923828125,-1.6326904296875,3.4332275390625
2.3562499,7.558494567871094,-3.359065055847168,4.759673118591309,-4.3182373046875,-1.2359619140625,3.1585693359375
2.3587499,7.558494567871094,-3.359065055847168,4.759673118591309,-4.3182373046875,-1.2359619140625,3.1585693359375
2.3612499,7.501033782958984,-3.359065055847168,4.733336925506592,-5.218505859375,-0.640869140625,2.62451171875
2.3637499,7.501033782958984,-3.359065055847168,4.733336925506592,-5.218505859375,-0.640869140625,2.62451171875
2.3662499,7.433996200561523,-3.375824451446533,4.702212333679199,-6.1492919921875,0.0457763671875,2.1514892578125
2.3687499,7.433996200561523,-3.375824451446533,4.702212333679199,-6.1492919921875,0.0457763671875,2.1514892578125
2.3712499,7.362170219421387,-3.406949043273926,4.6471452713012695,-7.75146484375,0.640869140625,1.708984375
2.3737499,7.362170219421387,-3.406949043273926,4.6471452713012695,-7.75146484375,0.640869140625,1.708984375
2.3762499,7.297526836395264,-3.428496837615967,4.596867084503174,-9.5062255859375,1.5869140625,1.3580322265625
2.3787499,7.297526836395264,-3.428496837615967,4.596867084503174,-9.5062255859375,1.5869140625,1.3580322265625
2.3812499,7.240066051483154,-3.4332852363586426,4.575319290161133,-11.1236572265625,2.3956298828125,0.7781982421875
2.3837498999999998,7.240066051483154,-3.4332852363586426,4.575319290161133,-11.1236572265625,2.3956298828125,0.7781982421875
2.3862499,7.1706342697143555,-3.428496837615967,4.575319290161133,-13.427734375,3.2806396484375,-0.152587890625
2.3887499,7.1706342697143555,-3.428496837615967,4.575319290161133,-13.427734375,3.2806396484375,-0.152587890625
2.3912499,7.091625213623047,-3.4165258407592773,4.587290287017822,-15.56396484375,4.5623779296875,-0.91552734375
2.3937499,7.091625213623047,-3.4165258407592773,4.587290287017822,-15.56396484375,4.5623779296875,-0.91552734375
2.3962499,7.0126166343688965,-3.4404678344726562,4.58968448638916,-18.12744140625,5.43212890625,-1.6632080078125
2.3987499,7.0126166343688965,-3.4404678344726562,4.58968448638916,-18.12744140625,5.43212890625,-1.6632080078125
2.4012499,6.926425457000732,-3.507505416870117,4.584896087646484,-20.93505859375,6.8511962890625,-2.4871826171875
2.4037498999999998,6.926425457000732,-3.507505416870117,4.584896087646484,-20.93505859375,6.8511962890625,-2.4871826171875
2.4062499,6.840234279632568,-3.5913026332855225,4.572925090789795,-23.4527587890625,8.3160400390625,-2.8533935546875
2.4087499,6.840234279632568,-3.5913026332855225,4.572925090789795,-23.4527587890625,8.3160400390625,-2.8533935546875
2.4112499,6.775590896606445,-3.6607344150543213,4.54419469833374,-26.153564453125,9.33837890625,-3.326416015625
2.4137499,6.775590896606445,-3.6607344150543213,4.54419469833374,-26.153564453125,9.33837890625,-3.326416015625
2.4162499,6.7277069091796875,-3.6990416049957275,4.517858505249023,-28.9154052734375,10.986328125,-3.7689208984375
2.4187499,6.7277069091796875,-3.6990416049957275,4.517858505249023,-28.9154052734375,10.986328125,-3.7689208984375
2.4212499,6.694188117980957,-3.7277719974517822,4.513070106506348,-31.9061279296875,12.451171875,-4.5166015625
2.4237499,6.694188117980957,-3.7277719974517822,4.513070106506348,-31.9061279296875,12.451171875,-4.5166015625
2.4262499,6.660669326782227,-3.73016619682312,4.525041103363037,-34.576416015625,14.0380859375,-5.4931640625
2.4287499,6.660669326782227,-3.73016619682312,4.525041103363037,-34.576416015625,14.0380859375,-5.4931640625
2.4312499,6.646304130554199,-3.7158010005950928,4.548983097076416,-37.628173828125,15.8538818359375,-5.9967041015625
2.4337499,6.646304130554199,-3.7158010005950928,4.548983097076416,-37.628173828125,15.8538818359375,-5.9967041015625
2.4362499,6.710947513580322,-3.6942532062530518,4.5825018882751465,-40.771484375,17.547607421875,-6.7901611328125
2.4387499,6.710947513580322,-3.6942532062530518,4.5825018882751465,-40.771484375,17.547607421875,-6.7901611328125
2.4412499,6.842628479003906,-3.670311212539673,4.620809078216553,-43.975830078125,19.6075439453125,-7.7972412109375
2.4437499,6.912060260772705,-3.6583402156829834,4.642356872558594,-45.806884765625,20.782470703125,-8.2855224609375
2.4462498999999998,6.9695210456848145,-3.6391866207122803,4.663905143737793,-47.515869140625,21.9268798828125,-8.7127685546875
2.4487499,7.015010833740234,-3.620033025741577,4.683058738708496,-49.041748046875,22.9949951171875,-9.2620849609375
2.4512499,7.043741226196289,-3.5865142345428467,4.702212333679199,-50.72021484375,24.0478515625,-10.19287109375
2.4537499,7.060500621795654,-3.5482068061828613,4.711789131164551,-52.6580810546875,25.1007080078125,-10.6658935546875
2.4562499,7.06528902053833,-3.507505416870117,4.709394931793213,-54.1839599609375,26.092529296875,-10.955810546875
2.4587499,7.062894821166992,-3.4763808250427246,4.702212333679199,-55.48095703125,27.008056640625,-11.65771484375
2.4612499,7.058106422424316,-3.4572272300720215,4.692635536193848,-57.037353515625,27.9541015625,-12.3748779296875
2.4637499,7.0557122230529785,-3.4572272300720215,4.687847137451172,-58.4259033203125,28.900146484375,-13.0767822265625
2.4662498999999998,7.053318023681641,-3.4811692237854004,4.69024133682251,-59.844970703125,29.7393798828125,-13.4735107421875
2.4687499,7.053318023681641,-3.5218706130981445,4.702212333679199,-61.0198974609375,30.57861328125,-14.007568359375
2.4712499,7.050923824310303,-3.5745432376861572,4.7189717292785645,-61.5997314453125,31.3873291015625,-14.22119140625
2.4737499,7.048529624938965,-3.6320040225982666,4.742913722991943,-62.1337890625,32.0281982421875,-14.6331787109375
2.4762499,7.041347026824951,-3.687070608139038,4.766855716705322,-62.530517578125,33.0963134765625,-15.0909423828125
2.4787499,7.036558628082275,-3.737348794937134,4.793191909790039,-62.6983642578125,33.8134765625,-15.350341796875
2.4812499,7.026981830596924,-3.778050184249878,4.819528102874756,-63.0340576171875,34.3780517578125,-15.533447265625
2.4837499,7.015010833740234,-3.818751811981201,4.838681697845459,-63.201904296875,35.400390625,-15.7470703125
2.4862499,7.003039836883545,-3.847482204437256,4.857835292816162,-63.0340576171875,35.9649658203125,-15.655517578125
2.4887499,6.98628044128418,-3.864241600036621,4.876988887786865,-62.9730224609375,36.6058349609375,-15.5029296875
2.4912499,6.9695210456848145,-3.866635799407959,4.8937482833862305,-63.0340576171875,37.4908447265625,-15.869140625
2.4937499,6.950367450714111,-3.8594532012939453,4.912901878356934,-62.9119873046875,38.055419921875,-15.899658203125
2.4962499,6.9240312576293945,-3.845088005065918,4.934449672698975,-62.6983642578125,38.9251708984375,-15.899658203125
2.4987499,6.907271862030029,-3.8307228088378906,4.95120906829834,-62.6678466796875,39.4134521484375,-16.05224609375
2.5012499,6.890512466430664,-3.8283286094665527,4.970362663269043,-62.469482421875,39.9932861328125,-16.05224609375
2.5037499,6.888118267059326,-3.8355112075805664,4.98472785949707,-61.95068359375,40.3900146484375,-15.9454345703125
2.5062499,6.89530086517334,-3.8570590019226074,4.999093055725098,-61.3861083984375,41.015625,-15.9759521484375
2.5087498999999998,6.9024834632873535,-3.890577793121338,5.013458251953125,-60.8673095703125,41.4886474609375,-15.6097412109375
2.5112499,6.909666061401367,-3.9240965843200684,5.0254292488098145,-60.3790283203125,42.266845703125,-15.6097412109375
2.5137499,6.907271862030029,-3.952826976776123,5.03021764755249,-59.5550537109375,42.755126953125,-15.2130126953125
2.5162499,6.897695064544678,-3.9647979736328125,5.027823448181152,-58.837890625,43.2586669921875,-15.19775390625
2.5187499,6.885724067687988,-3.9695863723754883,5.018246650695801,-58.28857421875,43.5943603515625,-15.19775390625
2.5212499,6.8809356689453125,-3.9600095748901367,5.013458251953125,-57.861328125,43.8079833984375,-14.8162841796875
2.5237499,6.876147270202637,-3.9408559799194336,5.013458251953125,-57.6019287109375,44.2962646484375,-14.6026611328125
2.5262499,6.885724067687988,-3.9169139862060547,5.013458251953125,-57.18994140625,44.6319580078125,-14.1448974609375
2.5287498999999998,6.89530086517334,-3.8786067962646484,5.023035049438477,-56.9610595703125,44.8760986328125,-13.9312744140625
2.5312499,6.926425457000732,-3.8355112075805664,5.03021764755249,-56.7779541015625,45.34912109375,-13.7939453125
2.5337499,6.971915245056152,-3.7828385829925537,5.039794445037842,-56.94580078125,46.0357666015625,-13.580322265625
2.5362499,7.017405033111572,-3.73016619682312,5.0469770431518555,-56.9915771484375,46.2493896484375,-13.427734375
2.5387499,7.062894821166992,-3.6774938106536865,5.056553840637207,-57.06787109375,46.7529296875,-13.4124755859375
2.5412499,7.0988078117370605,-3.6343982219696045,5.061342239379883,-57.18994140625,46.93603515625,-13.427734375
2.5437499,7.115567684173584,-3.5936968326568604,5.073313236236572,-57.5103759765625,47.393798828125,-13.4735107421875
2.5462499,7.137115478515625,-3.56017804145813,5.07570743560791,-57.8765869140625,47.882080078125,-13.36669921875
2.5487499,7.146692276000977,-3.531447410583496,5.073313236236572,-58.563232421875,48.2330322265625,-13.3209228515625
2.5512499,7.168240070343018,-3.5051112174987793,5.058948040008545,-59.2193603515625,48.52294921875,-13.24462890625
2.5537499,7.194576263427734,-3.4787750244140625,5.049371242523193,-60.1348876953125,49.102783203125,-13.0157470703125
2.5562499,7.232883453369141,-3.44765043258667,5.039794445037842,-61.0198974609375,49.4232177734375,-12.9852294921875
2.5587499,7.280767440795898,-3.4165258407592773,5.04218864440918,-62.1337890625,49.8199462890625,-13.36669921875
2.5612499,7.343016624450684,-3.375824451446533,5.054159641265869,-63.1561279296875,49.9420166015625,-13.0157470703125
2.5637499,7.412448406219482,-3.332728862762451,5.070919036865234,-64.3463134765625,50.140380859375,-13.1378173828125
2.5662499,7.484274387359619,-3.28963303565979,5.104437828063965,-65.4144287109375,50.4608154296875,-13.458251953125
2.5687499,7.558494567871094,-3.246537446975708,5.142745018005371,-66.4520263671875,51.0101318359375,-13.702392578125
2.5712498999999998,7.630321025848389,-3.220201253890991,5.190629482269287,-67.3828125,51.177978515625,-13.946533203125
2.5737499,7.690176010131836,-3.2082302570343018,5.228936672210693,-67.9931640625,51.422119140625,-14.312744140625
2.5762499,7.735665798187256,-3.2154128551483154,5.262455463409424,-68.7408447265625,51.7578125,-14.4195556640625
2.5787499,7.7643961906433105,-3.2297780513763428,5.286397457122803,-69.580078125,51.7425537109375,-14.7552490234375
2.5812499,7.781155586242676,-3.251325845718384,5.298368453979492,-70.0531005859375,51.9561767578125,-14.984130859375
2.5837499,7.785943984985352,-3.270479440689087,5.305551052093506,-70.831298828125,51.910400390625,-15.19775390625
2.5862499,7.781155586242676,-3.28963303565979,5.305551052093506,-71.5179443359375,51.94091796875,-15.3350830078125
2.5887499,7.766790390014648,-3.3039982318878174,5.303156852722168,-72.20458984375,51.8646240234375,-15.4876708984375
2.5912498999999998,7.754819393157959,-3.31118106842041,5.295974254608154,-72.7386474609375,51.6510009765625,-15.80810546875
2.5937499,7.752425193786621,-3.31118106842041,5.286397457122803,-73.0438232421875,51.4068603515625,-15.7012939453125
2.5962499,7.759607791900635,-3.3039982318878174,5.272032260894775,-73.516845703125,51.3153076171875,-16.204833984375
2.5987499,7.769184589385986,-3.308786630630493,5.25527286529541,-73.8525390625,51.1016845703125,-16.4794921875
2.6012499,7.771578788757324,-3.3231520652770996,5.236119270324707,-74.2034912109375,50.7354736328125,-16.54052734375
