# Time (seconds),Accel_X,Accel_Y,Accel_Z,Gyro_X,Gyro_Y,Gyro_Z
0.0012499,8.774748802185059,-4.2544965744018555,1.9249382019042969,1.0528564453125,8.209228515625,0.1678466796875
0.0037499,8.75080680847168,-4.230554580688477,1.867477297782898,0.8697509765625,7.904052734375,0.3662109375
0.0062499,8.724471092224121,-4.2090067863464355,1.8148049116134644,0.701904296875,7.2174072265625,0.5340576171875
0.0087499,8.698134422302246,-4.1874589920043945,1.7549498081207275,0.79345703125,6.9122314453125,0.7171630859375
0.0112499,8.676587104797363,-4.165910720825195,1.699883222579956,0.4425048828125,6.2103271484375,0.8697509765625
0.0137499,8.65743350982666,-4.151545524597168,1.644816517829895,0.3204345703125,5.3558349609375,1.1444091796875
0.016249899999999998,8.635885238647461,-4.127603530883789,1.5873557329177856,0.0152587890625,4.69970703125,1.739501953125
0.0187499,8.62391471862793,-4.108449935913086,1.5275006294250488,-0.4730224609375,3.84521484375,1.9989013671875
0.021249900000000002,8.616731643676758,-4.079719543457031,1.4700398445129395,-1.1138916015625,3.3416748046875,2.01416015625
0.023749899999999997,8.616731643676758,-4.055777549743652,1.4077905416488647,-1.6632080078125,2.532958984375,2.3345947265625
0.0262499,8.62391471862793,-4.031835556030273,1.3503297567367554,-1.9073486328125,1.77001953125,2.7313232421875
0.028749900000000002,8.62630844116211,-4.015076160430908,1.292868971824646,-2.4871826171875,0.9307861328125,3.2196044921875
0.031249899999999997,8.628703117370605,-3.998316764831543,1.2425906658172607,-3.1890869140625,0.3662109375,3.4637451171875
0.0337499,8.621520042419434,-3.9815573692321777,1.2042834758758545,-3.875732421875,-0.42724609375,3.8299560546875
0.0362499,8.614337921142578,-3.9647979736328125,1.1803414821624756,-4.45556640625,-1.312255859375,4.364013671875
0.0387499,8.607154846191406,-3.952826976776123,1.1635819673538208,-5.5084228515625,-1.9989013671875,4.39453125
0.0412499,8.609549522399902,-3.9408559799194336,1.1563993692398071,-6.072998046875,-2.8076171875,4.94384765625
0.0437499,8.614337921142578,-3.9384617805480957,1.139639973640442,-6.8206787109375,-3.4942626953125,5.096435546875
0.0462499,8.621520042419434,-3.93367338180542,1.1228805780410767,-7.7667236328125,-4.1046142578125,5.5694580078125
0.0487499,8.633491516113281,-3.9408559799194336,1.094150185585022,-8.544921875,-4.7149658203125,6.011962890625
0.0512499,8.647856712341309,-3.9432501792907715,1.0678139925003052,-9.1094970703125,-5.4473876953125,6.5155029296875
0.053749899999999996,8.662221908569336,-3.955221176147461,1.036689281463623,-9.765625,-6.0577392578125,6.805419921875
0.0562499,8.681375503540039,-3.9695863723754883,1.0103530883789062,-10.68115234375,-6.500244140625,7.1258544921875
0.0587499,8.700529098510742,-3.9839515686035156,0.9792284965515137,-11.1236572265625,-7.354736328125,7.62939453125
0.061249899999999996,8.722076416015625,-4.005499362945557,0.9457096457481384,-11.7950439453125,-7.8582763671875,7.9803466796875
0.0637499,8.743624687194824,-4.019864559173584,0.9145850539207458,-12.1612548828125,-8.5601806640625,8.331298828125
0.0662499,8.762778282165527,-4.039018154144287,0.8810662031173706,-12.9547119140625,-9.2010498046875,8.544921875
0.0687499,8.774748802185059,-4.055777549743652,0.849941611289978,-13.336181640625,-9.6282958984375,9.002685546875
0.0712499,8.78432559967041,-4.0749311447143555,0.8164227604866028,-13.7786865234375,-10.3302001953125,9.490966796875
0.0737499,8.786720275878906,-4.0964789390563965,0.7852981686592102,-14.2669677734375,-10.68115234375,9.9334716796875
0.0762499,8.793902397155762,-4.120420932769775,0.7541735172271729,-14.6331787109375,-11.322021484375,10.19287109375
0.0787499,8.796297073364258,-4.1395745277404785,0.730231523513794,-14.83154296875,-11.993408203125,10.406494140625
0.0812499,8.803479194641113,-4.1611223220825195,0.7206547260284424,-15.19775390625,-12.51220703125,10.8642578125
0.0837499,8.81784439086914,-4.180276393890381,0.7206547260284424,-15.56396484375,-12.969970703125,11.0931396484375
0.0862499,8.834604263305664,-4.197035789489746,0.7254431247711182,-15.655517578125,-13.2904052734375,11.3525390625
0.0887499,8.856152534484863,-4.2090067863464355,0.7326257228851318,-16.05224609375,-13.7786865234375,11.65771484375
0.0912499,8.877699851989746,-4.218583583831787,0.7398083209991455,-16.3421630859375,-14.1754150390625,11.6729736328125
0.0937499,8.892065048217773,-4.225766181945801,0.7398083209991455,-16.448974609375,-14.373779296875,11.810302734375
0.0962499,8.899248123168945,-4.2329487800598145,0.7398083209991455,-16.8304443359375,-14.678955078125,11.9781494140625
0.0987499,8.892065048217773,-4.244919776916504,0.7326257228851318,-17.1966552734375,-15.0299072265625,11.871337890625
0.1012499,8.877699851989746,-4.252102375030518,0.7230489253997803,-17.2882080078125,-15.2435302734375,11.6424560546875
0.1037499,8.856152534484863,-4.264073371887207,0.706289529800415,-17.486572265625,-15.4571533203125,11.810302734375
0.1062499,8.834604263305664,-4.271255970001221,0.6871358752250671,-17.5628662109375,-15.380859375,11.810302734375
0.1087499,8.813055992126465,-4.28322696685791,0.6607996821403503,-17.63916015625,-15.655517578125,11.5203857421875
0.1112499,8.803479194641113,-4.292803764343262,0.629675030708313,-18.00537109375,-15.716552734375,11.1846923828125
0.1137499,8.798690795898438,-4.304774761199951,0.5937620401382446,-18.218994140625,-15.8538818359375,11.2457275390625
0.1162499,8.798690795898438,-4.314351558685303,0.5674257874488831,-18.3563232421875,-15.869140625,11.016845703125
0.1187499,8.80587387084961,-4.32871675491333,0.5363011956214905,-18.49365234375,-15.960693359375,10.7879638671875
0.1212499,8.808267593383789,-4.350264549255371,0.5171475410461426,-18.49365234375,-15.9912109375,10.6353759765625
0.1237499,8.808267593383789,-4.378994941711426,0.49799394607543945,-18.7530517578125,-15.9759521484375,10.4827880859375
0.1262499,8.803479194641113,-4.414907932281494,0.4836287498474121,-19.0277099609375,-16.0980224609375,10.3302001953125
0.1287499,8.796297073364258,-4.455609321594238,0.47884035110473633,-19.0582275390625,-16.11328125,9.8724365234375
0.1312499,8.78432559967041,-4.491522312164307,0.47644615173339844,-19.0582275390625,-16.265869140625,9.735107421875
0.1337499,8.779537200927734,-4.522646903991699,0.4908113479614258,-19.1650390625,-16.082763671875,9.58251953125
0.1362499,8.777143478393555,-4.5394062995910645,0.507570743560791,-19.439697265625,-15.7623291015625,9.3536376953125
0.1387499,8.774748802185059,-4.55616569519043,0.5291185975074768,-19.744873046875,-15.411376953125,8.8043212890625
0.1412499,8.774748802185059,-4.563348293304443,0.5554547905921936,-19.9432373046875,-15.19775390625,8.544921875
0.1437499,8.777143478393555,-4.575319290161133,0.5746083855628967,-19.8211669921875,-14.9078369140625,8.4381103515625
0.1462499,8.78193187713623,-4.594472885131836,0.5937620401382446,-19.8516845703125,-14.434814453125,8.1024169921875
0.1487499,8.791508674621582,-4.616020679473877,0.6129156351089478,-19.8822021484375,-13.946533203125,7.4920654296875
0.1512499,8.803479194641113,-4.6471452713012695,0.6320692300796509,-19.683837890625,-13.580322265625,7.2479248046875
0.1537499,8.815450668334961,-4.6734819412231445,0.6560112833976746,-19.4549560546875,-13.12255859375,6.805419921875
0.1562499,8.822632789611816,-4.699818134307861,0.6775590777397156,-19.0277099609375,-12.5732421875,6.1798095703125
0.1587499,8.820239067077637,-4.728548526763916,0.6991068720817566,-18.951416015625,-12.1307373046875,5.9814453125
0.1612499,8.810662269592285,-4.752490520477295,0.7110779285430908,-18.6004638671875,-11.505126953125,5.6610107421875
0.1637499,8.791508674621582,-4.78122091293335,0.7254431247711182,-18.341064453125,-10.8795166015625,5.3253173828125
0.1662499,8.772355079650879,-4.81473970413208,0.7350199222564697,-17.63916015625,-10.2081298828125,4.94384765625
0.1687499,8.755595207214355,-4.853046894073486,0.7493851184844971,-16.937255859375,-9.9029541015625,4.608154296875
0.1712499,8.7484130859375,-4.900930881500244,0.7613561153411865,-16.204833984375,-9.3841552734375,4.08935546875
0.1737499,8.736441612243652,-4.955997467041016,0.7733271718025208,-15.2587890625,-8.819580078125,3.96728515625
0.17624990000000001,8.729259490966797,-5.011064052581787,0.7876923680305481,-14.4195556640625,-8.453369140625,3.7689208984375
0.1787499,8.710105895996094,-5.061342239379883,0.8020575642585754,-13.3056640625,-7.781982421875,3.448486328125
0.1812499,8.69334602355957,-5.106832027435303,0.8188169598579407,-12.3748779296875,-7.2479248046875,3.2196044921875
0.1837499,8.669404029846191,-5.137956619262695,0.8355764150619507,-11.4593505859375,-6.683349609375,2.99072265625
0.1862499,8.650250434875488,-5.16429328918457,0.8547300100326538,-10.19287109375,-6.16455078125,2.5787353515625
0.1887499,8.621520042419434,-5.178658485412598,0.871489405632019,-8.7738037109375,-5.7525634765625,2.25830078125
0.1912499,8.595184326171875,-5.185841083526611,0.8858546018600464,-7.4005126953125,-5.18798828125,2.166748046875
0.1937499,8.554482460021973,-5.185841083526611,0.8978256583213806,-6.134033203125,-4.69970703125,1.9073486328125
0.1962499,8.513781547546387,-5.1810526847839355,0.9050082564353943,-4.9896240234375,-4.486083984375,1.6632080078125
0.1987499,8.470685958862305,-5.166687488555908,0.9074024558067322,-3.7384033203125,-4.21142578125,1.3427734375
0.2012499,8.432378768920898,-5.154716491699219,0.9050082564353943,-2.6397705078125,-3.72314453125,1.0528564453125
0.2037499,8.365341186523438,-5.128379821777344,0.8834604024887085,-0.030517578125,-3.1890869140625,0.7171630859375
0.2062499,8.336610794067383,-5.116408824920654,0.8643068075180054,1.2969970703125,-2.7923583984375,0.6256103515625
0.20874990000000002,8.312667846679688,-5.099649429321289,0.8403648138046265,2.410888671875,-2.6702880859375,0.54931640625
0.2112499,8.293514251708984,-5.07570743560791,0.8164227604866028,3.0975341796875,-2.38037109375,0.457763671875
0.2137499,8.269572257995605,-5.0469770431518555,0.7948749661445618,4.0130615234375,-2.1209716796875,0.274658203125
0.2162499,8.250418663024902,-5.013458251953125,0.7781155705451965,5.1116943359375,-2.01416015625,0.244140625
0.2187499,8.22887134552002,-4.977545261383057,0.7637503147125244,5.706787109375,-1.7547607421875,-0.1068115234375
0.2212499,8.216899871826172,-4.946420669555664,0.7541735172271729,6.378173828125,-1.922607421875,0.244140625
0.2237499,8.20492935180664,-4.9152960777282715,0.7445967197418213,7.01904296875,-1.953125,0.0152587890625
0.2262499,8.20492935180664,-4.884171485900879,0.7422025203704834,7.354736328125,-1.9378662109375,-0.030517578125
0.2287499,8.200140953063965,-4.853046894073486,0.7374141216278076,7.6141357421875,-1.708984375,-0.06103515625
0.2312499,8.195352554321289,-4.824316501617432,0.7326257228851318,8.056640625,-1.6021728515625,-0.1220703125
0.2337499,8.185775756835938,-4.793191909790039,0.7254431247711182,8.0413818359375,-1.5106201171875,0.0457763671875
0.2362499,8.178592681884766,-4.759673118591309,0.7206547260284424,8.2244873046875,-1.556396484375,0.0762939453125
0.23874990000000001,8.169015884399414,-4.726154327392578,0.7086837291717529,8.0108642578125,-1.46484375,0.2288818359375
0.2412499,8.157045364379883,-4.687847137451172,0.7038952708244324,7.62939453125,-1.40380859375,0.2593994140625
0.2437499,8.152256965637207,-4.659116744995117,0.6919242739677429,7.4310302734375,-1.556396484375,0.4119873046875
0.2462499,8.149862289428711,-4.63517427444458,0.6799532771110535,7.3394775390625,-1.678466796875,0.640869140625
0.2487499,8.147468566894531,-4.618414878845215,0.667982280254364,6.9427490234375,-1.556396484375,0.8392333984375
0.2512499,8.145073890686035,-4.6040496826171875,0.6536170840263367,6.4697265625,-1.556396484375,0.9307861328125
0.25374990000000003,8.14028549194336,-4.58968448638916,0.6368576288223267,6.103515625,-1.739501953125,1.0986328125
0.25624990000000003,8.135497093200684,-4.570530891418457,0.6153098344802856,5.5694580078125,-1.9683837890625,1.0833740234375
0.25874990000000003,8.13789176940918,-4.54419469833374,0.5937620401382446,4.69970703125,-2.0599365234375,1.2054443359375
0.26124990000000003,8.147468566894531,-4.517858505249023,0.5674257874488831,3.8909912109375,-2.3193359375,1.40380859375
0.26374990000000004,8.159439086914062,-4.489128112792969,0.545877993106842,3.265380859375,-2.532958984375,1.739501953125
0.26624990000000004,8.169015884399414,-4.474762916564941,0.5267243981361389,2.6092529296875,-2.655029296875,1.9683837890625
0.26874990000000004,8.17141056060791,-4.460397720336914,0.507570743560791,1.983642578125,-2.716064453125,1.953125
0.27124990000000004,8.166622161865234,-4.4508209228515625,0.4884171485900879,1.2969970703125,-2.9144287109375,2.1820068359375
0.27374990000000005,8.154650688171387,-4.441244125366211,0.4596867263317108,0.3662109375,-3.1280517578125,2.410888671875
0.27624990000000005,8.147468566894531,-4.424484729766846,0.44532153010368347,-0.54931640625,-3.3721923828125,2.3651123046875
0.27874990000000005,8.149862289428711,-4.410119533538818,0.43335050344467163,-1.2969970703125,-3.60107421875,2.5787353515625
0.28124990000000005,8.166622161865234,-4.393360137939453,0.43335050344467163,-2.227783203125,-3.631591796875,2.8839111328125
0.28374990000000005,8.190564155578613,-4.378994941711426,0.4429273009300232,-3.3416748046875,-3.8909912109375,2.9449462890625
0.28624990000000006,8.224082946777344,-4.376600742340088,0.4572925269603729,-4.2266845703125,-4.0283203125,3.2501220703125
0.28874990000000006,8.259995460510254,-4.381389141082764,0.4812345504760742,-4.8675537109375,-3.7384033203125,3.387451171875
0.2912499,8.286332130432129,-4.395754337310791,0.5123591423034668,-5.7373046875,-3.7841796875,3.41796875
0.2937499,8.312667846679688,-4.405331134796143,0.5386953949928284,-6.4239501953125,-3.753662109375,3.5858154296875
0.2962499,8.322244644165039,-4.412513732910156,0.5578489899635315,-7.293701171875,-3.6773681640625,3.60107421875
0.2987499,8.329427719116211,-4.4077253341674805,0.569819986820221,-8.11767578125,-3.7078857421875,3.8604736328125
0.3012499,8.327033042907715,-4.405331134796143,0.569819986820221,-8.8958740234375,-3.7689208984375,4.119873046875
0.3037499,8.327033042907715,-4.410119533538818,0.5722141861915588,-9.368896484375,-3.7689208984375,4.2724609375
0.3062499,8.324639320373535,-4.422090530395508,0.5746083855628967,-9.70458984375,-3.60107421875,4.69970703125
0.3087499,8.329427719116211,-4.443638324737549,0.5817909836769104,-10.4522705078125,-3.5858154296875,5.157470703125
0.3112499,8.343792915344238,-4.474762916564941,0.5913678407669067,-10.894775390625,-3.3416748046875,5.1727294921875
0.3137499,8.360552787780762,-4.508281707763672,0.6033388376235962,-10.589599609375,-3.11279296875,5.5999755859375
0.31624990000000003,8.374917984008789,-4.546588897705078,0.608127236366272,-10.7421875,-2.8533935546875,5.9051513671875
0.31874990000000003,8.38688850402832,-4.5825018882751465,0.6129156351089478,-10.8184814453125,-2.6702880859375,6.34765625
0.32124990000000003,8.396465301513672,-4.6040496826171875,0.6200982332229614,-10.711669921875,-2.6397705078125,6.6375732421875
0.32374990000000003,8.394071578979492,-4.608838081359863,0.6272808313369751,-10.4522705078125,-2.288818359375,7.0648193359375
0.32624990000000004,8.389283180236816,-4.6040496826171875,0.6440402865409851,-10.25390625,-2.0904541015625,7.5225830078125
0.32874990000000004,8.389283180236816,-4.58968448638916,0.6584054827690125,-9.94873046875,-1.9378662109375,8.087158203125
0.33124990000000004,8.396465301513672,-4.5825018882751465,0.6727706789970398,-9.4146728515625,-1.800537109375,8.4075927734375
0.33374990000000004,8.415618896484375,-4.577713489532471,0.6871358752250671,-8.72802734375,-1.4801025390625,8.8653564453125
0.33624990000000005,8.446743965148926,-4.584896087646484,0.7015010714530945,-8.0718994140625,-1.2664794921875,9.3994140625
0.33874990000000005,8.482656478881836,-4.6040496826171875,0.7206547260284424,-7.32421875,-0.9765625,9.765625
0.34124990000000005,8.513781547546387,-4.613626480102539,0.7398083209991455,-6.1187744140625,-0.9002685546875,10.4827880859375
0.34374990000000005,8.544905662536621,-4.6255974769592285,0.7613561153411865,-5.2032470703125,-0.5950927734375,10.772705078125
0.34624990000000005,8.571242332458496,-4.618414878845215,0.7805097699165344,-4.2877197265625,-0.3662109375,11.1083984375
0.34874990000000006,8.59997272491455,-4.60165548324585,0.7996633648872375,-3.35693359375,-0.3204345703125,11.749267578125
0.35124990000000006,8.633491516113281,-4.572925090789795,0.8212111592292786,-2.349853515625,-0.1220703125,12.2528076171875
0.3537499,8.674192428588867,-4.541800498962402,0.8403648138046265,-1.2359619140625,0.0457763671875,12.8021240234375
0.3562499,8.719682693481445,-4.517858505249023,0.8643068075180054,-0.30517578125,0.30517578125,13.3819580078125
0.3587499,8.757989883422852,-4.491522312164307,0.8810662031173706,0.7476806640625,0.457763671875,13.763427734375
0.3612499,8.798690795898438,-4.479551315307617,0.8978256583213806,1.6632080078125,0.8392333984375,14.0380859375
0.3637499,8.832210540771484,-4.458003520965576,0.9050082564353943,2.6702880859375,1.03759765625,14.312744140625
0.3662499,8.860940933227539,-4.431667327880859,0.9145850539207458,3.7994384765625,1.373291015625,14.6942138671875
0.3687499,8.887276649475098,-4.400542736053467,0.912190854549408,4.5928955078125,1.495361328125,14.8162841796875
0.3712499,8.901641845703125,-4.364629745483398,0.9145850539207458,5.2642822265625,1.5411376953125,14.9078369140625
0.3737499,8.918401718139648,-4.32871675491333,0.9169792532920837,5.9967041015625,1.77001953125,15.1519775390625
0.3762499,8.93037223815918,-4.2951979637146,0.9217676520347595,6.7138671875,2.044677734375,15.7012939453125
0.37874990000000003,8.944737434387207,-4.264073371887207,0.9265560507774353,7.50732421875,2.3193359375,15.625
0.38124990000000003,8.956708908081055,-4.228160381317139,0.9313444495201111,7.8125,2.3651123046875,15.56396484375
0.38374990000000003,8.975862503051758,-4.19224739074707,0.9289502501487732,8.1787109375,2.4871826171875,15.6097412109375
0.38624990000000003,8.992621421813965,-4.165910720825195,0.9217676520347595,8.72802734375,2.7008056640625,15.44189453125
0.38874990000000004,9.009381294250488,-4.1395745277404785,0.912190854549408,9.185791015625,2.8533935546875,15.2130126953125
0.39124990000000004,9.023746490478516,-4.120420932769775,0.9026140570640564,9.2315673828125,3.204345703125,14.83154296875
0.39374990000000004,9.028534889221191,-4.110844135284424,0.8906430602073669,9.735107421875,3.0517578125,14.6942138671875
0.39624990000000004,9.028534889221191,-4.10366153717041,0.8834604024887085,10.101318359375,3.265380859375,14.4500732421875
0.39874990000000005,9.016563415527344,-4.108449935913086,0.8786720037460327,10.2691650390625,3.265380859375,14.0228271484375
0.40124990000000005,9.004592895507812,-4.1180267333984375,0.8834604024887085,10.4827880859375,3.11279296875,13.5650634765625
0.40374990000000005,8.980650901794434,-4.127603530883789,0.8930372595787048,10.894775390625,3.2958984375,13.1378173828125
0.40624990000000005,8.954314231872559,-4.1395745277404785,0.9074024558067322,11.2457275390625,3.1890869140625,12.451171875
0.40874990000000005,8.932766914367676,-4.156333923339844,0.9241618514060974,11.3067626953125,2.99072265625,12.1917724609375
0.41124990000000006,8.920795440673828,-4.175487995147705,0.9385270476341248,11.6119384765625,2.99072265625,11.53564453125
0.41374990000000006,8.937555313110352,-4.23773717880249,0.9792284965515137,12.176513671875,2.8839111328125,10.55908203125
0.41624990000000006,8.951920509338379,-4.273650169372559,1.0055646896362305,12.4969482421875,2.8228759765625,10.101318359375
0.4187499,8.966285705566406,-4.302380561828613,1.0295066833496094,12.8326416015625,2.655029296875,9.6435546875
0.4212499,8.973467826843262,-4.331110954284668,1.0582371950149536,13.0615234375,2.593994140625,8.941650390625
0.4237499,8.980650901794434,-4.355052947998047,1.0797849893569946,13.5345458984375,2.593994140625,8.575439453125
0.4262499,8.980650901794434,-4.3861775398254395,1.0965443849563599,13.702392578125,2.62451171875,8.1024169921875
0.4287499,8.971074104309082,-4.422090530395508,1.1109095811843872,13.7939453125,2.3956298828125,7.6904296875
0.4312499,8.949525833129883,-4.460397720336914,1.1252747774124146,14.434814453125,2.105712890625,7.0648193359375
0.4337499,8.925583839416504,-4.503493309020996,1.137245774269104,14.83154296875,2.13623046875,6.561279296875
0.4362499,8.901641845703125,-4.5394062995910645,1.1540051698684692,14.984130859375,2.0751953125,6.134033203125
0.4387499,8.880094528198242,-4.575319290161133,1.173158884048462,15.13671875,1.7547607421875,5.79833984375
0.44124990000000003,8.865729331970215,-4.6040496826171875,1.2018892765045166,15.472412109375,1.8157958984375,5.3863525390625
0.44374990000000003,8.848969459533691,-4.63517427444458,1.2282254695892334,15.7012939453125,1.800537109375,4.852294921875
0.44624990000000003,8.832210540771484,-4.663905143737793,1.256955862045288,15.838623046875,1.739501953125,4.302978515625
0.44874990000000003,8.810662269592285,-4.6950297355651855,1.278503656387329,16.082763671875,1.6326904296875,3.997802734375
0.45124990000000004,8.789113998413086,-4.726154327392578,1.2976573705673218,16.17431640625,1.5106201171875,3.6468505859375
0.45374990000000004,8.765172004699707,-4.76924991607666,1.316810965538025,16.204833984375,1.4495849609375,3.387451171875
0.45624990000000004,8.741230010986328,-4.817133903503418,1.3335703611373901,16.387939453125,1.3427734375,2.9296875
0.45874990000000004,8.710105895996094,-4.874594688415527,1.3527239561080933,16.6778564453125,1.28173828125,2.685546875
0.46124990000000005,8.667010307312012,-4.932055473327637,1.3646949529647827,16.9525146484375,1.129150390625,2.3193359375
0.46374990000000005,8.62391471862793,-4.98472785949707,1.3742717504501343,17.120361328125,1.1749267578125,1.8310546875
0.46624990000000005,8.578424453735352,-5.039794445037842,1.381454348564148,17.608642578125,0.8544921875,1.6021728515625
0.46874990000000005,8.537723541259766,-5.082890033721924,1.3886369466781616,17.8375244140625,0.701904296875,1.0833740234375
0.47124990000000005,8.501810073852539,-5.123591423034668,1.3910311460494995,18.3258056640625,0.48828125,0.732421875
0.47374990000000006,8.468291282653809,-5.157110691070557,1.3886369466781616,18.463134765625,0.4119873046875,0.518798828125
0.47624990000000006,8.439560890197754,-5.185841083526611,1.37906014919281,18.585205078125,0.030517578125,0.2593994140625
0.47874990000000006,8.40843677520752,-5.219359874725342,1.3623007535934448,18.8446044921875,-0.518798828125,0.06103515625
0.4812499,8.382100105285645,-5.250484466552734,1.3455413579940796,19.1802978515625,-0.732421875,-0.244140625
0.4837499,8.355764389038086,-5.284003257751465,1.3287819623947144,19.4854736328125,-0.9002685546875,-0.8392333984375
0.4862499,8.329427719116211,-5.319916248321533,1.3215993642807007,19.83642578125,-1.220703125,-0.885009765625
0.4887499,8.305485725402832,-5.348646640777588,1.316810965538025,20.4620361328125,-1.77001953125,-1.03759765625
0.4912499,8.283937454223633,-5.370194435119629,1.3192051649093628,20.8282470703125,-2.2125244140625,-1.2969970703125
0.4937499,8.269572257995605,-5.384559631347656,1.3239935636520386,21.05712890625,-2.6092529296875,-1.6632080078125
0.4962499,8.259995460510254,-5.394136428833008,1.3335703611373901,21.270751953125,-2.9449462890625,-1.9683837890625
0.4987499,8.257601737976074,-5.403713226318359,1.3335703611373901,21.1944580078125,-2.960205078125,-2.0904541015625
0.5012499,8.259995460510254,-5.408501625061035,1.3263877630233765,21.17919921875,-3.326416015625,-2.197265625
0.5037499000000001,8.257601737976074,-5.413290023803711,1.3048399686813354,21.2860107421875,-3.7078857421875,-2.197265625
0.5062499,8.259995460510254,-5.410895824432373,1.278503656387329,21.3775634765625,-3.84521484375,-2.349853515625
0.5087499000000001,8.255207061767578,-5.408501625061035,1.2425906658172607,21.30126953125,-4.21142578125,-2.685546875
0.5112499,8.250418663024902,-5.4013190269470215,1.216254472732544,21.209716796875,-4.4403076171875,-2.7008056640625
0.5137499,8.233659744262695,-5.394136428833008,1.194706678390503,21.17919921875,-4.6234130859375,-2.593994140625
0.5162499,8.216899871826172,-5.377377033233643,1.1755530834197998,20.965576171875,-4.9285888671875,-2.5177001953125
0.5187499,8.202534675598145,-5.3582234382629395,1.1516109704971313,20.8892822265625,-5.2032470703125,-2.4871826171875
0.5212499,8.190564155578613,-5.3342814445495605,1.1228805780410767,20.6451416015625,-5.5389404296875,-2.5482177734375
0.5237499,8.183381080627441,-5.310339450836182,1.0893617868423462,20.56884765625,-6.0272216796875,-2.6092529296875
0.5262499,8.183381080627441,-5.2911858558654785,1.0558429956436157,20.2789306640625,-6.011962890625,-2.593994140625
0.5287499,8.190564155578613,-5.274426460266113,1.0295066833496094,19.9432373046875,-6.2713623046875,-2.6092529296875
0.5312499,8.20492935180664,-5.260061264038086,1.0055646896362305,19.317626953125,-6.6375732421875,-2.685546875
0.5337499,8.2312650680542,-5.243301868438721,0.9959878921508789,18.768310546875,-6.683349609375,-2.6397705078125
0.5362499000000001,8.26478385925293,-5.2265424728393555,0.9864110946655273,18.3563232421875,-6.988525390625,-2.2735595703125
0.5387499,8.307879447937012,-5.207388877868652,0.9816226959228516,18.0816650390625,-7.293701171875,-2.1209716796875
0.5412499000000001,8.355764389038086,-5.190629482269287,0.9768342971801758,17.5323486328125,-7.6446533203125,-2.01416015625
0.5437499,8.396465301513672,-5.171475887298584,0.9672574996948242,16.6473388671875,-7.62939453125,-1.9683837890625
0.5462499000000001,8.432378768920898,-5.149928092956543,0.9481038451194763,16.082763671875,-7.3699951171875,-1.495361328125
0.5487499,8.449137687683105,-5.125985622406006,0.9169792532920837,15.6707763671875,-7.476806640625,-1.068115234375
0.5512499000000001,8.456320762634277,-5.097255229949951,0.871489405632019,14.678955078125,-7.415771484375,-0.8544921875
0.5537499,8.461109161376953,-5.061342239379883,0.8236053586006165,14.09912109375,-7.4005126953125,-0.48828125
0.5562499000000001,8.463502883911133,-5.0254292488098145,0.7709329724311829,13.2904052734375,-7.4920654296875,-0.152587890625
0.5587499,8.473079681396484,-4.982333660125732,0.7254431247711182,12.359619140625,-7.4615478515625,0
0.5612499000000001,8.482656478881836,-4.93923807144165,0.6871358752250671,11.6119384765625,-7.720947265625,0.3204345703125
0.5637499,8.497021675109863,-4.900930881500244,0.6560112833976746,10.7574462890625,-7.6904296875,0.4425048828125
0.5662499000000001,8.51138687133789,-4.869806289672852,0.6224924325942993,10.009765625,-7.87353515625,0.4119873046875
0.5687499,8.530540466308594,-4.850652694702148,0.5985504388809204,9.3231201171875,-7.9345703125,0.6103515625
0.5712499000000001,8.549694061279297,-4.836287498474121,0.5746083855628967,8.8958740234375,-8.026123046875,0.79345703125
0.5737499,8.573636054992676,-4.829104900360107,0.5578489899635315,8.36181640625,-7.9345703125,0.762939453125
0.5762499000000001,8.592789649963379,-4.829104900360107,0.5410895943641663,7.9193115234375,-8.087158203125,0.762939453125
0.5787499,8.619126319885254,-4.831499099731445,0.5267243981361389,7.476806640625,-8.0108642578125,0.762939453125
0.5812499,8.633491516113281,-4.838681697845459,0.5099649429321289,6.9580078125,-7.8125,0.8087158203125
0.5837499,8.645462036132812,-4.841075897216797,0.49559974670410156,6.4697265625,-7.8887939453125,0.885009765625
0.5862499,8.652645111083984,-4.8482584953308105,0.4908113479614258,5.9661865234375,-8.056640625,1.068115234375
0.5887499,8.65743350982666,-4.845864295959473,0.4884171485900879,5.767822265625,-7.8277587890625,1.007080078125
0.5912499,8.664615631103516,-4.8482584953308105,0.4836287498474121,5.218505859375,-7.781982421875,0.8697509765625
0.5937499,8.674192428588867,-4.850652694702148,0.4812345504760742,4.8980712890625,-7.9193115234375,0.9002685546875
0.5962499,8.686163902282715,-4.855441093444824,0.47884035110473633,4.5013427734375,-7.7362060546875,0.9307861328125
0.5987499000000001,8.700529098510742,-4.862623691558838,0.48602294921875,4.302978515625,-7.537841796875,0.8544921875
0.6012499,8.710105895996094,-4.862623691558838,0.5027823448181152,4.1961669921875,-7.293701171875,0.9002685546875
0.6037499000000001,8.710105895996094,-4.862623691558838,0.5147533416748047,3.8299560546875,-7.2021484375,0.7171630859375
0.6062499,8.695740699768066,-4.850652694702148,0.5267243981361389,3.4637451171875,-7.1563720703125,0.396728515625
0.6087499000000001,8.669404029846191,-4.838681697845459,0.5339069962501526,3.0975341796875,-7.1868896484375,0.2593994140625
0.6112499,8.638279914855957,-4.821922302246094,0.5363011956214905,2.5482177734375,-7.171630859375,-0.1220703125
0.6137499000000001,8.616731643676758,-4.8051629066467285,0.5386953949928284,2.0294189453125,-6.9580078125,-0.091552734375
0.6162499,8.611943244934082,-4.797980308532715,0.5434837937355042,1.7242431640625,-6.9732666015625,-0.1678466796875
0.6187499000000001,8.62391471862793,-4.8051629066467285,0.5434837937355042,1.46484375,-6.4697265625,-0.6103515625
0.6212499,8.643068313598633,-4.819528102874756,0.545877993106842,1.251220703125,-6.16455078125,-0.885009765625
0.6237499000000001,8.664615631103516,-4.891354084014893,0.5602431893348694,0.67138671875,-5.8441162109375,-1.03759765625
0.6262499,8.65982723236084,-4.93923807144165,0.5746083855628967,0.3662109375,-5.7220458984375,-1.190185546875
0.6287499000000001,8.65743350982666,-4.982333660125732,0.5841852426528931,0.2288818359375,-5.3558349609375,-1.3427734375
0.6312499,8.655038833618164,-5.018246650695801,0.5937620401382446,0.1678466796875,-4.94384765625,-1.2969970703125
0.6337499000000001,8.652645111083984,-5.051765441894531,0.5937620401382446,-0.1068115234375,-4.57763671875,-1.2054443359375
0.6362499,8.655038833618164,-5.0876784324646,0.5913678407669067,-0.518798828125,-4.21142578125,-1.2054443359375
0.6387499000000001,8.652645111083984,-5.116408824920654,0.5889736413955688,-0.152587890625,-3.7384033203125,-1.312255859375
0.6412499,8.645462036132812,-5.137956619262695,0.5841852426528931,-0.091552734375,-3.1585693359375,-1.4801025390625
0.6437499,8.633491516113281,-5.152322292327881,0.5913678407669067,-0.0762939453125,-2.86865234375,-1.373291015625
0.6462499,8.619126319885254,-5.147533416748047,0.6009446382522583,-0.2593994140625,-2.8228759765625,-1.46484375
0.6487499,8.616731643676758,-5.157110691070557,0.6344634294509888,-0.213623046875,-2.4871826171875,-1.52587890625
0.6512499,8.62630844116211,-5.169081687927246,0.6799532771110535,0.67138671875,-2.105712890625,-1.6326904296875
0.6537499,8.643068313598633,-5.1810526847839355,0.727837324142456,1.251220703125,-1.739501953125,-1.52587890625
0.6562499,8.662221908569336,-5.197812080383301,0.7757213711738586,1.3580322265625,-1.312255859375,-1.8768310546875
0.6587499,8.65982723236084,-5.171475887298584,0.8020575642585754,1.40380859375,-1.1138916015625,-2.1209716796875
0.6612499000000001,8.652645111083984,-5.154716491699219,0.8212111592292786,1.4495849609375,-0.8697509765625,-1.9073486328125
0.6637499,8.640673637390137,-5.12119722366333,0.8259995579719543,1.8463134765625,-0.6561279296875,-1.983642578125
0.6662499000000001,8.619126319885254,-5.0900726318359375,0.8236053586006165,2.044677734375,-0.0457763671875,-2.13623046875
0.6687499,8.604761123657227,-5.073313236236572,0.8188169598579407,2.044677734375,0.152587890625,-2.410888671875
0.6712499000000001,8.578424453735352,-5.061342239379883,0.8068459630012512,2.3956298828125,0.457763671875,-2.5177001953125
0.6737499,8.556877136230469,-5.054159641265869,0.7996633648872375,2.7923583984375,0.6103515625,-2.3345947265625
0.6762499000000001,8.542511940002441,-5.0685248374938965,0.7972691655158997,3.1280517578125,0.6103515625,-2.44140625
0.6787499,8.53293514251709,-5.080495834350586,0.8020575642585754,3.6163330078125,1.1444091796875,-2.8228759765625
0.6812499000000001,8.530540466308594,-5.094861030578613,0.811634361743927,3.7841796875,1.2969970703125,-2.8228759765625
0.6837499,8.523358345031738,-5.0900726318359375,0.8259995579719543,4.21142578125,1.617431640625,-2.7618408203125
0.6862499000000001,8.513781547546387,-5.082890033721924,0.8475474119186401,4.2877197265625,1.64794921875,-2.8839111328125
0.6887499,8.49941635131836,-5.063736438751221,0.8643068075180054,4.39453125,1.9073486328125,-2.960205078125
0.6912499000000001,8.489839553833008,-5.0469770431518555,0.8858546018600464,4.82177734375,2.3345947265625,-3.1280517578125
0.6937499,8.482656478881836,-5.035006046295166,0.9026140570640564,5.035400390625,2.3651123046875,-3.173828125
0.6962499000000001,8.489839553833008,-5.027823448181152,0.9193734526634216,5.2642822265625,2.5482177734375,-3.204345703125
0.6987499,8.506598472595215,-5.011064052581787,0.9265560507774353,5.645751953125,2.960205078125,-3.2958984375
0.7012499000000001,8.518569946289062,-4.999093055725098,0.9433154463768005,5.7373046875,3.2501220703125,-3.204345703125
0.7037499,8.523358345031738,-4.975151062011719,0.9481038451194763,5.8135986328125,3.4027099609375,-3.2806396484375
0.7062499,8.513781547546387,-4.948814868927002,0.9576807022094727,5.92041015625,3.4332275390625,-3.387451171875
0.7087499,8.49941635131836,-4.934449672698975,0.9672574996948242,5.8135986328125,3.4637451171875,-3.35693359375
0.7112499,8.487444877624512,-4.922478675842285,0.9744400978088379,5.9967041015625,3.631591796875,-3.2501220703125
0.7137499,8.47547435760498,-4.920084476470947,0.9792284965515137,6.28662109375,3.8909912109375,-3.265380859375
0.7162499,8.461109161376953,-4.9152960777282715,0.9911994934082031,6.3934326171875,3.936767578125,-3.23486328125
0.7187499,8.451532363891602,-4.900930881500244,1.0007762908935547,6.28662109375,3.9520263671875,-2.899169921875
0.7212499,8.446743965148926,-4.879383087158203,1.015141487121582,6.4849853515625,4.1351318359375,-2.960205078125
0.7237499000000001,8.449137687683105,-4.857835292816162,1.0271124839782715,6.4544677734375,4.45556640625,-3.0364990234375
0.7262499,8.458714485168457,-4.833893299102783,1.039083480834961,6.683349609375,4.6234130859375,-3.021240234375
0.7287499000000001,8.470685958862305,-4.809951305389404,1.048660397529602,7.1868896484375,4.669189453125,-3.0059814453125
0.7312499,8.480262756347656,-4.790797710418701,1.0582371950149536,7.3699951171875,4.82177734375,-2.9144287109375
0.7337499000000001,8.482656478881836,-4.776432514190674,1.0654197931289673,7.2784423828125,4.9896240234375,-2.86865234375
0.7362499,8.47786808013916,-4.7620673179626465,1.072602391242981,7.3089599609375,4.913330078125,-2.9144287109375
0.7387499000000001,8.463502883911133,-4.754884719848633,1.072602391242981,7.4615478515625,4.8675537109375,-2.960205078125
0.7412499,8.446743965148926,-4.750096321105957,1.072602391242981,7.8887939453125,4.852294921875,-2.8839111328125
0.7437499000000001,8.427590370178223,-4.747702121734619,1.0773907899856567,7.7056884765625,4.8828125,-2.9144287109375
0.7462499,8.4108304977417,-4.750096321105957,1.0773907899856567,7.8887939453125,5.06591796875,-2.593994140625
0.7487499000000001,8.396465301513672,-4.754884719848633,1.0821791887283325,8.1024169921875,4.9285888671875,-2.349853515625
0.7512499,8.374917984008789,-4.752490520477295,1.0869675874710083,8.0413818359375,4.8828125,-2.471923828125
0.7537499000000001,8.358158111572266,-4.754884719848633,1.0989385843276978,7.9498291015625,4.730224609375,-2.44140625
0.7562499,8.348581314086914,-4.757278919219971,1.1109095811843872,8.2244873046875,4.8980712890625,-2.227783203125
0.7587499000000001,8.35336971282959,-4.7620673179626465,1.1300631761550903,8.2855224609375,5.0048828125,-1.9073486328125
0.7612499,8.365341186523438,-4.759673118591309,1.158793568611145,8.0413818359375,4.974365234375,-1.739501953125
0.7637499000000001,8.382100105285645,-4.747702121734619,1.1827356815338135,8.1939697265625,5.0048828125,-1.556396484375
0.7662499,8.394071578979492,-4.72376012802124,1.213860273361206,7.99560546875,5.126953125,-1.5716552734375
0.7687499000000001,8.403648376464844,-4.692635536193848,1.2306196689605713,7.904052734375,4.9591064453125,-1.5106201171875
0.7712499,8.413225173950195,-4.668693542480469,1.2449848651885986,7.8582763671875,5.1422119140625,-1.40380859375
0.7737499,8.422801971435547,-4.656722068786621,1.2449848651885986,7.8277587890625,5.035400390625,-1.3580322265625
0.7762499,8.437167167663574,-4.661510944366455,1.2473790645599365,7.6446533203125,5.18798828125,-1.129150390625
0.7787499,8.446743965148926,-4.663905143737793,1.2521674633026123,7.7972412109375,5.126953125,-1.0223388671875
0.7812499,8.446743965148926,-4.675876140594482,1.2665326595306396,7.3699951171875,4.8980712890625,-1.0223388671875
0.7837499,8.446743965148926,-4.680664539337158,1.2880805730819702,7.415771484375,4.7149658203125,-0.9307861328125
0.7862499000000001,8.44195556640625,-4.692635536193848,1.3215993642807007,7.32421875,4.8370361328125,-0.9002685546875
0.7887499,8.449137687683105,-4.704606533050537,1.3551181554794312,7.4005126953125,4.82177734375,-0.91552734375
0.7912499000000001,8.468291282653809,-4.7189717292785645,1.3910311460494995,7.5225830078125,4.94384765625,-0.579833984375
0.7937499,8.497021675109863,-4.726154327392578,1.4173674583435059,7.6751708984375,4.94384765625,-0.518798828125
0.7962499000000001,8.520963668823242,-4.730942726135254,1.4269442558288574,7.659912109375,5.0506591796875,-0.7781982421875
0.7987499,8.540117263793945,-4.72376012802124,1.436521053314209,7.568359375,5.06591796875,-0.640869140625
0.8012499000000001,8.547300338745117,-4.709394931793213,1.434126853942871,7.659912109375,4.913330078125,-0.42724609375
0.8037499,8.544905662536621,-4.685452938079834,1.436521053314209,7.87353515625,5.0048828125,-0.4119873046875
0.8062499000000001,8.540117263793945,-4.663905143737793,1.4413094520568848,7.5836181640625,4.913330078125,-0.213623046875
0.8087499,8.530540466308594,-4.642356872558594,1.4508862495422363,7.598876953125,4.7149658203125,-0.1983642578125
0.8112499000000001,8.525752067565918,-4.63517427444458,1.4652514457702637,7.4310302734375,4.5318603515625,-0.18310546875
0.8137499,8.520963668823242,-4.632780075073242,1.482010841369629,7.50732421875,4.5623779296875,0
0.8162499000000001,8.523358345031738,-4.639962673187256,1.50355863571167,7.5836181640625,4.4708251953125,0.0152587890625
0.8187499,8.525752067565918,-4.6471452713012695,1.5179238319396973,7.8125,4.4097900390625,0.1220703125
0.8212499000000001,8.523358345031738,-4.651933670043945,1.5275006294250488,7.7362060546875,4.3487548828125,0.335693359375
0.8237499,8.523358345031738,-4.656722068786621,1.5394717454910278,7.537841796875,4.33349609375,0.457763671875
0.8262499000000001,8.520963668823242,-4.661510944366455,1.5490485429763794,7.5225830078125,4.1046142578125,0.6103515625
0.8287499,8.516175270080566,-4.666299343109131,1.558625340461731,7.659912109375,4.2877197265625,0.518798828125
0.8312499000000001,8.51138687133789,-4.671087741851807,1.5658079385757446,7.4310302734375,4.150390625,0.6256103515625
0.8337499,8.506598472595215,-4.680664539337158,1.5682021379470825,7.38525390625,3.936767578125,0.7171630859375
0.8362499,8.49941635131836,-4.685452938079834,1.5658079385757446,7.4310302734375,3.692626953125,0.8392333984375
0.8387499,8.49941635131836,-4.685452938079834,1.5682021379470825,7.3394775390625,3.5247802734375,0.9765625
0.8412499,8.489839553833008,-4.683058738708496,1.5729905366897583,7.32421875,3.6163330078125,0.8087158203125
0.8437499,8.485051155090332,-4.680664539337158,1.5849615335464478,7.2174072265625,3.4332275390625,0.823974609375
0.8462499,8.473079681396484,-4.675876140594482,1.5945383310317993,6.927490234375,3.2196044921875,0.762939453125
0.8487499000000001,8.463502883911133,-4.67827033996582,1.6041151285171509,7.0343017578125,3.0975341796875,0.9613037109375
0.8512499,8.456320762634277,-4.683058738708496,1.6065093278884888,7.293701171875,2.7923583984375,0.8544921875
0.8537499000000001,8.451532363891602,-4.692635536193848,1.6112977266311646,7.4462890625,2.8076171875,0.9002685546875
0.8562499,8.453926086425781,-4.711789131164551,1.6184803247451782,7.4615478515625,2.5634765625,0.5950927734375
0.8587499000000001,8.456320762634277,-4.73573112487793,1.6376339197158813,7.26318359375,2.227783203125,0.6866455078125
0.8612499,8.463502883911133,-4.764461517333984,1.659181833267212,7.843017578125,2.1820068359375,0.9918212890625
0.8637499000000001,8.468291282653809,-4.790797710418701,1.6855180263519287,8.2550048828125,1.9073486328125,0.8544921875
0.8662499,8.465897560119629,-4.812345504760742,1.7094600200653076,8.209228515625,1.6632080078125,1.03759765625
0.8687499000000001,8.465897560119629,-4.824316501617432,1.721431016921997,8.4381103515625,1.556396484375,1.1444091796875
0.8712499,8.453926086425781,-4.8267107009887695,1.7334020137786865,8.48388671875,1.3427734375,1.251220703125
0.8737499000000001,8.44195556640625,-4.824316501617432,1.7357962131500244,8.8958740234375,1.2969970703125,1.4801025390625
0.8762499,8.427590370178223,-4.812345504760742,1.742978811264038,9.0789794921875,0.9307861328125,1.5869140625
0.8787499000000001,8.415618896484375,-4.795586109161377,1.7501614093780518,9.246826171875,0.732421875,1.6632080078125
0.8812499,8.406042098999023,-4.78122091293335,1.7549498081207275,9.5367431640625,0.457763671875,1.556396484375
0.8837499000000001,8.406042098999023,-4.7620673179626465,1.7573440074920654,9.735107421875,0.2288818359375,1.5411376953125
0.8862499,8.40843677520752,-4.754884719848633,1.7621324062347412,10.101318359375,0.0152587890625,1.800537109375
0.8887499000000001,8.4108304977417,-4.7405195236206055,1.7621324062347412,10.43701171875,-0.030517578125,1.800537109375
0.8912499,8.418013572692871,-4.72376012802124,1.7597382068634033,10.5133056640625,-0.4119873046875,1.7547607421875
0.8937499000000001,8.42040729522705,-4.699818134307861,1.745373010635376,10.589599609375,-0.762939453125,1.739501953125
0.8962499,8.422801971435547,-4.675876140594482,1.7262194156646729,10.772705078125,-0.732421875,1.6632080078125
0.8987499,8.429984092712402,-4.656722068786621,1.702277421951294,10.8184814453125,-0.9307861328125,1.6937255859375
0.9012499,8.432378768920898,-4.644751071929932,1.6831238269805908,10.9100341796875,-1.1749267578125,1.7547607421875
0.9037499,8.44195556640625,-4.644751071929932,1.6759412288665771,11.1236572265625,-1.6326904296875,1.739501953125
0.9062499,8.446743965148926,-4.644751071929932,1.678335428237915,11.138916015625,-1.6937255859375,1.7852783203125
0.9087499,8.453926086425781,-4.642356872558594,1.6855180263519287,11.1846923828125,-2.0294189453125,1.800537109375
0.9112499000000001,8.461109161376953,-4.630385875701904,1.6950948238372803,11.0626220703125,-2.25830078125,1.800537109375
0.9137499,8.47547435760498,-4.613626480102539,1.7118542194366455,10.8184814453125,-2.3651123046875,1.7242431640625
0.9162499000000001,8.485051155090332,-4.5825018882751465,1.7262194156646729,10.5743408203125,-2.44140625,1.678466796875
0.9187499,8.49941635131836,-4.551377296447754,1.745373010635376,10.2691650390625,-2.685546875,2.01416015625
0.9212499000000001,8.508993148803711,-4.520252704620361,1.7573440074920654,9.94873046875,-2.532958984375,1.7547607421875
0.9237499,8.520963668823242,-4.491522312164307,1.764526605606079,9.613037109375,-2.62451171875,1.6326904296875
0.9262499000000001,8.530540466308594,-4.46518611907959,1.764526605606079,9.246826171875,-2.532958984375,1.861572265625
0.9287499,8.549694061279297,-4.4508209228515625,1.7597382068634033,8.8653564453125,-2.7008056640625,1.8310546875
0.9312499000000001,8.56645393371582,-4.441244125366211,1.7477672100067139,8.6669921875,-2.6397705078125,1.8768310546875
0.9337499,8.583212852478027,-4.438849925994873,1.7405846118927002,8.2855224609375,-2.62451171875,1.6937255859375
0.9362499000000001,8.597578048706055,-4.441244125366211,1.7262194156646729,7.781982421875,-2.899169921875,1.4801025390625
0.9387499,8.609549522399902,-4.436455726623535,1.7166426181793213,7.1563720703125,-2.838134765625,1.495361328125
0.9412499000000001,8.614337921142578,-4.441244125366211,1.7094600200653076,6.9427490234375,-2.9754638671875,1.2969970703125
0.9437499,8.616731643676758,-4.448426723480225,1.7046716213226318,6.6375732421875,-2.9144287109375,1.3275146484375
0.9462499000000001,8.614337921142578,-4.469974517822266,1.699883222579956,5.7220458984375,-2.7618408203125,1.129150390625
0.9487499,8.611943244934082,-4.489128112792969,1.6974890232086182,5.4473876953125,-2.838134765625,0.946044921875
0.9512499000000001,8.609549522399902,-4.517858505249023,1.6927006244659424,5.126953125,-2.8839111328125,0.9613037109375
0.9537499,8.607154846191406,-4.541800498962402,1.6927006244659424,4.8065185546875,-2.8228759765625,0.9613037109375
0.9562499000000001,8.604761123657227,-4.568136692047119,1.6831238269805908,4.2877197265625,-2.838134765625,0.8697509765625
0.9587499,8.611943244934082,-4.594472885131836,1.6855180263519287,3.96728515625,-2.6092529296875,0.732421875
0.9612499,8.616731643676758,-4.618414878845215,1.6831238269805908,3.7384033203125,-2.5787353515625,0.79345703125
0.9637499,8.628703117370605,-4.644751071929932,1.6831238269805908,3.2958984375,-2.4566650390625,0.823974609375
0.9662499,8.635885238647461,-4.668693542480469,1.6855180263519287,3.0517578125,-2.6702880859375,0.8697509765625
0.9687499,8.633491516113281,-4.69024133682251,1.6879122257232666,2.8076171875,-2.6702880859375,0.885009765625
0.9712499,8.631096839904785,-4.711789131164551,1.6855180263519287,2.8839111328125,-2.3193359375,0.7476806640625
0.9737499000000001,8.616731643676758,-4.730942726135254,1.6759412288665771,2.777099609375,-2.44140625,0.8544921875
0.9762499,8.609549522399902,-4.747702121734619,1.6543933153152466,2.8076171875,-2.3345947265625,0.885009765625
0.9787499000000001,8.604761123657227,-4.764461517333984,1.623268723487854,2.7618408203125,-2.716064453125,0.8392333984375
0.9812499,8.597578048706055,-4.776432514190674,1.5969325304031372,2.685546875,-2.716064453125,0.7781982421875
0.9837499000000001,8.592789649963379,-4.793191909790039,1.5729905366897583,2.86865234375,-2.6702880859375,1.0528564453125
0.9862499,8.585607528686523,-4.807557106018066,1.5705963373184204,2.9296875,-2.6092529296875,0.9918212890625
0.9887499000000001,8.578424453735352,-4.821922302246094,1.5729905366897583,3.0670166015625,-2.7008056640625,1.1138916015625
0.9912499,8.571242332458496,-4.838681697845459,1.5849615335464478,3.3111572265625,-2.5634765625,1.1749267578125
0.9937499000000001,8.564059257507324,-4.855441093444824,1.5921441316604614,3.4942626953125,-2.7923583984375,0.946044921875
0.9962499,8.559270858764648,-4.867412090301514,1.599326729774475,3.72314453125,-2.7008056640625,0.8697509765625
0.9987499000000001,8.552088737487793,-4.874594688415527,1.6065093278884888,4.1656494140625,-2.5787353515625,1.0528564453125
1.0012499,8.552088737487793,-4.869806289672852,1.6041151285171509,4.3792724609375,-2.7008056640625,0.8544921875
1.0037498999999999,8.547300338745117,-4.862623691558838,1.6041151285171509,4.3182373046875,-2.7618408203125,0.5340576171875
1.0062499,8.537723541259766,-4.855441093444824,1.5969325304031372,4.5318603515625,-2.5482177734375,0.7476806640625
1.0087499,8.523358345031738,-4.850652694702148,1.5873557329177856,5.0048828125,-2.5787353515625,0.9002685546875
1.0112499,8.506598472595215,-4.853046894073486,1.5729905366897583,5.126953125,-2.777099609375,1.0223388671875
1.0137498999999999,8.487444877624512,-4.855441093444824,1.5538369417190552,5.3253173828125,-2.86865234375,0.823974609375
1.0162499,8.468291282653809,-4.857835292816162,1.5394717454910278,5.584716796875,-2.777099609375,0.6256103515625
1.0187499,8.458714485168457,-4.8602294921875,1.5275006294250488,5.859375,-2.7923583984375,0.79345703125
1.0212499,8.456320762634277,-4.8602294921875,1.522712230682373,5.950927734375,-2.7313232421875,0.732421875
1.0237498999999999,8.456320762634277,-4.857835292816162,1.5203180313110352,6.2713623046875,-2.8839111328125,0.5645751953125
1.0262498999999998,8.461109161376953,-4.862623691558838,1.5179238319396973,6.5155029296875,-2.899169921875,0.7171630859375
1.0287499,8.451532363891602,-4.8722004890441895,1.5131354331970215,6.4544677734375,-2.838134765625,0.946044921875
1.0312499,8.44195556640625,-4.886565685272217,1.4987702369689941,6.5460205078125,-2.593994140625,1.0986328125
1.0337498999999999,8.422801971435547,-4.896142482757568,1.479616641998291,6.5155029296875,-2.6092529296875,0.8697509765625
1.0362498999999998,8.398859977722168,-4.903325080871582,1.4484920501708984,6.4849853515625,-2.716064453125,0.7171630859375
1.0387499,8.379706382751465,-4.900930881500244,1.4173674583435059,6.5155029296875,-2.5482177734375,1.1138916015625
1.0412499,8.346187591552734,-4.903325080871582,1.359906554222107,6.5765380859375,-2.3956298828125,1.2664794921875
1.0437499,8.336610794067383,-4.908113479614258,1.3431471586227417,6.3018798828125,-2.38037109375,1.2359619140625
1.0462498999999998,8.33182144165039,-4.927267074584961,1.3192051649093628,6.317138671875,-2.3193359375,1.190185546875
1.0487499,8.324639320373535,-4.944026470184326,1.3000515699386597,6.134033203125,-2.3956298828125,1.6021728515625
1.0512499,8.327033042907715,-4.965574264526367,1.2665326595306396,5.859375,-2.50244140625,2.044677734375
1.0537499,8.327033042907715,-4.977545261383057,1.2282254695892334,5.5694580078125,-2.3956298828125,2.0599365234375
1.0562498999999999,8.329427719116211,-4.975151062011719,1.1803414821624756,5.2032470703125,-2.50244140625,2.2430419921875
1.0587499,8.334216117858887,-4.948814868927002,1.1300631761550903,4.5928955078125,-2.7008056640625,2.3956298828125
1.0612499,8.336610794067383,-4.910507678985596,1.0773907899856567,3.662109375,-2.1514892578125,2.62451171875
1.0637499,8.33182144165039,-4.867412090301514,1.0295066833496094,2.8076171875,-2.01416015625,2.6397705078125
1.0662498999999999,8.324639320373535,-4.829104900360107,0.993593692779541,1.495361328125,-2.166748046875,3.0670166015625
1.0687499,8.307879447937012,-4.802768707275391,0.9720458984375,0.30517578125,-1.9683837890625,3.1585693359375
1.0712499,8.291120529174805,-4.795586109161377,0.9600749015808105,-0.6561279296875,-1.9378662109375,3.2501220703125
1.0737499,8.274360656738281,-4.793191909790039,0.9552865028381348,-1.708984375,-1.9073486328125,3.173828125
1.0762498999999999,8.259995460510254,-4.800374507904053,0.9552865028381348,-2.899169921875,-1.708984375,3.4027099609375
1.0787499,8.250418663024902,-4.802768707275391,0.9528923034667969,-4.1961669921875,-1.4495849609375,3.7384033203125
1.0812499,8.248024940490723,-4.8051629066467285,0.9457096457481384,-5.4931640625,-1.4190673828125,3.6773681640625
1.0837499,8.245630264282227,-4.8051629066467285,0.9313444495201111,-6.9122314453125,-1.251220703125,3.7078857421875
1.0862498999999999,8.245630264282227,-4.809951305389404,0.9145850539207458,-8.1024169921875,-1.007080078125,3.8604736328125
1.0887499,8.245630264282227,-4.817133903503418,0.8882488012313843,-9.3841552734375,-0.7171630859375,4.0283203125
1.0912499,8.238448143005371,-4.829104900360107,0.8690952062606812,-10.833740234375,-0.396728515625,4.08935546875
1.0937499,8.22887134552002,-4.843470096588135,0.8403648138046265,-11.8255615234375,-0.3509521484375,4.180908203125
1.0962498999999999,8.212111473083496,-4.8602294921875,0.8188169598579407,-12.939453125,-0.2288818359375,4.486083984375
1.0987498999999998,8.200140953063965,-4.881777286529541,0.7972691655158997,-13.9312744140625,0.0762939453125,4.5318603515625
1.1012499,8.192957878112793,-4.90571928024292,0.7805097699165344,-14.7857666015625,0.2593994140625,4.69970703125
1.1037499,8.197746276855469,-4.934449672698975,0.7709329724311829,-15.6707763671875,0.4425048828125,4.94384765625
1.1062499,8.214506149291992,-4.963180065155029,0.7613561153411865,-16.29638671875,0.762939453125,5.1116943359375
1.1087498999999998,8.226476669311523,-4.99669885635376,0.7565677165985107,-16.8914794921875,0.9307861328125,5.37109375
1.1112499,8.233659744262695,-5.0254292488098145,0.7493851184844971,-17.4560546875,1.068115234375,5.4779052734375
1.1137499,8.233659744262695,-5.056553840637207,0.7493851184844971,-17.63916015625,1.2664794921875,5.615234375
1.1162499,8.226476669311523,-5.0876784324646,0.751779317855835,-17.6544189453125,1.4495849609375,5.79833984375
1.1187498999999999,8.214506149291992,-5.118803024291992,0.7613561153411865,-17.8375244140625,1.678466796875,6.1492919921875
1.1212499,8.20492935180664,-5.154716491699219,0.7829039692878723,-18.00537109375,1.739501953125,6.3934326171875
1.1237499,8.192957878112793,-5.195417881011963,0.8020575642585754,-17.88330078125,1.7547607421875,6.6375732421875
1.1262499,8.185775756835938,-5.233725070953369,0.828393816947937,-17.5933837890625,1.6326904296875,6.927490234375
1.1287498999999999,8.180987358093262,-5.281609058380127,0.849941611289978,-17.425537109375,1.8157958984375,7.14111328125
1.1312499,8.180987358093262,-5.327098846435547,0.8643068075180054,-16.9219970703125,1.983642578125,7.4462890625
1.1337499,8.176198959350586,-5.374982833862305,0.871489405632019,-16.448974609375,2.1514892578125,7.4462890625
1.1362499,8.17141056060791,-5.413290023803711,0.871489405632019,-15.716552734375,2.2430419921875,7.7056884765625
1.1387498999999999,8.164227485656738,-5.446808815002441,0.8571242094039917,-15.2435302734375,2.4261474609375,8.0413818359375
1.1412499,8.154650688171387,-5.475539207458496,0.8355764150619507,-14.7247314453125,2.685546875,7.87353515625
1.1437499,8.149862289428711,-5.499481201171875,0.8068459630012512,-13.916015625,2.7313232421875,8.1787109375
1.1462499,8.149862289428711,-5.521028995513916,0.7829039692878723,-13.031005859375,2.777099609375,8.6212158203125
1.1487498999999999,8.145073890686035,-5.5329999923706055,0.7589619159698486,-12.1612548828125,2.6397705078125,8.819580078125
1.1512499,8.149862289428711,-5.537788391113281,0.7445967197418213,-11.7645263671875,2.7923583984375,8.819580078125
1.1537499,8.154650688171387,-5.525817394256592,0.7374141216278076,-11.0321044921875,2.7923583984375,8.8348388671875
1.1562499,8.166622161865234,-5.509057998657227,0.7350199222564697,-10.3607177734375,2.8533935546875,9.0179443359375
1.1587498999999999,8.185775756835938,-5.48272180557251,0.7398083209991455,-10.009765625,2.777099609375,9.1094970703125
1.1612498999999998,8.20492935180664,-5.451597213745117,0.7541735172271729,-9.6282958984375,2.8228759765625,9.1705322265625
1.1637499,8.226476669311523,-5.415684223175049,0.7733271718025208,-9.0484619140625,2.99072265625,9.1552734375
1.1662499,8.248024940490723,-5.382165431976318,0.8020575642585754,-8.9569091796875,3.265380859375,8.97216796875
1.1687499,8.271966934204102,-5.34625244140625,0.8331822156906128,-8.575439453125,3.4942626953125,9.09423828125
1.1712498999999998,8.305485725402832,-5.315127849578857,0.8643068075180054,-8.1787109375,3.7994384765625,9.27734375
1.1737499,8.343792915344238,-5.281609058380127,0.9002198576927185,-8.1634521484375,3.96728515625,9.0484619140625
1.1762499,8.38449478149414,-5.2480902671813965,0.9361328482627869,-8.1024169921875,4.0740966796875,8.9263916015625
1.1787499,8.434772491455078,-5.212177276611328,0.9744400978088379,-8.2855224609375,4.5166015625,8.9874267578125
1.1812498999999999,8.482656478881836,-5.183446884155273,1.015141487121582,-8.209228515625,5.3253173828125,8.8348388671875
1.1837499,8.53532886505127,-5.161899089813232,1.0582371950149536,-8.0413818359375,5.1116943359375,8.60595703125
1.1862499,8.583212852478027,-5.147533416748047,1.1109095811843872,-8.1787109375,5.5999755859375,8.636474609375
1.1887499,8.619126319885254,-5.145139217376709,1.161187767982483,-8.23974609375,6.134033203125,8.5296630859375
1.1912498999999999,8.652645111083984,-5.142745018005371,1.2090718746185303,-8.209228515625,6.5765380859375,8.514404296875
1.1937499,8.678980827331543,-5.145139217376709,1.256955862045288,-8.4228515625,7.0953369140625,8.2855224609375
1.1962499,8.698134422302246,-5.149928092956543,1.2952631711959839,-8.4228515625,7.62939453125,8.1329345703125
1.1987499,8.724471092224121,-5.154716491699219,1.3311761617660522,-8.4075927734375,8.0718994140625,8.1024169921875
1.2012498999999999,8.736441612243652,-5.154716491699219,1.357512354850769,-8.1939697265625,8.270263671875,8.0108642578125
1.2037499,8.741230010986328,-5.154716491699219,1.3766659498214722,-8.392333984375,8.697509765625,7.8277587890625
1.2062499,8.734047889709473,-5.152322292327881,1.3862427473068237,-8.36181640625,8.9874267578125,7.6751708984375
1.2087499,8.71728801727295,-5.145139217376709,1.3934253454208374,-8.1787109375,9.2010498046875,7.5225830078125
1.2112498999999999,8.69334602355957,-5.135562419891357,1.3886369466781616,-8.209228515625,9.58251953125,7.2784423828125
1.2137499,8.676587104797363,-5.123591423034668,1.3766659498214722,-8.209228515625,9.8114013671875,7.01904296875
1.2162499,8.652645111083984,-5.1116204261779785,1.359906554222107,-8.087158203125,9.8114013671875,6.744384765625
1.2187499,8.635885238647461,-5.099649429321289,1.3431471586227417,-8.331298828125,10.0555419921875,6.591796875
1.2212498999999999,8.616731643676758,-5.0900726318359375,1.3287819623947144,-8.6669921875,10.2996826171875,6.378173828125
1.2237498999999998,8.60236644744873,-5.07570743560791,1.3263877630233765,-8.9111328125,10.5743408203125,6.256103515625
1.2262499,8.585607528686523,-5.061342239379883,1.3215993642807007,-9.1094970703125,10.7269287109375,5.9051513671875
1.2287499,8.573636054992676,-5.037400245666504,1.335964560508728,-9.4146728515625,10.8184814453125,5.3558349609375
1.2312499,8.554482460021973,-5.015852451324463,1.3479355573654175,-9.8724365234375,10.80322265625,5.1727294921875
1.2337498999999998,8.537723541259766,-4.987122058868408,1.3694833517074585,-10.2081298828125,10.6658935546875,4.7454833984375
1.2362499,8.516175270080566,-4.960785865783691,1.3886369466781616,-10.6048583984375,10.7269287109375,4.33349609375
1.2387499,8.494627952575684,-4.941632270812988,1.400607943534851,-11.0321044921875,10.80322265625,3.7994384765625
1.2412499,8.465897560119629,-4.922478675842285,1.41257905960083,-11.566162109375,10.92529296875,3.3416748046875
1.2437498999999999,8.437167167663574,-4.910507678985596,1.4197616577148438,-11.871337890625,10.7269287109375,2.899169921875
1.2462499,8.406042098999023,-4.90571928024292,1.4221558570861816,-12.1307373046875,10.6658935546875,1.922607421875
1.2487499,8.377311706542969,-4.898536682128906,1.4197616577148438,-12.4664306640625,10.6658935546875,1.5411376953125
1.2512499,8.35097599029541,-4.900930881500244,1.4077905416488647,-12.8936767578125,10.5438232421875,1.220703125
1.2537498999999999,8.315062522888184,-4.917690277099609,1.359906554222107,-13.5498046875,10.498046875,0.30517578125
1.2562499,8.303091049194336,-4.932055473327637,1.3407529592514038,-13.73291015625,10.1776123046875,0
1.2587499,8.291120529174805,-4.95120906829834,1.3215993642807007,-14.0228271484375,10.2081298828125,-0.640869140625
1.2612499,8.276755332946777,-4.967968463897705,1.3192051649093628,-14.1754150390625,9.979248046875,-0.8087158203125
1.2637498999999999,8.26239013671875,-4.98472785949707,1.3287819623947144,-14.2364501953125,9.765625,-1.068115234375
1.2662499,8.255207061767578,-4.994304656982422,1.3527239561080933,-14.2364501953125,9.7808837890625,-1.6021728515625
1.2687499,8.250418663024902,-5.006275653839111,1.3862427473068237,-14.1448974609375,9.33837890625,-1.7852783203125
1.2712499,8.257601737976074,-5.011064052581787,1.4221558570861816,-14.068603515625,9.21630859375,-1.983642578125
1.2737498999999999,8.269572257995605,-5.013458251953125,1.4652514457702637,-14.2822265625,9.33837890625,-2.2125244140625
1.2762499,8.279149055480957,-5.008669853210449,1.50355863571167,-14.0838623046875,9.246826171875,-2.44140625
1.2787499,8.29590892791748,-5.003881454467773,1.53707754611969,-14.0228271484375,8.97216796875,-2.44140625
1.2812499,8.300697326660156,-4.994304656982422,1.5634137392044067,-13.7939453125,9.1705322265625,-2.6092529296875
1.2837498999999999,8.312667846679688,-4.9799394607543945,1.580173134803772,-13.519287109375,9.246826171875,-2.777099609375
1.2862498999999998,8.317456245422363,-4.967968463897705,1.5873557329177856,-13.4735107421875,9.1400146484375,-3.0517578125
1.2887499,8.322244644165039,-4.953603267669678,1.5849615335464478,-13.214111328125,9.2010498046875,-2.9449462890625
1.2912499,8.329427719116211,-4.93923807144165,1.5753847360610962,-12.7410888671875,9.246826171875,-3.0975341796875
1.2937499,8.339004516601562,-4.924872875213623,1.5610195398330688,-12.603759765625,9.1400146484375,-3.2501220703125
1.2962498999999998,8.35097599029541,-4.910507678985596,1.5394717454910278,-12.4664306640625,9.002685546875,-3.1585693359375
1.2987499,8.367734909057617,-4.896142482757568,1.5179238319396973,-12.0391845703125,8.941650390625,-3.0517578125
1.3012499,8.374917984008789,-4.876988887786865,1.4891934394836426,-11.77978515625,8.9263916015625,-2.9144287109375
1.3037499,8.38688850402832,-4.869806289672852,1.4676456451416016,-11.4593505859375,9.1705322265625,-2.7923583984375
1.3062498999999999,8.382100105285645,-4.853046894073486,1.4532804489135742,-11.2457275390625,9.1552734375,-2.7618408203125
1.3087499,8.372523307800293,-4.836287498474121,1.4460978507995605,-11.322021484375,8.819580078125,-2.685546875
1.3112499,8.360552787780762,-4.81473970413208,1.4484920501708984,-11.1083984375,8.8348388671875,-2.6092529296875
1.3137499,8.348581314086914,-4.786009311676025,1.460463047027588,-11.077880859375,9.033203125,-2.8228759765625
1.3162498999999999,8.339004516601562,-4.747702121734619,1.4652514457702637,-11.23046875,8.9874267578125,-2.410888671875
1.3187499,8.33182144165039,-4.709394931793213,1.4772224426269531,-11.16943359375,8.9263916015625,-2.349853515625
1.3212499,8.322244644165039,-4.663905143737793,1.4748282432556152,-11.566162109375,9.0179443359375,-2.593994140625
1.3237499,8.305485725402832,-4.6255974769592285,1.4772224426269531,-11.8865966796875,9.0789794921875,-2.5787353515625
1.3262498999999999,8.293514251708984,-4.587290287017822,1.4700398445129395,-12.0849609375,9.246826171875,-2.4871826171875
1.3287499,8.279149055480957,-4.558559894561768,1.460463047027588,-12.298583984375,9.4757080078125,-2.38037109375
1.3312499,8.267178535461426,-4.537012100219727,1.4508862495422363,-12.39013671875,9.3536376953125,-2.50244140625
1.3337499,8.255207061767578,-4.517858505249023,1.436521053314209,-12.3748779296875,9.3231201171875,-2.7923583984375
1.3362498999999999,8.243236541748047,-4.505887508392334,1.4221558570861816,-12.6495361328125,9.552001953125,-2.655029296875
1.3387499,8.238448143005371,-4.496310710906982,1.4053963422775269,-12.8631591796875,9.8724365234375,-2.685546875
1.3412499,8.236053466796875,-4.481945514678955,1.3910311460494995,-12.9852294921875,9.5977783203125,-2.685546875
1.3437499,8.236053466796875,-4.474762916564941,1.37906014919281,-13.0157470703125,9.613037109375,-2.716064453125
1.3462498999999999,8.24084186553955,-4.469974517822266,1.3718775510787964,-13.12255859375,9.521484375,-2.74658203125
1.3487498999999998,8.248024940490723,-4.469974517822266,1.3670891523361206,-13.031005859375,9.735107421875,-2.6702880859375
1.3512499,8.26239013671875,-4.474762916564941,1.3646949529647827,-12.786865234375,10.101318359375,-2.532958984375
1.3537499,8.279149055480957,-4.474762916564941,1.3694833517074585,-12.63427734375,9.9945068359375,-2.349853515625
1.3562499,8.291120529174805,-4.46518611907959,1.3838485479354858,-12.63427734375,10.101318359375,-2.2125244140625
1.3587498999999998,8.307879447937012,-4.446032524108887,1.4053963422775269,-12.51220703125,10.19287109375,-2.3345947265625
1.3612499,8.315062522888184,-4.412513732910156,1.434126853942871,-12.3291015625,10.1776123046875,-2.197265625
1.3637499,8.327033042907715,-4.378994941711426,1.460463047027588,-12.603759765625,10.19287109375,-2.3651123046875
1.3662499,8.341399192810059,-4.350264549255371,1.482010841369629,-12.4359130859375,10.345458984375,-2.288818359375
1.3687498999999999,8.362946510314941,-4.331110954284668,1.5059528350830078,-11.8865966796875,10.406494140625,-2.1514892578125
1.3712499,8.398859977722168,-4.323928356170654,1.5131354331970215,-11.77978515625,10.68115234375,-2.13623046875
1.3737499,8.44434928894043,-4.323928356170654,1.5275006294250488,-11.474609375,11.0321044921875,-1.9683837890625
1.3762499,8.497021675109863,-4.3191399574279785,1.5322890281677246,-10.9710693359375,11.41357421875,-1.8768310546875
1.3787498999999999,8.544905662536621,-4.316745758056641,1.53707754611969,-10.5438232421875,11.65771484375,-2.01416015625
1.3812499,8.583212852478027,-4.304774761199951,1.5418659448623657,-10.040283203125,11.65771484375,-1.8310546875
1.3837499,8.611943244934082,-4.292803764343262,1.5442601442337036,-9.7503662109375,11.871337890625,-1.9989013671875
1.3862499,8.638279914855957,-4.273650169372559,1.5466543436050415,-9.3231201171875,11.932373046875,-1.708984375
1.3887498999999999,8.662221908569336,-4.261679172515869,1.5538369417190552,-8.636474609375,12.115478515625,-1.708984375
1.3912499,8.688557624816895,-4.256890773773193,1.5682021379470825,-8.4381103515625,12.3443603515625,-1.6632080078125
1.3937499,8.712499618530273,-4.256890773773193,1.5897499322891235,-7.904052734375,12.5579833984375,-1.708984375
1.3962499,8.7268648147583,-4.268861770629883,1.6160861253738403,-7.26318359375,12.87841796875,-1.5411376953125
1.3987498999999999,8.741230010986328,-4.2760443687438965,1.6376339197158813,-6.9580078125,13.0462646484375,-1.3885498046875
1.4012499,8.7484130859375,-4.285621166229248,1.6639702320098877,-6.3018798828125,13.1378173828125,-1.251220703125
1.4037499,8.75080680847168,-4.290409564971924,1.6831238269805908,-5.7220458984375,13.153076171875,-1.190185546875
1.4062499,8.7484130859375,-4.288015365600586,1.702277421951294,-5.37109375,13.427734375,-1.129150390625
1.4087498999999999,8.746018409729004,-4.280832767486572,1.721431016921997,-5.2337646484375,13.5040283203125,-1.03759765625
1.4112498999999998,8.746018409729004,-4.278438568115234,1.7405846118927002,-4.852294921875,13.5650634765625,-1.15966796875
1.4137499,8.75080680847168,-4.2760443687438965,1.7573440074920654,-4.4097900390625,13.8397216796875,-0.9002685546875
1.4162499,8.762778282165527,-4.290409564971924,1.7741034030914307,-3.8909912109375,14.0380859375,-0.732421875
1.4187499,8.769960403442383,-4.314351558685303,1.7836803197860718,-3.2958984375,14.2822265625,-0.79345703125
1.4212498999999998,8.777143478393555,-4.335899353027344,1.7908629179000854,-2.899169921875,14.495849609375,-0.5035400390625
1.4237499,8.767566680908203,-4.357447147369385,1.7860745191574097,-2.471923828125,14.5111083984375,-0.457763671875
1.4262499,8.75080680847168,-4.369418144226074,1.7836803197860718,-2.2125244140625,14.5111083984375,-0.3204345703125
1.4287499,8.724471092224121,-4.378994941711426,1.7741034030914307,-1.922607421875,14.5263671875,-0.0152587890625
1.4312498999999999,8.698134422302246,-4.388571739196777,1.7741034030914307,-1.373291015625,14.2822265625,-0.0762939453125
1.4337499,8.683769226074219,-4.402936935424805,1.7741034030914307,-0.5950927734375,14.2974853515625,0.1068115234375
1.4362499,8.676587104797363,-4.426878929138184,1.7764976024627686,-0.0762939453125,14.068603515625,0.274658203125
1.4387499,8.674192428588867,-4.458003520965576,1.7860745191574097,0.274658203125,14.0838623046875,0.1220703125
1.4412498999999999,8.681375503540039,-4.4939165115356445,1.7932571172714233,0.6103515625,14.09912109375,0.2899169921875
1.4437499,8.69334602355957,-4.529829502105713,1.802833914756775,1.312255859375,14.007568359375,0.640869140625
1.4462499,8.695740699768066,-4.548983097076416,1.8052281141281128,1.953125,14.0380859375,0.5035400390625
1.4487499,8.69095230102539,-4.5609540939331055,1.8148049116134644,2.1209716796875,13.73291015625,0.7171630859375
1.4512498999999999,8.667010307312012,-4.565742492675781,1.8195933103561401,2.5177001953125,13.3056640625,0.9765625
1.4537499,8.633491516113281,-4.565742492675781,1.845929503440857,2.8228759765625,13.1683349609375,1.2054443359375
1.4562499,8.60236644744873,-4.575319290161133,1.867477297782898,3.204345703125,12.786865234375,1.129150390625
1.4587499,8.585607528686523,-4.58968448638916,1.8962076902389526,3.448486328125,12.4969482421875,1.312255859375
1.4612498999999999,8.580819129943848,-4.6040496826171875,1.9129672050476074,3.9825439453125,12.51220703125,1.6021728515625
1.4637499,8.592789649963379,-4.651933670043945,1.922544002532959,4.69970703125,12.39013671875,1.9073486328125
1.4662499,8.597578048706055,-4.663905143737793,1.9153614044189453,5.2032470703125,12.0849609375,1.89208984375
1.4687499,8.585607528686523,-4.6734819412231445,1.9033904075622559,5.2642822265625,11.77978515625,1.953125
1.4712498999999999,8.56645393371582,-4.666299343109131,1.886630892753601,5.340576171875,11.3983154296875,2.3193359375
1.4737498999999998,8.542511940002441,-4.659116744995117,1.8722656965255737,5.4473876953125,11.0931396484375,2.4871826171875
1.4762499,8.51138687133789,-4.663905143737793,1.8698714971542358,5.43212890625,10.7421875,2.44140625
1.4787499,8.485051155090332,-4.685452938079834,1.86508309841156,5.79833984375,9.9945068359375,2.4566650390625
1.4812499,8.465897560119629,-4.716577529907227,1.86508309841156,6.1187744140625,9.5367431640625,2.3956298828125
1.4837498999999998,8.463502883911133,-4.757278919219971,1.8626888990402222,6.378173828125,9.21630859375,2.685546875
1.4862499,8.470685958862305,-4.7836151123046875,1.8555063009262085,6.591796875,8.9569091796875,2.6397705078125
1.4887499,8.482656478881836,-4.795586109161377,1.8531121015548706,6.622314453125,8.697509765625,2.777099609375
1.4912499,8.489839553833008,-4.790797710418701,1.845929503440857,6.53076171875,8.544921875,2.655029296875
1.4937498999999999,8.492233276367188,-4.778826713562012,1.845929503440857,6.439208984375,7.904052734375,2.6397705078125
1.4962499,8.492233276367188,-4.774038314819336,1.843535304069519,6.256103515625,7.3699951171875,2.99072265625
1.4987499,8.489839553833008,-4.776432514190674,1.8483237028121948,6.3018798828125,6.8817138671875,2.8076171875
1.5012499,8.492233276367188,-4.778826713562012,1.8579005002975464,6.256103515625,6.439208984375,2.8228759765625
1.5037498999999999,8.489839553833008,-4.78122091293335,1.8746598958969116,6.134033203125,6.16455078125,2.8839111328125
1.5062499,8.487444877624512,-4.78122091293335,1.8914192914962769,5.8135986328125,5.950927734375,2.8228759765625
1.5087499,8.485051155090332,-4.786009311676025,1.9129672050476074,5.9661865234375,5.37109375,2.960205078125
1.5112499,8.485051155090332,-4.795586109161377,1.9273324012756348,5.950927734375,4.974365234375,2.838134765625
1.5137498999999999,8.482656478881836,-4.809951305389404,1.9393033981323242,5.4931640625,4.6539306640625,2.6092529296875
1.5162499,8.485051155090332,-4.8267107009887695,1.944091796875,5.2947998046875,4.33349609375,2.5634765625
1.5187499,8.482656478881836,-4.841075897216797,1.944091796875,5.3863525390625,4.0435791015625,2.6397705078125
1.5212499,8.480262756347656,-4.853046894073486,1.9393033981323242,5.279541015625,3.662109375,2.5634765625
1.5237498999999999,8.470685958862305,-4.8722004890441895,1.9249382019042969,5.401611328125,3.2806396484375,2.4566650390625
1.5262499,8.463502883911133,-4.888959884643555,1.9105730056762695,5.06591796875,2.960205078125,2.2430419921875
1.5287499,8.451532363891602,-4.903325080871582,1.889025092124939,4.8675537109375,2.7313232421875,2.13623046875
1.5312499,8.449137687683105,-4.920084476470947,1.8602946996688843,4.913330078125,2.2430419921875,1.922607421875
1.5337498999999999,8.451532363891602,-4.927267074584961,1.8291701078414917,4.6234130859375,2.166748046875,1.9073486328125
1.5362499,8.461109161376953,-4.9368438720703125,1.802833914756775,4.7760009765625,1.5716552734375,1.9073486328125
1.5387499,8.47547435760498,-4.941632270812988,1.7764976024627686,4.5318603515625,1.129150390625,1.7242431640625
1.5412499,8.489839553833008,-4.944026470184326,1.7693150043487549,4.5013427734375,0.8697509765625,1.861572265625
1.5437499,8.51138687133789,-4.944026470184326,1.7621324062347412,4.302978515625,0.48828125,1.8157958984375
1.5462498999999998,8.528146743774414,-4.9368438720703125,1.7693150043487549,3.997802734375,0.152587890625,1.5716552734375
1.5487499,8.549694061279297,-4.924872875213623,1.7764976024627686,3.814697265625,-0.06103515625,1.4801025390625
1.5512499,8.56884765625,-4.9152960777282715,1.7884687185287476,3.5247802734375,-0.3662109375,1.617431640625
1.5537499,8.580819129943848,-4.90571928024292,1.800439715385437,3.4637451171875,-0.5645751953125,1.4190673828125
1.5562498999999999,8.5903959274292,-4.900930881500244,1.8171991109848022,2.99072265625,-0.8544921875,1.15966796875
1.5587499,8.5903959274292,-4.8937482833862305,1.8291701078414917,2.685546875,-1.007080078125,1.1749267578125
1.5612499,8.592789649963379,-4.888959884643555,1.8411411046981812,2.5634765625,-1.2359619140625,1.5106201171875
1.5637499,8.59997272491455,-4.8937482833862305,1.8531121015548706,2.25830078125,-1.2969970703125,1.3427734375
1.5662498999999999,8.609549522399902,-4.896142482757568,1.8555063009262085,2.0904541015625,-1.3427734375,1.28173828125
1.5687499,8.62630844116211,-4.910507678985596,1.8531121015548706,1.5869140625,-1.46484375,1.007080078125
1.5712499,8.645462036132812,-4.920084476470947,1.8483237028121948,1.495361328125,-1.739501953125,1.2054443359375
1.5737499,8.664615631103516,-4.932055473327637,1.8315643072128296,1.312255859375,-1.678466796875,1.1444091796875
1.5762498999999999,8.678980827331543,-4.93923807144165,1.8148049116134644,1.0986328125,-1.678466796875,0.9918212890625
1.5787499,8.69334602355957,-4.946420669555664,1.7884687185287476,1.007080078125,-1.8768310546875,0.9307861328125
1.5812499,8.705317497253418,-4.948814868927002,1.7597382068634033,1.0833740234375,-1.9989013671875,1.068115234375
1.5837499,8.71489429473877,-4.953603267669678,1.7310078144073486,0.9002685546875,-2.1209716796875,1.007080078125
1.5862498999999999,8.724471092224121,-4.955997467041016,1.7094600200653076,0.9002685546875,-2.2735595703125,0.732421875
1.5887499,8.724471092224121,-4.965574264526367,1.6950948238372803,0.8697509765625,-2.5634765625,0.6103515625
1.5912499,8.722076416015625,-4.960785865783691,1.6879122257232666,0.9765625,-2.655029296875,0.518798828125
1.5937499,8.722076416015625,-4.963180065155029,1.6855180263519287,0.762939453125,-2.685546875,0.396728515625
1.5962498999999999,8.719682693481445,-4.953603267669678,1.6927006244659424,0.946044921875,-2.7923583984375,0.213623046875
1.5987499,8.71489429473877,-4.948814868927002,1.6950948238372803,0.9613037109375,-2.9449462890625,0.1983642578125
1.6012499,8.707711219787598,-4.946420669555664,1.699883222579956,1.0528564453125,-2.9754638671875,0.1678466796875
1.6037499,8.69334602355957,-4.948814868927002,1.702277421951294,1.2664794921875,-3.0975341796875,0.0457763671875
1.6062499,8.678980827331543,-4.953603267669678,1.702277421951294,1.190185546875,-3.326416015625,-0.030517578125
1.6087498999999998,8.664615631103516,-4.955997467041016,1.6974890232086182,1.4495849609375,-3.173828125,-0.1068115234375
1.6112499,8.655038833618164,-4.960785865783691,1.6927006244659424,1.64794921875,-3.265380859375,-0.213623046875
1.6137499,8.647856712341309,-4.955997467041016,1.6903064250946045,1.8768310546875,-3.3721923828125,-0.4119873046875
1.6162499,8.643068313598633,-4.953603267669678,1.680729627609253,1.9989013671875,-3.3111572265625,-0.5950927734375
1.6187498999999999,8.635885238647461,-4.95120906829834,1.6759412288665771,2.197265625,-3.448486328125,-0.640869140625
1.6212499,8.633491516113281,-4.948814868927002,1.6615760326385498,2.5482177734375,-3.41796875,-0.7171630859375
1.6237499,8.631096839904785,-4.953603267669678,1.644816517829895,2.7313232421875,-3.4027099609375,-0.762939453125
1.6262499,8.640673637390137,-4.955997467041016,1.623268723487854,2.9144287109375,-3.5552978515625,-0.9918212890625
1.6287498999999999,8.645462036132812,-4.953603267669678,1.599326729774475,3.2196044921875,-3.509521484375,-1.3275146484375
1.6312499,8.652645111083984,-4.948814868927002,1.5729905366897583,3.509521484375,-3.5858154296875,-1.3580322265625
1.6337499,8.65743350982666,-4.941632270812988,1.5538369417190552,3.875732421875,-3.631591796875,-1.52587890625
1.6362499,8.65743350982666,-4.932055473327637,1.5394717454910278,3.96728515625,-3.7841796875,-1.678466796875
1.6387498999999999,8.65743350982666,-4.927267074584961,1.5394717454910278,4.33349609375,-3.7689208984375,-1.7242431640625
1.6412499,8.662221908569336,-4.929661273956299,1.5466543436050415,4.3182373046875,-3.814697265625,-2.197265625
1.6437499,8.669404029846191,-4.929661273956299,1.5658079385757446,4.669189453125,-3.8909912109375,-2.25830078125
1.6462499,8.69095230102539,-4.934449672698975,1.5825673341751099,4.8675537109375,-3.84521484375,-2.4261474609375
1.6487498999999999,8.710105895996094,-4.929661273956299,1.6041151285171509,5.126953125,-3.662109375,-2.4871826171875
1.6512499,8.729259490966797,-4.922478675842285,1.6208745241165161,5.2032470703125,-3.6468505859375,-2.6397705078125
1.6537499,8.741230010986328,-4.920084476470947,1.6352397203445435,5.4473876953125,-3.5552978515625,-2.8076171875
1.6562499,8.743624687194824,-4.9152960777282715,1.6496049165725708,5.615234375,-3.2501220703125,-3.0517578125
1.6587498999999999,8.743624687194824,-4.912901878356934,1.6663644313812256,5.7830810546875,-3.2501220703125,-3.326416015625
1.6612499,8.736441612243652,-4.90571928024292,1.6759412288665771,6.103515625,-3.2196044921875,-3.3416748046875
1.6637499,8.734047889709473,-4.891354084014893,1.6855180263519287,6.4544677734375,-2.99072265625,-3.326416015625
1.6662499,8.724471092224121,-4.876988887786865,1.6903064250946045,6.8511962890625,-2.899169921875,-3.2501220703125
1.6687499,8.71728801727295,-4.862623691558838,1.6879122257232666,6.8206787109375,-2.8228759765625,-3.5400390625
1.6712498999999998,8.705317497253418,-4.8482584953308105,1.6903064250946045,7.01904296875,-2.74658203125,-3.5858154296875
1.6737499,8.674192428588867,-4.831499099731445,1.6927006244659424,7.7056884765625,-2.5787353515625,-3.8909912109375
1.6762499,8.65743350982666,-4.831499099731445,1.6950948238372803,8.270263671875,-2.62451171875,-3.7078857421875
1.6787499,8.647856712341309,-4.831499099731445,1.702277421951294,8.4686279296875,-2.532958984375,-4.0435791015625
1.6812498999999999,8.633491516113281,-4.8267107009887695,1.7070658206939697,8.9569091796875,-2.471923828125,-3.6773681640625
1.6837499,8.62630844116211,-4.809951305389404,1.7094600200653076,9.0789794921875,-2.62451171875,-3.7689208984375
1.6862499,8.619126319885254,-4.793191909790039,1.7094600200653076,9.3841552734375,-2.62451171875,-3.7384033203125
1.6887499,8.611943244934082,-4.778826713562012,1.7070658206939697,9.674072265625,-2.685546875,-3.60107421875
1.6912498999999999,8.59997272491455,-4.764461517333984,1.702277421951294,9.796142578125,-2.4566650390625,-3.5858154296875
1.6937499,8.583212852478027,-4.7620673179626465,1.702277421951294,10.009765625,-2.4871826171875,-3.3416748046875
1.6962499,8.554482460021973,-4.757278919219971,1.699883222579956,10.2691650390625,-2.7313232421875,-3.1280517578125
1.6987499,8.523358345031738,-4.750096321105957,1.7046716213226318,10.43701171875,-2.655029296875,-2.99072265625
1.7012498999999999,8.487444877624512,-4.733336925506592,1.7118542194366455,10.528564453125,-2.8533935546875,-2.9144287109375
1.7037499,8.451532363891602,-4.709394931793213,1.7142484188079834,10.406494140625,-3.1890869140625,-2.8076171875
1.7062499,8.413225173950195,-4.683058738708496,1.7190368175506592,10.3607177734375,-3.3111572265625,-2.716064453125
1.7087499,8.382100105285645,-4.661510944366455,1.7190368175506592,10.345458984375,-3.23486328125,-2.4871826171875
1.7112498999999999,8.35336971282959,-4.656722068786621,1.7166426181793213,10.25390625,-3.4027099609375,-2.4261474609375
1.7137499,8.329427719116211,-4.654327869415283,1.7070658206939697,10.2691650390625,-3.662109375,-2.105712890625
1.7162499,8.312667846679688,-4.654327869415283,1.6974890232086182,10.3759765625,-3.60107421875,-1.8463134765625
1.7187499,8.305485725402832,-4.651933670043945,1.6855180263519287,10.1165771484375,-3.6468505859375,-1.7547607421875
1.7212498999999999,8.300697326660156,-4.644751071929932,1.6735470294952393,9.8419189453125,-4.0435791015625,-1.6632080078125
1.7237499,8.305485725402832,-4.639962673187256,1.6663644313812256,9.3231201171875,-4.08935546875,-1.64794921875
1.7262499,8.310274124145508,-4.639962673187256,1.659181833267212,8.97216796875,-4.425048828125,-1.5869140625
1.7287499,8.315062522888184,-4.639962673187256,1.6496049165725708,8.7738037109375,-4.6539306640625,-1.3427734375
1.7312499,8.317456245422363,-4.639962673187256,1.647210717201233,8.4075927734375,-4.94384765625,-0.8697509765625
1.7337498999999998,8.33182144165039,-4.639962673187256,1.6424223184585571,8.148193359375,-4.8065185546875,-0.762939453125
1.7362499,8.336610794067383,-4.642356872558594,1.6496049165725708,8.1634521484375,-5.035400390625,-0.6866455078125
1.7387499,8.348581314086914,-4.644751071929932,1.6543933153152466,7.568359375,-5.279541015625,-0.579833984375
1.7412499,8.35097599029541,-4.649539470672607,1.6615760326385498,7.3699951171875,-5.4931640625,-0.3662109375
1.7437498999999999,8.346187591552734,-4.649539470672607,1.6639702320098877,6.9732666015625,-5.5084228515625,-0.2593994140625
1.7462499,8.334216117858887,-4.651933670043945,1.659181833267212,6.5155029296875,-5.8135986328125,-0.152587890625
1.7487499,8.31985092163086,-4.656722068786621,1.6543933153152466,6.072998046875,-5.828857421875,0.0457763671875
1.7512499,8.303091049194336,-4.663905143737793,1.644816517829895,5.9356689453125,-6.011962890625,0.1373291015625
1.7537498999999999,8.29590892791748,-4.680664539337158,1.6400281190872192,5.767822265625,-6.16455078125,0.335693359375
1.7562499,8.291120529174805,-4.6950297355651855,1.6304513216018677,5.523681640625,-6.4697265625,0.6561279296875
1.7587499,8.293514251708984,-4.711789131164551,1.6280571222305298,5.523681640625,-6.561279296875,0.48828125
1.7612499,8.29590892791748,-4.730942726135254,1.625662922859192,5.3253173828125,-6.65283203125,0.4425048828125
1.7637498999999999,8.29590892791748,-4.752490520477295,1.623268723487854,5.2032470703125,-6.7291259765625,0.946044921875
1.7662499,8.291120529174805,-4.76924991607666,1.625662922859192,5.035400390625,-6.7901611328125,1.15966796875
1.7687499,8.281543731689453,-4.788403511047363,1.6280571222305298,5.096435546875,-7.1258544921875,1.2969970703125
1.7712499,8.267178535461426,-4.802768707275391,1.6328455209732056,5.1727294921875,-7.0953369140625,1.3885498046875
1.7737498999999999,8.250418663024902,-4.817133903503418,1.6376339197158813,5.06591796875,-6.9122314453125,1.617431640625
1.7762499,8.2312650680542,-4.829104900360107,1.6352397203445435,5.18798828125,-7.232666015625,1.678466796875
1.7787499,8.216899871826172,-4.841075897216797,1.6304513216018677,5.157470703125,-7.476806640625,2.044677734375
1.7812499,8.197746276855469,-4.841075897216797,1.625662922859192,5.1422119140625,-7.293701171875,2.0294189453125
1.7837498999999999,8.190564155578613,-4.845864295959473,1.6136919260025024,5.279541015625,-7.354736328125,2.288818359375
1.7862499,8.180987358093262,-4.843470096588135,1.6041151285171509,5.3253173828125,-7.4005126953125,2.410888671875
1.7887499,8.178592681884766,-4.845864295959473,1.5897499322891235,5.2337646484375,-7.38525390625,2.50244140625
1.7912499,8.180987358093262,-4.845864295959473,1.5849615335464478,5.4473876953125,-7.3394775390625,2.5634765625
1.7937499,8.180987358093262,-4.845864295959473,1.580173134803772,5.645751953125,-7.293701171875,2.899169921875
1.7962498999999998,8.180987358093262,-4.843470096588135,1.580173134803772,5.5694580078125,-7.2479248046875,2.86865234375
1.7987499,8.17380428314209,-4.836287498474121,1.5849615335464478,5.5084228515625,-7.26318359375,3.1280517578125
1.8012499,8.166622161865234,-4.833893299102783,1.5921441316604614,5.584716796875,-7.110595703125,3.2501220703125
1.8037499,8.164227485656738,-4.831499099731445,1.5969325304031372,5.706787109375,-7.080078125,3.4942626953125
1.8062498999999999,8.166622161865234,-4.833893299102783,1.6041151285171509,5.8135986328125,-6.9732666015625,3.5552978515625
1.8087499,8.169015884399414,-4.843470096588135,1.6041151285171509,6.134033203125,-6.7138671875,3.8299560546875
1.8112499,8.17380428314209,-4.857835292816162,1.601720929145813,6.34765625,-6.561279296875,3.8299560546875
1.8137499,8.166622161865234,-4.867412090301514,1.6041151285171509,6.40869140625,-6.439208984375,3.7689208984375
1.8162498999999999,8.154650688171387,-4.876988887786865,1.599326729774475,6.40869140625,-6.34765625,4.0283203125
1.8187499,8.142680168151855,-4.879383087158203,1.601720929145813,6.561279296875,-6.2103271484375,4.150390625
1.8212499,8.130708694458008,-4.884171485900879,1.5969325304031372,6.622314453125,-6.0577392578125,4.241943359375
1.8237499,8.123526573181152,-4.884171485900879,1.5921441316604614,6.866455078125,-6.0882568359375,4.638671875
1.8262498999999999,8.11634349822998,-4.886565685272217,1.5873557329177856,7.0037841796875,-5.7830810546875,4.608154296875
1.8287499,8.1139497756958,-4.884171485900879,1.577778935432434,7.1868896484375,-5.5694580078125,4.7149658203125
1.8312499,8.101978302001953,-4.879383087158203,1.5682021379470825,7.4005126953125,-5.3253173828125,4.8828125
1.8337499,8.08282470703125,-4.869806289672852,1.5514427423477173,7.14111328125,-5.2490234375,5.18798828125
1.8362498999999999,8.058882713317871,-4.850652694702148,1.53707754611969,7.2479248046875,-4.9896240234375,5.2490234375
1.8387499,8.030152320861816,-4.831499099731445,1.522712230682373,7.38525390625,-5.06591796875,5.31005859375
1.8412499,8.001421928405762,-4.81473970413208,1.5083470344543457,7.2021484375,-4.791259765625,5.31005859375
1.8437499,7.982268333435059,-4.797980308532715,1.4939818382263184,7.354736328125,-4.82177734375,5.4168701171875
1.8462498999999999,7.965508937835693,-4.788403511047363,1.482010841369629,7.3394775390625,-4.425048828125,5.6304931640625
1.8487499,7.955932140350342,-4.76924991607666,1.4724340438842773,7.171630859375,-4.33349609375,5.5694580078125
1.8512499,7.939172744750977,-4.752490520477295,1.4652514457702637,7.01904296875,-4.45556640625,5.55419921875
1.8537499,7.9176249504089355,-4.726154327392578,1.45806884765625,6.927490234375,-4.364013671875,5.67626953125
1.8562499,7.888894557952881,-4.709394931793213,1.4532804489135742,6.9732666015625,-4.3487548828125,5.9356689453125
1.8587498999999998,7.862558364868164,-4.697423934936523,1.4460978507995605,6.9580078125,-4.2572021484375,6.1492919921875
1.8612499,7.836222171783447,-4.697423934936523,1.4389152526855469,6.866455078125,-3.9825439453125,6.317138671875
1.8637499,7.814674377441406,-4.704606533050537,1.4317326545715332,6.3018798828125,-3.7994384765625,6.53076171875
1.8662499,7.797914981842041,-4.714183330535889,1.4293384552001953,6.1187744140625,-3.692626953125,6.7901611328125
1.8687498999999999,7.785943984985352,-4.716577529907227,1.4221558570861816,6.072998046875,-3.4942626953125,7.293701171875
1.8712499,7.766790390014648,-4.711789131164551,1.4197616577148438,5.9661865234375,-3.3721923828125,7.4615478515625
1.8737499,7.745242595672607,-4.699818134307861,1.400607943534851,5.615234375,-3.2958984375,7.6446533203125
1.8762499,7.7213006019592285,-4.680664539337158,1.3742717504501343,5.5084228515625,-3.11279296875,7.7972412109375
1.8787498999999999,7.702147006988525,-4.666299343109131,1.3503297567367554,5.462646484375,-2.899169921875,8.2244873046875
1.8812499,7.6782050132751465,-4.649539470672607,1.3096283674240112,4.8980712890625,-2.685546875,8.9569091796875
1.8837499,7.671022415161133,-4.654327869415283,1.3096283674240112,5.06591796875,-2.5177001953125,9.521484375
1.8862499,7.659051418304443,-4.663905143737793,1.314416766166687,5.18798828125,-2.227783203125,9.9639892578125
1.8887498999999999,7.63989782333374,-4.671087741851807,1.3287819623947144,5.096435546875,-1.861572265625,10.2386474609375
1.8912499,7.615955829620361,-4.685452938079834,1.3407529592514038,5.0811767578125,-1.8463134765625,10.6658935546875
1.8937499,7.587224960327148,-4.687847137451172,1.3503297567367554,5.55419921875,-1.77001953125,11.3067626953125
1.8962499,7.553706169128418,-4.697423934936523,1.357512354850769,5.4779052734375,-1.52587890625,11.90185546875
1.8987498999999999,7.522581577301025,-4.699818134307861,1.3623007535934448,5.615234375,-1.373291015625,12.3138427734375
1.9012499,7.486668586730957,-4.702212333679199,1.3646949529647827,5.67626953125,-1.129150390625,12.9241943359375
1.9037499,7.450755596160889,-4.697423934936523,1.3670891523361206,5.92041015625,-1.0833740234375,13.5650634765625
1.9062499,7.419631004333496,-4.687847137451172,1.3718775510787964,6.378173828125,-0.9002685546875,14.5721435546875
1.9087498999999999,7.402871608734131,-4.683058738708496,1.37906014919281,6.500244140625,-0.640869140625,15.2130126953125
1.9112499,7.386112213134766,-4.67827033996582,1.3862427473068237,6.8206787109375,-0.1373291015625,15.9149169921875
1.9137499,7.371747016906738,-4.671087741851807,1.3886369466781616,7.4462890625,-0.0152587890625,16.5557861328125
1.9162499,7.347805023193359,-4.656722068786621,1.3910311460494995,7.7972412109375,0.5645751953125,17.39501953125
1.9187499,7.309497833251953,-4.632780075073242,1.3862427473068237,7.9193115234375,0.457763671875,18.2342529296875
1.9212498999999998,7.264008045196533,-4.60165548324585,1.3766659498214722,7.9193115234375,0.6256103515625,19.04296875
1.9237499,7.2113356590271,-4.563348293304443,1.3694833517074585,8.0718994140625,0.6866455078125,19.683837890625
1.9262499,7.16584587097168,-4.529829502105713,1.3551181554794312,8.6822509765625,0.701904296875,20.7672119140625
1.9287499,7.129932880401611,-4.51067590713501,1.335964560508728,9.063720703125,1.0528564453125,21.8658447265625
1.9312498999999999,7.108384609222412,-4.4939165115356445,1.314416766166687,9.3994140625,0.9307861328125,22.7508544921875
1.9337499,7.0988078117370605,-4.486733913421631,1.278503656387329,9.6588134765625,1.2054443359375,23.6053466796875
1.9362499,7.096413612365723,-4.467580318450928,1.2425906658172607,9.765625,1.5106201171875,24.505615234375
1.9387499,7.101202011108398,-4.446032524108887,1.2018892765045166,10.040283203125,1.6632080078125,25.32958984375
1.9412498999999999,7.101202011108398,-4.4077253341674805,1.161187767982483,9.9334716796875,2.166748046875,26.3519287109375
1.9437499,7.091625213623047,-4.3622355461120605,1.1276689767837524,9.6893310546875,2.3040771484375,27.1148681640625
1.9462499,7.070077419281006,-4.314351558685303,1.1013327836990356,9.4146728515625,2.0904541015625,28.0914306640625
1.9487499,7.041347026824951,-4.266467571258545,1.0773907899856567,9.21630859375,2.3040771484375,28.9459228515625
1.9512498999999999,7.015010833740234,-4.220977783203125,1.0630255937576294,8.7738037109375,2.3193359375,29.60205078125
1.9537499,7.005434036254883,-4.182670593261719,1.048660397529602,8.514404296875,2.62451171875,30.5633544921875
1.9562499,7.007828235626221,-4.144362926483154,1.0438719987869263,7.9345703125,3.0517578125,31.6162109375
1.9587499,7.005434036254883,-4.108449935913086,1.0319008827209473,7.32421875,3.4637451171875,32.53173828125
1.9612498999999999,7.000645637512207,-4.0749311447143555,1.0199298858642578,6.9732666015625,3.7994384765625,33.1878662109375
1.9637499,6.979097843170166,-4.039018154144287,1.0055646896362305,6.1798095703125,4.1961669921875,34.1033935546875
1.9662499,6.950367450714111,-4.017470359802246,0.9840168952941895,5.5084228515625,4.5013427734375,35.125732421875
1.9687499,6.931213855743408,-4.005499362945557,0.9696516990661621,4.6539306640625,4.7454833984375,35.8123779296875
1.9712498999999999,6.914454460144043,-4.010287761688232,0.9624691009521484,4.1961669921875,5.06591796875,36.712646484375
1.9737499,6.904877662658691,-4.02465295791626,0.9672574996948242,3.4027099609375,5.462646484375,38.0859375
1.9762499,6.89530086517334,-4.043806552886963,0.9744400978088379,2.7618408203125,5.6304931640625,38.9556884765625
1.9787499,6.888118267059326,-4.065354347229004,0.9888052940368652,2.0294189453125,6.1187744140625,39.947509765625
1.9812499,6.876147270202637,-4.091690540313721,0.993593692779541,1.46484375,6.5460205078125,41.015625
1.9837499,6.856993675231934,-4.1180267333984375,0.993593692779541,0.9613037109375,7.2784423828125,42.2821044921875
1.9862499,6.835445880889893,-4.132391929626465,0.9792284965515137,0.4730224609375,7.659912109375,43.426513671875
1.9887499,6.799532890319824,-4.1395745277404785,0.950498104095459,-0.30517578125,8.0108642578125,44.677734375
1.9912499,6.766014099121094,-4.1395745277404785,0.9193734526634216,-0.762939453125,8.3465576171875,45.9747314453125
1.9937498999999999,6.732495307922363,-4.14915132522583,0.8810662031173706,-1.251220703125,8.6212158203125,47.271728515625
1.9962499,6.694188117980957,-4.1611223220825195,0.8475474119186401,-1.89208984375,8.7738037109375,48.7060546875
1.9987499,6.655880928039551,-4.175487995147705,0.8164227604866028,-2.62451171875,9.3536376953125,50.10986328125
2.0012499,6.610390663146973,-4.197035789489746,0.7805097699165344,-3.0517578125,9.7503662109375,51.4373779296875
2.0037499,6.557718276977539,-4.2090067863464355,0.7469909191131592,-3.72314453125,10.223388671875,52.947998046875
2.0062499,6.50025749206543,-4.223371982574463,0.7158663272857666,-4.425048828125,10.406494140625,54.3060302734375
2.0087498999999998,6.435614109039307,-4.225766181945801,0.6871358752250671,-4.6539306640625,10.833740234375,55.8013916015625
2.0112499,6.375759124755859,-4.2329487800598145,0.6607996821403503,-5.5084228515625,11.2457275390625,57.2967529296875
2.0137499,6.301538944244385,-4.228160381317139,0.6200982332229614,-6.2255859375,11.383056640625,58.624267578125
2.0162499,6.229712963104248,-4.23773717880249,0.5746083855628967,-7.049560546875,11.7340087890625,60.2569580078125
2.0187499,6.145915985107422,-4.240131378173828,0.5051765441894531,-8.026123046875,12.176513671875,61.8133544921875
2.0212499,6.0621185302734375,-4.266467571258545,0.43335050344467163,-9.002685546875,12.26806640625,63.1866455078125
2.0237499,5.975927352905273,-4.280832767486572,0.3447650372982025,-9.8724365234375,12.6495361328125,64.6209716796875
2.0262499,5.904101371765137,-4.316745758056641,0.26815059781074524,-11.1541748046875,12.786865234375,66.10107421875
2.0287498999999998,5.829881191253662,-4.335899353027344,0.18914192914962769,-12.4359130859375,13.0157470703125,67.5506591796875
2.0312499,5.762843608856201,-4.347870349884033,0.13168109953403473,-13.9617919921875,13.1988525390625,68.9544677734375
2.0337499,5.69580602645874,-4.355052947998047,0.08140286058187485,-15.7623291015625,13.3514404296875,70.37353515625
2.0362499,5.633556365966797,-4.355052947998047,0.031124621629714966,-17.5323486328125,13.580322265625,71.685791015625
2.0387499,5.57370138168335,-4.364629745483398,-0.009576806798577309,-19.47021484375,14.068603515625,72.7996826171875
2.0412499,5.506663799285889,-4.378994941711426,-0.06464344263076782,-21.42333984375,14.312744140625,74.03564453125
2.0437499,5.4444146156311035,-4.405331134796143,-0.1149216815829277,-23.4375,14.5111083984375,75.2716064453125
2.0462499,5.3797712326049805,-4.446032524108887,-0.15562310814857483,-25.482177734375,14.58740234375,76.2481689453125
2.0487499,5.315127849578857,-4.4939165115356445,-0.19632454216480255,-27.740478515625,14.8162841796875,77.5146484375
2.0512498999999997,5.260061264038086,-4.558559894561768,-0.22026655077934265,-30.0140380859375,14.9993896484375,78.5064697265625
2.0537499,5.214571475982666,-4.630385875701904,-0.24420857429504395,-32.04345703125,15.0604248046875,79.5440673828125
2.0562499,5.185841083526611,-4.704606533050537,-0.2753331959247589,-34.1644287109375,15.411376953125,80.718994140625
2.0587499,5.16429328918457,-4.795586109161377,-0.31364041566848755,-36.4532470703125,15.4571533203125,81.8023681640625
2.0612499,5.154716491699219,-4.881777286529541,-0.35673606395721436,-38.421630859375,15.80810546875,82.82470703125
2.0637499,5.137956619262695,-4.975151062011719,-0.40222588181495667,-40.4205322265625,16.265869140625,83.831787109375
2.0662499,5.125985622406006,-5.061342239379883,-0.4405331015586853,-42.6177978515625,16.3726806640625,85.02197265625
2.0687499,5.104437828063965,-5.140350818634033,-0.4692635238170624,-44.61669921875,16.6473388671875,86.1358642578125
2.0712498999999998,5.080495834350586,-5.212177276611328,-0.49320554733276367,-46.8292236328125,16.7694091796875,87.1124267578125
2.0737499,5.051765441894531,-5.284003257751465,-0.507570743560791,-49.1485595703125,17.02880859375,87.921142578125
2.0762499,5.032611846923828,-5.365406036376953,-0.5171475410461426,-51.239013671875,17.5323486328125,88.9739990234375
2.0787499,5.013458251953125,-5.451597213745117,-0.5219359993934631,-53.2379150390625,17.9901123046875,90.27099609375
2.0812499,5.006275653839111,-5.5545477867126465,-0.524330198764801,-55.450439453125,18.157958984375,91.3543701171875
2.0837499,4.99669885635376,-5.655104637145996,-0.5363011956214905,-57.1441650390625,18.5546875,92.1478271484375
2.0862499,4.9799394607543945,-5.760449409484863,-0.5434837937355042,-59.326171875,19.134521484375,93.20068359375
2.0887499,4.960785865783691,-5.8657941818237305,-0.5650315880775452,-61.1724853515625,19.3939208984375,94.329833984375
2.0912498999999998,4.934449672698975,-5.954379558563232,-0.5961562395095825,-62.68310546875,19.6685791015625,95.611572265625
2.0937499,4.879383087158203,-6.13633918762207,-0.6871358752250671,-66.1468505859375,20.4010009765625,97.59521484375
2.0962499,4.853046894073486,-6.236895561218262,-0.7350199222564697,-67.9779052734375,20.7672119140625,98.602294921875
2.0987499,4.833893299102783,-6.3518171310424805,-0.768538773059845,-69.610595703125,21.148681640625,99.639892578125
2.1012499,4.819528102874756,-6.476315498352051,-0.7948749661445618,-71.044921875,21.30126953125,100.7843017578125
2.1037499,4.812345504760742,-6.6127848625183105,-0.7996633648872375,-72.174072265625,21.575927734375,101.9287109375
2.1062499,4.819528102874756,-6.744466304779053,-0.8020575642585754,-73.5626220703125,22.064208984375,102.96630859375
2.1087499,4.817133903503418,-6.876147270202637,-0.7948749661445618,-74.5849609375,22.6287841796875,104.248046875
2.1112499,4.819528102874756,-7.000645637512207,-0.790086567401886,-75.6072998046875,22.88818359375,105.316162109375
2.1137498999999997,4.8051629066467285,-7.127538681030273,-0.7924807667732239,-76.4923095703125,23.162841796875,106.4605712890625
2.1162499,4.774038314819336,-7.247248649597168,-0.811634361743927,-77.08740234375,23.590087890625,107.97119140625
2.1187499,4.733336925506592,-7.374141216278076,-0.8451532125473022,-77.7435302734375,23.956298828125,109.19189453125
2.1212499,4.687847137451172,-7.493851184844971,-0.9002198576927185,-78.3233642578125,24.169921875,110.382080078125
2.1237499,4.644751071929932,-7.60637903213501,-0.9672574996948242,-78.8116455078125,24.169921875,111.63330078125
2.1262499,4.606443881988525,-7.714118003845215,-1.039083480834961,-79.3914794921875,24.4598388671875,112.7471923828125
2.1287499,4.5825018882751465,-7.82185697555542,-1.1061211824417114,-79.9407958984375,24.4903564453125,114.3035888671875
2.1312499,4.55616569519043,-7.927201747894287,-1.1755530834197998,-80.4595947265625,24.627685546875,115.753173828125
2.1337498999999998,4.551377296447754,-8.04691219329834,-1.237802267074585,-80.62744140625,24.7039794921875,117.0501708984375
2.1362499,4.553771495819092,-8.157045364379883,-1.3048399686813354,-81.1767578125,24.6734619140625,118.499755859375
2.1387499,4.580107688903809,-8.269572257995605,-1.3670891523361206,-82.03125,24.871826171875,119.5831298828125
2.1412499,4.606443881988525,-8.358158111572266,-1.436521053314209,-82.5042724609375,24.9786376953125,121.1395263671875
2.1437499,4.642356872558594,-8.434772491455078,-1.5059528350830078,-82.855224609375,25.2532958984375,122.589111328125
2.1462499,4.661510944366455,-8.494627952575684,-1.5753847360610962,-83.465576171875,25.390625,123.59619140625
2.1487499,4.67827033996582,-8.547300338745117,-1.6376339197158813,-84.3505859375,25.2838134765625,124.481201171875
2.1512499,4.67827033996582,-8.60236644744873,-1.6903064250946045,-84.9456787109375,25.0396728515625,125.518798828125
2.1537498999999998,4.67827033996582,-8.662221908569336,-1.7334020137786865,-85.6170654296875,25.20751953125,126.6021728515625
2.1562499,4.67827033996582,-8.724471092224121,-1.7741034030914307,-86.36474609375,25.1922607421875,127.50244140625
2.1587499,4.687847137451172,-8.796297073364258,-1.8076223134994507,-87.2802734375,25.146484375,128.4942626953125
2.1612499,4.697423934936523,-8.865729331970215,-1.8483237028121948,-88.348388671875,25.20751953125,129.3182373046875
2.1637499,4.721365928649902,-8.947132110595703,-1.886630892753601,-89.447021484375,25.3143310546875,130.218505859375
2.1662499,4.754884719848633,-9.030928611755371,-1.9297266006469727,-90.2862548828125,25.4669189453125,131.2408447265625
2.1687499,4.8051629066467285,-9.121908187866211,-1.9776105880737305,-91.5069580078125,25.1922607421875,131.927490234375
2.1712499,4.862623691558838,-9.215282440185547,-2.0231003761291504,-92.7886962890625,25.390625,132.6141357421875
2.1737499,4.941632270812988,-9.308655738830566,-2.0638017654418945,-93.9483642578125,25.604248046875,133.4686279296875
2.1762499,5.015852451324463,-9.39245319366455,-2.1045033931732178,-95.3369140625,25.7415771484375,134.1400146484375
2.1787499,5.097255229949951,-9.48343276977539,-2.1356279850006104,-96.9085693359375,25.970458984375,134.735107421875
2.1812499,5.178658485412598,-9.579200744628906,-2.164358377456665,-98.663330078125,26.0162353515625,135.406494140625
2.1837499,5.250484466552734,-9.691728591918945,-2.190694570541382,-100.0823974609375,26.06201171875,136.04736328125
2.1862499,5.324704647064209,-9.806650161743164,-2.207453966140747,-101.4251708984375,26.1993408203125,136.810302734375
2.1887499,5.4013190269470215,-9.940725326538086,-2.2194249629974365,-103.240966796875,26.397705078125,137.4664306640625
2.1912499,5.468356609344482,-10.062829971313477,-2.2170307636260986,-105.0262451171875,26.611328125,138.0157470703125
2.1937499,5.5329999923706055,-10.18493366241455,-2.207453966140747,-106.8267822265625,26.9317626953125,138.4735107421875
2.1962498999999998,5.580883979797363,-10.295066833496094,-2.2026655673980713,-108.9019775390625,27.008056640625,139.09912109375
2.1987499,5.621585369110107,-10.407594680786133,-2.2026655673980713,-110.7177734375,27.1759033203125,139.70947265625
2.2012499,5.6455278396606445,-10.508151054382324,-2.2146365642547607,-112.518310546875,27.6031494140625,140.19775390625
2.2037499,5.66228723526001,-10.60152530670166,-2.231395959854126,-114.288330078125,27.9083251953125,140.4266357421875
2.2062499,5.681440830230713,-10.697293281555176,-2.2601263523101807,-116.1041259765625,28.0303955078125,140.9759521484375
2.2087499,5.698200225830078,-10.790667533874512,-2.296039342880249,-118.255615234375,28.167724609375,141.29638671875
2.2112499,5.729324817657471,-10.893617630004883,-2.3295583724975586,-119.873046875,28.25927734375,141.5863037109375
2.2137499,5.774814605712891,-11.010933876037598,-2.360682964324951,-121.8719482421875,28.411865234375,141.7694091796875
2.2162498999999998,5.829881191253662,-11.142614364624023,-2.3726539611816406,-123.71826171875,28.594970703125,142.1356201171875
2.2187499,5.899312973022461,-11.286267280578613,-2.363077163696289,-125.3814697265625,28.656005859375,142.6239013671875
2.2212499,5.975927352905273,-11.441889762878418,-2.3343467712402344,-127.13623046875,28.99169921875,142.974853515625
2.2237499,6.064512729644775,-11.60948371887207,-2.2912509441375732,-128.9825439453125,29.1900634765625,143.2952880859375
2.2262499,6.150704383850098,-11.772290229797363,-2.2457611560821533,-130.5694580078125,29.4036865234375,143.524169921875
2.2287499,6.2201361656188965,-11.93509578704834,-2.2026655673980713,-132.0648193359375,29.9530029296875,143.9361572265625
2.2312499,6.2632317543029785,-12.090718269348145,-2.164358377456665,-133.36181640625,30.1513671875,144.3328857421875
2.2337499,6.2847795486450195,-12.231976509094238,-2.1356279850006104,-134.46044921875,30.1513671875,144.4244384765625
2.2362499,6.294356346130371,-12.351686477661133,-2.118868589401245,-135.498046875,29.937744140625,144.5159912109375
2.2387499,6.313509941101074,-12.445060729980469,-2.1164743900299072,-136.71875,29.876708984375,144.8516845703125
2.2412499,6.349422931671143,-12.51449203491211,-2.123656988143921,-138.0462646484375,30.303955078125,145.0347900390625
2.2437499,6.3949127197265625,-12.564770698547363,-2.142810583114624,-139.16015625,30.2886962890625,145.111083984375
2.2462499,6.452373504638672,-12.617443084716797,-2.1715409755706787,-140.350341796875,30.09033203125,145.3094482421875
2.2487499,6.521805286407471,-12.679692268371582,-2.2002713680267334,-141.6473388671875,29.9072265625,145.2789306640625
2.2512499,6.600813865661621,-12.765883445739746,-2.2385785579681396,-143.49365234375,29.8309326171875,145.660400390625
2.2537499,6.691793918609619,-12.876016616821289,-2.274491548538208,-145.08056640625,29.9835205078125,145.7672119140625
2.2562499,6.787561893463135,-13.017274856567383,-2.3080103397369385,-146.575927734375,30.0140380859375,145.751953125
2.2587498999999998,6.871358871459961,-13.170503616333008,-2.3271639347076416,-147.8271484375,30.1666259765625,145.782470703125
2.2612499,6.9455790519714355,-13.316550254821777,-2.3367409706115723,-148.98681640625,29.9072265625,145.416259765625
2.2637499,7.000645637512207,-13.453019142150879,-2.3319525718688965,-150.4974365234375,29.693603515625,145.172119140625
2.2662499,7.038952827453613,-13.548787117004395,-2.3127987384796143,-152.2979736328125,29.5562744140625,144.59228515625
2.2687499,7.067683219909668,-13.627796173095703,-2.2816741466522217,-153.6712646484375,28.9764404296875,144.1497802734375
2.2712499,7.086836814880371,-13.694833755493164,-2.229001760482788,-155.4412841796875,28.3050537109375,143.5394287109375
2.2737499,7.122750282287598,-13.764266014099121,-2.185906171798706,-156.9366455078125,27.6336669921875,142.51708984375
2.2762499,7.16584587097168,-13.828908920288086,-2.145204782485962,-158.203125,26.9775390625,141.632080078125
2.2787498999999998,7.240066051483154,-13.917494773864746,-2.118868589401245,-160.1409912109375,26.2298583984375,140.472412109375
2.2812499,7.328651428222656,-14.00607967376709,-2.118868589401245,-161.6668701171875,25.7415771484375,139.3585205078125
2.2837499,7.429207801818848,-14.118607521057129,-2.123656988143921,-163.177490234375,25.2838134765625,137.9852294921875
2.2862499,7.532158374786377,-14.250288963317871,-2.1356279850006104,-164.886474609375,24.658203125,136.6424560546875
2.2887499,7.623138427734375,-14.396334648132324,-2.1308395862579346,-166.5802001953125,24.10888671875,135.284423828125
2.2912499,7.706935405731201,-14.5591402053833,-2.1164743900299072,-168.76220703125,23.74267578125,133.8348388671875
2.2937499,7.781155586242676,-14.717158317565918,-2.0901381969451904,-170.0286865234375,22.7813720703125,132.415771484375
2.2962499,7.860164165496826,-14.88714599609375,-2.0661959648132324,-171.56982421875,22.003173828125,130.828857421875
2.2987499,7.943961143493652,-15.047557830810547,-2.051830768585205,-172.9888916015625,21.453857421875,128.9520263671875
2.3012499,8.039729118347168,-15.210363388061523,-2.0422539710998535,-174.13330078125,20.843505859375,127.0599365234375
2.3037499,8.250418663024902,-15.51921558380127,-2.049436569213867,-176.0711669921875,19.195556640625,122.894287109375
2.3062499,8.372523307800293,-15.672444343566895,-2.051830768585205,-177.1392822265625,18.3868408203125,120.7275390625
2.3087499,8.492233276367188,-15.811307907104492,-2.054224967956543,-177.8717041015625,17.486572265625,118.65234375
2.3112499,8.628703117370605,-15.962142944335938,-2.049436569213867,-178.64990234375,16.4794921875,116.5313720703125
2.3137499,8.78432559967041,-16.11058235168457,-2.0470423698425293,-179.3670654296875,15.2435302734375,114.166259765625
2.3162499,8.973467826843262,-16.270994186401367,-2.0398597717285156,-179.8553466796875,14.190673828125,111.7401123046875
2.3187499,9.21288776397705,-16.448165893554688,-2.030282974243164,-180.3741455078125,13.092041015625,109.466552734375
2.3212498999999998,9.488221168518066,-16.634912490844727,-2.0254945755004883,-180.816650390625,12.1917724609375,106.8267822265625
2.3237499,9.794678688049316,-16.836027145385742,-2.011129379272461,-180.877685546875,11.4593505859375,103.9886474609375
2.3262499,10.103530883789062,-17.049110412597656,-2.0039467811584473,-180.5419921875,10.4522705078125,100.9063720703125
2.3287499,10.398017883300781,-17.25501251220703,-1.9800047874450684,-180.23681640625,9.2620849609375,97.747802734375
2.3312499,10.687716484069824,-17.4537296295166,-1.941697597503662,-179.87060546875,7.7056884765625,94.5892333984375
2.3337499,10.970232009887695,-17.630901336669922,-1.8938134908676147,-179.4891357421875,6.0882568359375,91.2628173828125
2.3362499,11.262324333190918,-17.774553298950195,-1.843535304069519,-179.19921875,4.94384765625,87.5701904296875
2.3387499,11.571176528930664,-17.899051666259766,-1.7932571172714233,-179.473876953125,3.5247802734375,83.9996337890625
2.3412498999999998,11.892000198364258,-18.013973236083984,-1.764526605606079,-179.9163818359375,2.38037109375,80.078125
2.3437499,12.234370231628418,-18.114530563354492,-1.7621324062347412,-179.5501708984375,0.9002685546875,76.2176513671875
2.3462499,12.586318016052246,-18.22945213317871,-1.7884687185287476,-179.4891357421875,-0.54931640625,71.9146728515625
2.3487499,12.950237274169922,-18.3324031829834,-1.8363527059555054,-179.7027587890625,-1.8463134765625,67.56591796875
2.3512499,13.326127052307129,-18.40901756286621,-1.886630892753601,-179.9468994140625,-3.448486328125,62.68310546875
2.3537499,13.709198951721191,-18.47365951538086,-1.9057846069335938,-180.694580078125,-4.913330078125,57.647705078125
2.3562499,14.113819122314453,-18.504785537719727,-1.8986018896102905,-181.5948486328125,-7.0953369140625,52.764892578125
2.3587499,14.520833015441895,-18.519149780273438,-1.8531121015548706,-182.403564453125,-9.033203125,47.18017578125
2.3612499,14.937424659729004,-18.521543502807617,-1.7741034030914307,-183.9599609375,-10.8489990234375,41.107177734375
2.3637499,15.358803749084473,-18.516756057739258,-1.6663644313812256,-184.9212646484375,-12.9241943359375,34.85107421875
2.3662499,15.780183792114258,-18.492813110351562,-1.5418659448623657,-185.7757568359375,-15.2435302734375,28.3966064453125
2.3687499,16.21832275390625,-18.47126579284668,-1.3910311460494995,-186.981201171875,-17.852783203125,21.8048095703125
2.3712499,16.673221588134766,-18.420988082885742,-1.2282254695892334,-188.9495849609375,-20.5535888671875,14.434814453125
2.3737499,17.1376953125,-18.380287170410156,-1.0199298858642578,-191.3909912109375,-23.3612060546875,7.171630859375
2.3762499,17.6141414642334,-18.34197998046875,-0.7661445140838623,-193.8629150390625,-26.0009765625,-0.1220703125
2.3787499,18.09537696838379,-18.34197998046875,-0.44771572947502136,-195.61767578125,-29.6173095703125,-7.9498291015625
2.3812499,18.610130310058594,-18.394651412963867,-0.06703764945268631,-197.021484375,-34.088134765625,-15.7470703125
2.3837498999999998,19.179950714111328,-18.47844886779785,0.3471592366695404,-198.699951171875,-38.4368896484375,-24.139404296875
2.3862499,19.831172943115234,-18.59337043762207,0.8044517636299133,-200.25634765625,-43.7164306640625,-32.470703125
2.3887499,20.58295249938965,-18.722658157348633,1.2952631711959839,-201.4617919921875,-49.62158203125,-40.924072265625
2.3912499,21.411346435546875,-18.83518409729004,1.8291701078414917,-202.0416259765625,-55.450439453125,-49.652099609375
2.3937499,22.29001808166504,-18.940528869628906,2.4372973442077637,-203.0792236328125,-61.6607666015625,-58.8531494140625
2.3962499,23.171083450317383,-19.02193260192871,3.0861260890960693,-204.0863037109375,-68.1915283203125,-67.9168701171875
2.3987499,24.04975700378418,-19.09375762939453,3.794809579849243,-204.620361328125,-74.8748779296875,-77.484130859375
2.4012499,24.897302627563477,-19.177555084228516,4.541800498962402,-205.4901123046875,-82.03125,-87.5244140625
2.4037498999999998,25.723302841186523,-19.25656509399414,5.351040840148926,-206.024169921875,-89.4317626953125,-97.7783203125
2.4062499,26.53733253479004,-19.37148666381836,6.265625953674316,-206.207275390625,-96.588134765625,-108.7188720703125
2.4087499,27.33938980102539,-19.50795555114746,7.304709434509277,-206.48193359375,-104.5074462890625,-120.1629638671875
2.4112499,28.12468719482422,-19.68991470336914,8.461109161376953,-205.9783935546875,-112.091064453125,-132.0648193359375
2.4137499,28.874073028564453,-19.934123992919922,9.785101890563965,-205.2459716796875,-119.6746826171875,-144.683837890625
2.4162499,29.565996170043945,-20.209457397460938,11.200075149536133,-203.55224609375,-127.2430419921875,-158.0047607421875
2.4187499,30.140605926513672,-20.53506851196289,12.72757625579834,-201.5380859375,-135.3912353515625,-171.478271484375
2.4212499,30.569168090820312,-20.870256423950195,14.283807754516602,-198.4710693359375,-143.61572265625,-185.6231689453125
2.4237499,30.825345993041992,-21.229387283325195,15.842432975769043,-195.159912109375,-151.947021484375,-200.25634765625
2.4262499,30.901962280273438,-21.607669830322266,17.31486701965332,-192.0623779296875,-160.6292724609375,-215.118408203125
2.4287499,30.75830841064453,-22.05538558959961,18.70350456237793,-188.1866455078125,-169.2352294921875,-230.6976318359375
2.4312499,30.418333053588867,-22.586898803710938,19.965248107910156,-183.6395263671875,-178.131103515625,-246.9482421875
2.4337499,29.882030487060547,-23.20460319519043,21.109676361083984,-177.4444580078125,-187.56103515625,-262.786865234375
2.4362499,29.180530548095703,-23.903709411621094,22.10805892944336,-170.3033447265625,-196.8994140625,-278.564453125
2.4387499,28.335376739501953,-24.636335372924805,22.97954750061035,-162.6434326171875,-206.4971923828125,-294.25048828125
2.4412499,27.382484436035156,-25.3905086517334,23.716962814331055,-154.3121337890625,-216.4764404296875,-309.7076416015625
2.4437499,26.333824157714844,-26.171018600463867,24.35621452331543,-146.026611328125,-227.081298828125,-324.6612548828125
2.4462498999999998,25.21333885192871,-26.958711624145508,24.894908905029297,-137.542724609375,-238.037109375,-339.019775390625
2.4487499,24.05693817138672,-27.744009017944336,25.371355056762695,-128.84521484375,-248.9166259765625,-352.9205322265625
2.4512499,22.838289260864258,-28.416780471801758,25.723302841186523,-118.7744140625,-260.1776123046875,-366.8365478515625
2.4537499,21.56696891784668,-28.955474853515625,26.05370330810547,-110.8856201171875,-270.355224609375,-378.936767578125
2.4562499,20.21903419494629,-29.269115447998047,26.278757095336914,-104.55322265625,-281.2957763671875,-390.6402587890625
2.4587499,18.813636779785156,-29.34812355041504,26.47987174987793,-99.7772216796875,-292.449951171875,-402.0538330078125
2.4612499,17.3603572845459,-29.237991333007812,26.60676383972168,-96.221923828125,-303.009033203125,-413.1317138671875
2.4637499,15.866374969482422,-28.960264205932617,26.645071029663086,-93.841552734375,-313.201904296875,-423.614501953125
2.4662498999999998,14.355633735656738,-28.584373474121094,26.578033447265625,-92.315673828125,-323.6846923828125,-433.4716796875
2.4687499,12.835315704345703,-28.148630142211914,26.408044815063477,-91.888427734375,-334.0606689453125,-442.81005859375
2.4712499,11.310209274291992,-27.7128849029541,26.1279239654541,-92.6055908203125,-343.963623046875,-451.7059326171875
2.4737499,9.780313491821289,-27.305870056152344,25.75921630859375,-94.1162109375,-353.9276123046875,-459.3048095703125
2.4762499,8.236053466796875,-26.953922271728516,25.28755760192871,-95.947265625,-363.4796142578125,-466.2628173828125
2.4787499,6.658275127410889,-26.642677307128906,24.72013282775879,-97.9766845703125,-373.0010986328125,-472.35107421875
2.4812499,5.061342239379883,-26.36973762512207,24.05215072631836,-100.8758544921875,-382.75146484375,-477.11181640625
2.4837499,3.4356794357299805,-26.07764434814453,23.247697830200195,-104.4769287109375,-391.998291015625,-480.9417724609375
2.4862499,1.8052281141281128,-25.74724578857422,22.34508514404297,-108.428955078125,-401.0162353515625,-483.3984375
2.4887499,0.19632454216480255,-25.34023094177246,21.308395385742188,-113.067626953125,-409.6527099609375,-484.80224609375
2.4912499,-1.37906014919281,-24.84463119506836,20.195091247558594,-118.499755859375,-417.724609375,-485.321044921875
2.4937499,-2.896984100341797,-24.274810791015625,19.005172729492188,-124.725341796875,-425.4150390625,-484.832763671875
2.4962499,-4.367023944854736,-23.63795280456543,17.769765853881836,-131.317138671875,-432.3883056640625,-483.1390380859375
2.4987499,-5.822698593139648,-22.962787628173828,16.484079360961914,-137.9241943359375,-438.7359619140625,-480.865478515625
2.5012499,-7.283161640167236,-22.24692153930664,15.176844596862793,-144.744873046875,-444.854736328125,-477.142333984375
2.5037499,-8.772355079650879,-21.504718780517578,13.82412052154541,-152.3590087890625,-450.2410888671875,-472.7325439453125
2.5062499,-10.285490036010742,-20.724210739135742,12.483367919921875,-159.4696044921875,-454.132080078125,-467.7276611328125
2.5087498999999998,-11.851298332214355,-19.893421173095703,11.164162635803223,-166.4276123046875,-456.48193359375,-461.8988037109375
2.5112499,-13.505691528320312,-19.01474952697754,9.947908401489258,-173.33984375,-456.72607421875,-455.2459716796875
2.5137499,-17.290924072265625,-17.111358642578125,7.972691535949707,-185.577392578125,-455.6121826171875,-438.9801025390625
2.5162499,-19.44091796875,-16.16325569152832,7.187393665313721,-191.192626953125,-452.8656005859375,-428.9703369140625
2.5187499,-21.696256637573242,-15.320496559143066,6.485892295837402,-195.556640625,-449.3255615234375,-417.724609375
2.5212499,-24.021024703979492,-14.592658996582031,5.705382823944092,-197.235107421875,-444.4427490234375,-405.1513671875
2.5237499,-26.290729522705078,-14.075511932373047,4.824316501617432,-198.1658935546875,-438.1561279296875,-390.5487060546875
2.5262499,-28.400020599365234,-13.656526565551758,3.6607344150543213,-196.868896484375,-430.9539794921875,-374.6490478515625
2.5287498999999998,-30.174123764038086,-13.345280647277832,2.22660756111145,-194.3359375,-421.3714599609375,-357.8338623046875
2.5312499,-31.47657012939453,-12.955025672912598,0.5147533416748047,-189.483642578125,-408.660888671875,-340.484619140625
2.5337499,-32.23313903808594,-12.416330337524414,-1.2210428714752197,-183.6090087890625,-393.2037353515625,-323.0133056640625
2.5362499,-32.51325988769531,-11.571176528930664,-2.8634653091430664,-176.361083984375,-375.0152587890625,-306.4422607421875
2.5387499,-32.45340347290039,-10.503362655639648,-4.098873138427734,-171.44775390625,-355.52978515625,-289.459228515625
2.5412499,-32.19722366333008,-9.248801231384277,-4.963180065155029,-164.825439453125,-335.3424072265625,-274.444580078125
2.5437499,-31.871612548828125,-7.982268333435059,-5.3582234382629395,-155.670166015625,-313.5986328125,-261.3525390625
2.5462499,-31.574731826782227,-6.806715488433838,-5.430049419403076,-145.8892822265625,-289.794921875,-249.1912841796875
2.5487499,-31.392772674560547,-5.719748020172119,-5.228936672210693,-133.026123046875,-265.228271484375,-237.7166748046875
2.5512499,-31.376012802124023,-4.774038314819336,-4.946420669555664,-120.3765869140625,-239.7613525390625,-227.11181640625
2.5537499,-31.502906799316406,-3.914519786834717,-4.8267107009887695,-106.781005859375,-212.982177734375,-217.4835205078125
2.5562499,-31.65613555908203,-3.1938650608062744,-5.013458251953125,-91.5679931640625,-184.5550537109375,-209.0301513671875
2.5587499,-31.644163131713867,-2.6024973392486572,-5.585672378540039,-76.5838623046875,-156.0211181640625,-201.507568359375
2.5612499,-31.332918167114258,-2.118868589401245,-6.387730121612549,-60.72998046875,-128.5552978515625,-194.122314453125
2.5637499,-30.63381004333496,-1.6903064250946045,-7.230489253997803,-44.189453125,-102.264404296875,-186.9964599609375
2.5662499,-29.575572967529297,-1.2545616626739502,-7.927201747894287,-27.52685546875,-76.5838623046875,-179.962158203125
2.5687499,-28.25636863708496,-0.7852981686592102,-8.413225173950195,-10.5133056640625,-51.1016845703125,-172.9583740234375
2.5712498999999998,-26.87012481689453,-0.29209262132644653,-8.75080680847168,6.0577392578125,-26.3214111328125,-165.6646728515625
2.5737499,-25.613170623779297,0.17477671802043915,-9.040505409240723,21.9879150390625,-2.3193359375,-157.5775146484375
2.5762499,-24.653095245361328,0.5746083855628967,-9.387664794921875,37.0635986328125,20.294189453125,-149.4293212890625
