# Time (seconds),Accel_X,Accel_Y,Accel_Z,Gyro_X,Gyro_Y,Gyro_Z
0.0012499,9.138668060302734,-3.6511576175689697,0.5913678407669067,3.7841796875,-0.946044921875,-9.918212890625
0.0037499,9.133879661560059,-3.670311212539673,0.5841852426528931,1.5106201171875,-1.1138916015625,-10.3302001953125
0.0062499,9.121908187866211,-3.711012601852417,0.5722141861915588,-0.2288818359375,-1.190185546875,-10.9710693359375
0.0087499,9.119514465332031,-3.7445313930511475,0.5722141861915588,-2.1820068359375,-1.373291015625,-11.23046875
0.0112499,9.117119789123535,-3.7900211811065674,0.5650315880775452,-4.2572021484375,-1.2054443359375,-11.3983154296875
0.0137499,9.117119789123535,-3.8379054069519043,0.5722141861915588,-5.9814453125,-1.52587890625,-11.7034912109375
0.016249899999999998,9.10993766784668,-3.9025487899780273,0.5817909836769104,-7.598876953125,-1.800537109375,-11.90185546875
0.0187499,9.107542991638184,-3.9863457679748535,0.5985504388809204,-8.9569091796875,-1.77001953125,-11.8865966796875
0.021249900000000002,9.095572471618652,-4.0749311447143555,0.6224924325942993,-9.70458984375,-2.3651123046875,-11.9171142578125
0.023749899999999997,9.0859956741333,-4.242525577545166,0.6823474764823914,-10.955810546875,-3.11279296875,-11.71875
0.0262499,9.0859956741333,-4.2975921630859375,0.7158663272857666,-11.5203857421875,-3.5247802734375,-11.505126953125
0.028749900000000002,9.095572471618652,-4.335899353027344,0.7541735172271729,-11.871337890625,-4.1046142578125,-11.29150390625
0.031249899999999997,9.10993766784668,-4.357447147369385,0.7924807667732239,-12.0697021484375,-4.2724609375,-11.322021484375
0.0337499,9.124302864074707,-4.381389141082764,0.8331822156906128,-12.1612548828125,-4.7607421875,-11.1541748046875
0.0362499,9.131484985351562,-4.398148536682129,0.8762778043746948,-12.176513671875,-5.2947998046875,-10.9405517578125
0.0387499,9.141061782836914,-4.412513732910156,0.9217676520347595,-11.688232421875,-5.5389404296875,-10.650634765625
0.0412499,9.14345645904541,-4.4292731285095215,0.9624691009521484,-11.5203857421875,-6.2255859375,-10.528564453125
0.0437499,9.150638580322266,-4.436455726623535,0.9959878921508789,-11.0931396484375,-6.500244140625,-10.4827880859375
0.0462499,9.157821655273438,-4.4508209228515625,1.0199298858642578,-10.7879638671875,-6.866455078125,-10.3759765625
0.0487499,9.17697525024414,-4.462791919708252,1.036689281463623,-9.9945068359375,-7.4462890625,-9.979248046875
0.0512499,9.198522567749023,-4.474762916564941,1.048660397529602,-9.5977783203125,-7.6141357421875,-9.82666015625
0.053749899999999996,9.224859237670898,-4.486733913421631,1.0558429956436157,-8.880615234375,-8.1634521484375,-9.82666015625
0.0562499,9.258378028869629,-4.491522312164307,1.0654197931289673,-8.2550048828125,-8.4381103515625,-9.6435546875
0.0587499,9.294290542602539,-4.505887508392334,1.0749965906143188,-7.9345703125,-8.7738037109375,-9.5977783203125
0.061249899999999996,9.330204010009766,-4.517858505249023,1.0965443849563599,-7.232666015625,-8.9569091796875,-9.5672607421875
0.0637499,9.361329078674316,-4.534617900848389,1.1204863786697388,-6.4544677734375,-9.063720703125,-9.2926025390625
0.0662499,9.39245319366455,-4.546588897705078,1.1540051698684692,-5.9967041015625,-9.1552734375,-9.307861328125
0.0687499,9.411606788635254,-4.553771495819092,1.1827356815338135,-5.5389404296875,-9.307861328125,-9.09423828125
0.0712499,9.425971984863281,-4.54419469833374,1.2114660739898682,-5.0811767578125,-9.307861328125,-9.0484619140625
0.0737499,9.433155059814453,-4.517858505249023,1.2258312702178955,-4.6844482421875,-9.46044921875,-8.9111328125
0.0762499,9.428366661071777,-4.481945514678955,1.237802267074585,-4.45556640625,-9.613037109375,-8.6669921875
0.0787499,9.411606788635254,-4.426878929138184,1.235408067703247,-4.241943359375,-9.7198486328125,-8.4075927734375
0.0812499,9.387664794921875,-4.376600742340088,1.2258312702178955,-4.0435791015625,-9.5977783203125,-8.1787109375
0.0837499,9.354146003723145,-4.323928356170654,1.213860273361206,-4.0740966796875,-9.8419189453125,-8.1939697265625
0.0862499,9.32541561126709,-4.2760443687438965,1.1971008777618408,-4.08935546875,-10.0860595703125,-8.1329345703125
0.0887499,9.301473617553711,-4.230554580688477,1.1851298809051514,-3.814697265625,-10.1318359375,-8.087158203125
0.0912499,9.287108421325684,-4.189853191375732,1.1683704853057861,-3.814697265625,-9.82666015625,-8.1787109375
0.0937499,9.279925346374512,-4.1611223220825195,1.1563993692398071,-3.90625,-9.82666015625,-8.2244873046875
0.0962499,9.279925346374512,-4.134786128997803,1.1444283723831177,-3.9520263671875,-10.1165771484375,-8.087158203125
0.0987499,9.287108421325684,-4.113238334655762,1.139639973640442,-4.08935546875,-10.0555419921875,-8.0718994140625
0.1012499,9.296685218811035,-4.089296340942383,1.1420341730117798,-4.4097900390625,-10.101318359375,-7.843017578125
0.1037499,9.308655738830566,-4.0533833503723145,1.1635819673538208,-4.5928955078125,-9.9029541015625,-7.75146484375
0.1062499,9.320627212524414,-4.01268196105957,1.1827356815338135,-5.1422119140625,-9.674072265625,-7.7667236328125
0.1087499,9.32541561126709,-3.9671921730041504,1.2090718746185303,-5.7373046875,-9.27734375,-7.8125
0.1112499,9.320627212524414,-3.9169139862060547,1.2234370708465576,-6.1798095703125,-9.1552734375,-7.537841796875
0.1137499,9.299078941345215,-3.8738183975219727,1.237802267074585,-6.6986083984375,-9.1705322265625,-7.32421875
0.1162499,9.26795482635498,-3.8163576126098633,1.2521674633026123,-7.3394775390625,-8.8043212890625,-7.232666015625
0.1187499,9.23443603515625,-3.7612907886505127,1.2737152576446533,-8.1329345703125,-8.6212158203125,-7.171630859375
0.1212499,9.210494041442871,-3.7014358043670654,1.292868971824646,-8.636474609375,-8.4228515625,-7.3089599609375
0.1237499,9.196128845214844,-3.646369218826294,1.3024457693099976,-9.5062255859375,-8.2855224609375,-7.4920654296875
0.1262499,9.193734169006348,-3.598485231399536,1.3048399686813354,-10.1470947265625,-7.8887939453125,-7.7362060546875
0.1287499,9.191340446472168,-3.5649664402008057,1.292868971824646,-10.7879638671875,-7.7667236328125,-7.5225830078125
0.1312499,9.188945770263672,-3.536235809326172,1.2761094570159912,-11.5509033203125,-7.659912109375,-7.476806640625
0.1337499,9.186552047729492,-3.512293815612793,1.2497732639312744,-12.1002197265625,-7.5531005859375,-7.9193115234375
0.1362499,9.193734169006348,-3.488351821899414,1.2306196689605713,-12.6190185546875,-7.4462890625,-7.904052734375
0.1387499,9.210494041442871,-3.466804027557373,1.2114660739898682,-13.1072998046875,-7.5225830078125,-7.99560546875
0.1412499,9.229647636413574,-3.450044631958008,1.2042834758758545,-13.7481689453125,-7.1868896484375,-8.1329345703125
0.1437499,9.251194953918457,-3.4404678344726562,1.2018892765045166,-14.190673828125,-7.01904296875,-8.1024169921875
0.1462499,9.265560150146484,-3.445256233215332,1.1994950771331787,-14.556884765625,-6.805419921875,-8.1634521484375
0.1487499,9.275136947631836,-3.4548330307006836,1.194706678390503,-14.739990234375,-6.40869140625,-8.544921875
0.1512499,9.275136947631836,-3.469198226928711,1.1875240802764893,-15.19775390625,-6.256103515625,-8.4991455078125
0.1537499,9.265560150146484,-3.4763808250427246,1.173158884048462,-15.3045654296875,-5.9051513671875,-8.48388671875
0.1562499,9.246406555175781,-3.4811692237854004,1.158793568611145,-15.4876708984375,-5.6610107421875,-8.8348388671875
0.1587499,9.227252960205078,-3.4835634231567383,1.1444283723831177,-15.289306640625,-5.4931640625,-8.9111328125
0.1612499,9.210494041442871,-3.488351821899414,1.1252747774124146,-15.167236328125,-5.1727294921875,-8.9874267578125
0.1637499,9.21288776397705,-3.4979286193847656,1.1085153818130493,-15.2740478515625,-5.1116943359375,-9.3231201171875
0.1662499,9.229647636413574,-3.507505416870117,1.091755986213684,-14.9383544921875,-4.9591064453125,-9.6435546875
0.1687499,9.265560150146484,-3.5242648124694824,1.0773907899856567,-14.862060546875,-4.669189453125,-9.7808837890625
0.1712499,9.311050415039062,-3.5410242080688477,1.0630255937576294,-14.801025390625,-4.7607421875,-10.1318359375
0.1737499,9.354146003723145,-3.5649664402008057,1.0630255937576294,-14.801025390625,-4.5928955078125,-10.284423828125
0.17624990000000001,9.397241592407227,-3.5889084339141846,1.072602391242981,-14.2059326171875,-4.7149658203125,-10.3302001953125
0.1787499,9.428366661071777,-3.6080620288848877,1.0893617868423462,-13.5650634765625,-4.7760009765625,-10.0860595703125
0.1812499,9.44991397857666,-3.6296098232269287,1.1109095811843872,-13.458251953125,-4.7149658203125,-10.43701171875
0.1837499,9.459490776062012,-3.648763418197632,1.1276689767837524,-13.1378173828125,-4.302978515625,-10.3607177734375
0.1862499,9.464279174804688,-3.665522813796997,1.1420341730117798,-12.725830078125,-4.1351318359375,-10.345458984375
0.1887499,9.454702377319336,-3.6750996112823486,1.1468225717544556,-12.1917724609375,-4.150390625,-10.5133056640625
0.1912499,9.445125579833984,-3.6774938106536865,1.1444283723831177,-12.0086669921875,-3.9520263671875,-10.25390625
0.1937499,9.423578262329102,-3.670311212539673,1.1324573755264282,-11.7645263671875,-3.6773681640625,-10.07080078125
0.1962499,9.399636268615723,-3.6535518169403076,1.1109095811843872,-11.627197265625,-3.631591796875,-9.9334716796875
0.1987499,9.370905876159668,-3.6367924213409424,1.0797849893569946,-11.3983154296875,-3.60107421875,-9.9945068359375
0.2012499,9.339780807495117,-3.622427225112915,1.0462661981582642,-11.2152099609375,-3.6163330078125,-9.82666015625
0.2037499,9.306262016296387,-3.6152446269989014,1.01753568649292,-10.8642578125,-3.509521484375,-9.613037109375
0.2062499,9.275136947631836,-3.6152446269989014,0.9911994934082031,-10.528564453125,-3.5858154296875,-9.5062255859375
0.20874990000000002,9.244012832641602,-3.620033025741577,0.9744400978088379,-10.4217529296875,-3.3416748046875,-9.21630859375
0.2112499,9.217676162719727,-3.620033025741577,0.9600749015808105,-10.31494140625,-3.326416015625,-8.97216796875
0.2137499,9.193734169006348,-3.627215623855591,0.9576807022094727,-10.284423828125,-3.2501220703125,-8.7127685546875
0.2162499,9.172186851501465,-3.627215623855591,0.9528923034667969,-10.2081298828125,-3.2501220703125,-8.453369140625
0.2187499,9.155426979064941,-3.6320040225982666,0.9481038451194763,-10.3302001953125,-3.35693359375,-8.3770751953125
0.2212499,9.138668060302734,-3.6343982219696045,0.9361328482627869,-10.040283203125,-3.35693359375,-8.3465576171875
0.2237499,9.121908187866211,-3.6367924213409424,0.9217676520347595,-9.857177734375,-3.4027099609375,-8.30078125
0.2262499,9.102754592895508,-3.6343982219696045,0.912190854549408,-9.9334716796875,-3.387451171875,-8.1939697265625
0.2287499,9.083600997924805,-3.6296098232269287,0.912190854549408,-9.7808837890625,-3.448486328125,-8.270263671875
0.2312499,9.038111686706543,-3.6104562282562256,0.9217676520347595,-9.8114013671875,-3.5552978515625,-8.2244873046875
0.2337499,9.016563415527344,-3.5936968326568604,0.933738648891449,-9.7198486328125,-3.570556640625,-7.99560546875
0.2362499,8.99740982055664,-3.5721490383148193,0.9457096457481384,-9.765625,-3.7841796875,-8.11767578125
0.23874990000000001,8.978256225585938,-3.5434184074401855,0.9528923034667969,-9.9029541015625,-3.7994384765625,-8.2855224609375
0.2412499,8.971074104309082,-3.5194764137268066,0.9600749015808105,-10.07080078125,-4.058837890625,-8.0413818359375
0.2437499,8.966285705566406,-3.507505416870117,0.9648633003234863,-10.3302001953125,-3.96728515625,-8.1634521484375
0.2462499,8.971074104309082,-3.507505416870117,0.9696516990661621,-10.5438232421875,-3.9825439453125,-8.270263671875
0.2487499,8.971074104309082,-3.5242648124694824,0.9792284965515137,-10.5133056640625,-4.1656494140625,-8.2855224609375
0.2512499,8.96389102935791,-3.5482068061828613,0.9888052940368652,-10.6048583984375,-4.1656494140625,-8.4686279296875
0.25374990000000003,8.947132110595703,-3.5745432376861572,0.9959878921508789,-10.650634765625,-4.2724609375,-8.4075927734375
0.25624990000000003,8.925583839416504,-3.5936968326568604,1.0079588890075684,-10.7421875,-4.4097900390625,-8.453369140625
0.25874990000000003,8.904036521911621,-3.603273630142212,1.015141487121582,-10.6353759765625,-4.486083984375,-8.453369140625
0.26124990000000003,8.892065048217773,-3.60566782951355,1.0247182846069336,-10.4827880859375,-4.730224609375,-8.544921875
0.26374990000000004,8.880094528198242,-3.60566782951355,1.0342950820922852,-10.6201171875,-4.69970703125,-8.6212158203125
0.26624990000000004,8.880094528198242,-3.598485231399536,1.036689281463623,-10.772705078125,-4.5928955078125,-8.5296630859375
0.26874990000000004,8.882488250732422,-3.598485231399536,1.039083480834961,-10.7574462890625,-4.5928955078125,-8.60595703125
0.27124990000000004,8.887276649475098,-3.5936968326568604,1.0342950820922852,-10.6048583984375,-4.7760009765625,-8.6517333984375
0.27374990000000005,8.892065048217773,-3.5889084339141846,1.0271124839782715,-10.7574462890625,-4.5928955078125,-8.7890625
0.27624990000000005,8.887276649475098,-3.5745432376861572,1.0127472877502441,-10.55908203125,-4.45556640625,-8.697509765625
0.27874990000000005,8.87291145324707,-3.5697548389434814,1.0007762908935547,-10.6964111328125,-4.5623779296875,-8.636474609375
0.28124990000000005,8.846575736999512,-3.555389642715454,0.9816226959228516,-10.6658935546875,-4.3487548828125,-9.063720703125
0.28374990000000005,8.81784439086914,-3.5458126068115234,0.9600749015808105,-10.467529296875,-4.45556640625,-9.246826171875
0.28624990000000006,8.789113998413086,-3.5458126068115234,0.950498104095459,-10.4522705078125,-4.5166015625,-9.3536376953125
0.28874990000000006,8.765172004699707,-3.5434184074401855,0.9433154463768005,-10.4522705078125,-4.7454833984375,-9.490966796875
0.2912499,8.746018409729004,-3.550601005554199,0.9481038451194763,-10.2996826171875,-4.6844482421875,-9.4757080078125
0.2937499,8.738836288452148,-3.56017804145813,0.9552865028381348,-10.2081298828125,-4.5623779296875,-9.857177734375
0.2962499,8.734047889709473,-3.581725835800171,0.9624691009521484,-10.1776123046875,-4.669189453125,-10.0555419921875
0.2987499,8.7268648147583,-3.600879430770874,0.9648633003234863,-10.1318359375,-4.730224609375,-10.25390625
0.3012499,8.719682693481445,-3.627215623855591,0.9648633003234863,-9.9945068359375,-4.9591064453125,-10.009765625
0.3037499,8.705317497253418,-3.6391866207122803,0.9528923034667969,-9.7808837890625,-4.94384765625,-10.07080078125
0.3062499,8.69095230102539,-3.6535518169403076,0.9385270476341248,-9.796142578125,-4.730224609375,-10.19287109375
0.3087499,8.681375503540039,-3.646369218826294,0.9169792532920837,-9.9639892578125,-4.6844482421875,-10.19287109375
0.3112499,8.664615631103516,-3.643975019454956,0.9002198576927185,-9.765625,-4.5928955078125,-10.1165771484375
0.3137499,8.645462036132812,-3.620033025741577,0.8810662031173706,-9.82666015625,-4.5928955078125,-10.162353515625
0.31624990000000003,8.631096839904785,-3.600879430770874,0.8667010068893433,-9.9334716796875,-4.5928955078125,-9.9945068359375
0.31874990000000003,8.611943244934082,-3.5865142345428467,0.849941611289978,-9.857177734375,-4.4097900390625,-9.9945068359375
0.32124990000000003,8.597578048706055,-3.5745432376861572,0.8355764150619507,-9.613037109375,-4.45556640625,-10.101318359375
0.32374990000000003,8.5903959274292,-3.5721490383148193,0.828393816947937,-9.490966796875,-4.5623779296875,-9.918212890625
0.32624990000000004,8.583212852478027,-3.5649664402008057,0.8068459630012512,-9.33837890625,-4.45556640625,-9.9639892578125
0.32874990000000004,8.578424453735352,-3.5649664402008057,0.7948749661445618,-9.3231201171875,-4.2572021484375,-10.0555419921875
0.33124990000000004,8.56884765625,-3.557783842086792,0.7709329724311829,-9.09423828125,-4.39453125,-9.796142578125
0.33374990000000004,8.56645393371582,-3.56017804145813,0.7541735172271729,-8.819580078125,-4.2877197265625,-9.5672607421875
0.33624990000000005,8.56645393371582,-3.56017804145813,0.7350199222564697,-8.5906982421875,-4.5166015625,-9.7198486328125
0.33874990000000005,8.571242332458496,-3.5649664402008057,0.7206547260284424,-8.5906982421875,-4.3487548828125,-9.3536376953125
0.34124990000000005,8.578424453735352,-3.5697548389434814,0.7110779285430908,-8.453369140625,-4.2877197265625,-9.307861328125
0.34374990000000005,8.5903959274292,-3.576937437057495,0.7038952708244324,-8.2855224609375,-4.2877197265625,-9.033203125
0.34624990000000005,8.604761123657227,-3.584120035171509,0.6991068720817566,-7.8125,-4.119873046875,-8.8043212890625
0.34874990000000006,8.62630844116211,-3.576937437057495,0.6919242739677429,-7.537841796875,-3.90625,-8.2855224609375
0.35124990000000006,8.652645111083984,-3.5649664402008057,0.6775590777397156,-7.5531005859375,-4.0283203125,-7.7972412109375
0.3537499,8.662221908569336,-3.5482068061828613,0.6512228846549988,-7.6751708984375,-3.8299560546875,-7.4310302734375
0.3562499,8.664615631103516,-3.5266590118408203,0.6272808313369751,-7.32421875,-3.7689208984375,-6.988525390625
0.3587499,8.667010307312012,-3.512293815612793,0.6009446382522583,-7.01904296875,-3.6773681640625,-6.500244140625
0.3612499,8.671798706054688,-3.4811692237854004,0.5841852426528931,-6.7291259765625,-3.6773681640625,-6.04248046875
0.3637499,8.683769226074219,-3.450044631958008,0.5746083855628967,-6.683349609375,-3.4637451171875,-5.462646484375
0.3662499,8.700529098510742,-3.4165258407592773,0.5722141861915588,-6.7596435546875,-3.509521484375,-4.974365234375
0.3687499,8.712499618530273,-3.383007049560547,0.5770025849342346,-6.683349609375,-3.3416748046875,-4.791259765625
0.3712499,8.729259490966797,-3.354276657104492,0.586579442024231,-6.7138671875,-3.448486328125,-4.4708251953125
0.3737499,8.7484130859375,-3.3279404640197754,0.5961562395095825,-6.5155029296875,-3.41796875,-3.997802734375
0.3762499,8.769960403442383,-3.3039982318878174,0.6033388376235962,-6.4849853515625,-3.082275390625,-3.7689208984375
0.37874990000000003,8.791508674621582,-3.2752678394317627,0.6033388376235962,-6.2408447265625,-2.960205078125,-3.6163330078125
0.38124990000000003,8.810662269592285,-3.2561142444610596,0.5961562395095825,-6.072998046875,-2.9754638671875,-3.2196044921875
0.38374990000000003,8.829815864562988,-3.2393548488616943,0.5793967843055725,-5.8135986328125,-3.0059814453125,-2.86865234375
0.38624990000000003,8.848969459533691,-3.227383852005005,0.5530605912208557,-5.889892578125,-2.7313232421875,-2.532958984375
0.38874990000000004,8.856152534484863,-3.2106244564056396,0.5267243981361389,-5.706787109375,-2.7008056640625,-1.89208984375
0.39124990000000004,8.868123054504395,-3.1914708614349365,0.4908113479614258,-5.5389404296875,-2.7008056640625,-1.3427734375
0.39374990000000004,8.87291145324707,-3.160346269607544,0.45250412821769714,-5.43212890625,-2.8839111328125,-1.15966796875
0.39624990000000004,8.877699851989746,-3.1268274784088135,0.4118026793003082,-5.7373046875,-2.62451171875,-0.79345703125
0.39874990000000005,8.884882926940918,-3.098097085952759,0.3711012601852417,-6.011962890625,-2.105712890625,-0.2593994140625
0.40124990000000005,8.880094528198242,-3.0861260890960693,0.33518823981285095,-6.1798095703125,-2.349853515625,0.091552734375
0.40374990000000005,8.868123054504395,-3.090914487838745,0.30885201692581177,-6.256103515625,-2.532958984375,0.5340576171875
0.40624990000000005,8.851364135742188,-3.112462282180786,0.2992752194404602,-6.2103271484375,-2.2735595703125,0.9918212890625
0.40874990000000005,8.83939266204834,-3.134010076522827,0.29209262132644653,-6.2408447265625,-2.349853515625,1.2054443359375
0.41124990000000006,8.834604263305664,-3.1483752727508545,0.2944868206977844,-6.1492919921875,-2.288818359375,1.5716552734375
0.41374990000000006,8.83939266204834,-3.155557870864868,0.304063618183136,-6.2255859375,-2.2430419921875,1.9378662109375
0.41624990000000006,8.848969459533691,-3.160346269607544,0.31364041566848755,-6.1798095703125,-1.953125,2.2735595703125
0.4187499,8.860940933227539,-3.162740468978882,0.3256114423274994,-6.2255859375,-1.861572265625,2.593994140625
0.4212499,8.87291145324707,-3.1699230670928955,0.3423708379268646,-6.1492919921875,-1.922607421875,3.1890869140625
0.4237499,8.880094528198242,-3.1747114658355713,0.35434186458587646,-6.1798095703125,-1.7242431640625,3.448486328125
0.4262499,8.89685344696045,-3.179499864578247,0.36152446269989014,-6.1798095703125,-1.739501953125,3.8604736328125
0.4287499,8.916007041931152,-3.177105665206909,0.363918662071228,-6.256103515625,-1.6021728515625,4.0283203125
0.4312499,8.935160636901855,-3.177105665206909,0.35673606395721436,-6.2103271484375,-1.312255859375,4.547119140625
0.4337499,8.956708908081055,-3.179499864578247,0.3495534360408783,-6.1798095703125,-0.9613037109375,4.9591064453125
0.4362499,8.971074104309082,-3.1890766620635986,0.33997663855552673,-6.134033203125,-0.7476806640625,5.096435546875
0.4387499,8.980650901794434,-3.205836057662964,0.33039984107017517,-6.195068359375,-0.732421875,5.279541015625
0.44124990000000003,8.992621421813965,-3.2632968425750732,0.3280056416988373,-5.9814453125,-0.274658203125,5.7220458984375
0.44374990000000003,9.002198219299316,-3.292027235031128,0.33758243918418884,-5.7373046875,-0.1678466796875,5.9814453125
0.44624990000000003,9.02135181427002,-3.313575267791748,0.35913026332855225,-5.7220458984375,0.091552734375,6.195068359375
0.44874990000000003,9.05247688293457,-3.3255462646484375,0.38067805767059326,-5.5999755859375,0.274658203125,6.65283203125
0.45124990000000004,9.090784072875977,-3.339911460876465,0.40940847992897034,-5.43212890625,0.30517578125,6.65283203125
0.45374990000000004,9.129091262817383,-3.3494882583618164,0.4381389021873474,-5.4931640625,0.823974609375,6.7901611328125
0.45624990000000004,9.167398452758789,-3.3710360527038574,0.4596867263317108,-5.2947998046875,1.03759765625,7.0648193359375
0.45874990000000004,9.193734169006348,-3.397372245788574,0.47405192255973816,-5.1727294921875,1.251220703125,7.2021484375
0.46124990000000005,9.217676162719727,-3.426102638244629,0.48602294921875,-4.82177734375,1.7242431640625,7.32421875
0.46374990000000005,9.229647636413574,-3.4620156288146973,0.49799394607543945,-4.547119140625,1.7852783203125,7.537841796875
0.46624990000000005,9.23443603515625,-3.4955344200134277,0.507570743560791,-4.08935546875,2.044677734375,7.7056884765625
0.46874990000000005,9.23682975769043,-3.531447410583496,0.5147533416748047,-3.7841796875,2.6397705078125,7.6141357421875
0.47124990000000005,9.229647636413574,-3.5697548389434814,0.524330198764801,-3.3111572265625,2.4871826171875,7.720947265625
0.47374990000000006,9.222464561462402,-3.6104562282562256,0.524330198764801,-2.899169921875,2.74658203125,7.843017578125
0.47624990000000006,9.208099365234375,-3.6511576175689697,0.5410895943641663,-2.4261474609375,3.0364990234375,8.148193359375
0.47874990000000006,9.191340446472168,-3.6966474056243896,0.5482721924781799,-1.861572265625,2.86865234375,8.1787109375
0.4812499,9.167398452758789,-3.7397429943084717,0.569819986820221,-1.251220703125,3.41796875,8.4381103515625
0.4837499,9.148244857788086,-3.7852327823638916,0.5817909836769104,-0.7476806640625,3.4942626953125,8.6822509765625
0.4862499,9.119514465332031,-3.821146011352539,0.5937620401382446,-0.06103515625,3.5400390625,8.819580078125
0.4887499,9.090784072875977,-3.8498764038085938,0.5985504388809204,0.518798828125,3.7841796875,8.9874267578125
0.4912499,9.057265281677246,-3.8714241981506348,0.608127236366272,1.03759765625,3.9825439453125,9.033203125
0.4937499,9.023746490478516,-3.88818359375,0.6153098344802856,1.64794921875,4.08935546875,9.124755859375
0.4962499,8.99740982055664,-3.9001545906066895,0.6200982332229614,2.2430419921875,4.150390625,9.21630859375
0.4987499,8.990227699279785,-3.909731388092041,0.6224924325942993,3.0059814453125,3.997802734375,9.429931640625
0.5012499,8.99740982055664,-3.909731388092041,0.6224924325942993,3.631591796875,4.3182373046875,9.2926025390625
0.5037499000000001,9.023746490478516,-3.912125587463379,0.6248866319656372,4.119873046875,3.997802734375,9.27734375
0.5062499,9.062053680419922,-3.909731388092041,0.6392518281936646,5.0506591796875,4.119873046875,9.1400146484375
0.5087499000000001,9.105149269104004,-3.9169139862060547,0.6560112833976746,5.859375,4.08935546875,8.8043212890625
0.5112499,9.14585018157959,-3.928884983062744,0.6799532771110535,6.5155029296875,4.241943359375,9.002685546875
0.5137499,9.174580574035645,-3.9456443786621094,0.7086837291717529,7.2479248046875,4.302978515625,9.002685546875
0.5162499,9.196128845214844,-3.9695863723754883,0.7326257228851318,7.8125,4.2266845703125,8.7432861328125
0.5187499,9.198522567749023,-3.995922565460205,0.7733271718025208,8.36181640625,4.1656494140625,8.6669921875
0.5212499,9.198522567749023,-4.022258758544922,0.7996633648872375,9.5062255859375,4.1656494140625,8.72802734375
0.5237499,9.193734169006348,-4.039018154144287,0.8259995579719543,9.9945068359375,4.0283203125,8.6212158203125
0.5262499,9.188945770263672,-4.041412353515625,0.8379706144332886,10.2691650390625,4.08935546875,8.5601806640625
0.5287499,9.188945770263672,-4.031835556030273,0.8403648138046265,10.7269287109375,4.0740966796875,8.6669921875
0.5312499,9.181763648986816,-4.019864559173584,0.8331822156906128,10.92529296875,4.1351318359375,8.60595703125
0.5337499,9.169792175292969,-4.015076160430908,0.828393816947937,11.3372802734375,4.1656494140625,8.4075927734375
0.5362499000000001,9.162610054016113,-4.010287761688232,0.8140285611152649,11.688232421875,3.9520263671875,8.5296630859375
0.5387499,9.155426979064941,-4.0078935623168945,0.8044517636299133,11.77978515625,3.814697265625,8.2855224609375
0.5412499000000001,9.148244857788086,-3.995922565460205,0.7924807667732239,12.14599609375,3.7384033203125,8.2550048828125
0.5437499,9.14345645904541,-3.97916316986084,0.790086567401886,12.3291015625,3.5858154296875,8.3160400390625
0.5462499000000001,9.129091262817383,-3.957615375518799,0.7924807667732239,12.2528076171875,3.570556640625,7.9193115234375
0.5487499,9.126696586608887,-3.936067581176758,0.8044517636299133,12.4359130859375,3.6163330078125,7.8125
0.5512499000000001,9.124302864074707,-3.914519786834717,0.8164227604866028,12.420654296875,3.631591796875,7.62939453125
0.5537499,9.126696586608887,-3.907337188720703,0.8403648138046265,12.451171875,3.5858154296875,7.537841796875
0.5562499000000001,9.126696586608887,-3.9001545906066895,0.8595184087753296,12.359619140625,3.4637451171875,7.2174072265625
0.5587499,9.129091262817383,-3.9001545906066895,0.8930372595787048,12.5885009765625,3.23486328125,6.7901611328125
0.5612499000000001,9.133879661560059,-3.890577793121338,0.9217676520347595,12.6800537109375,3.0059814453125,6.561279296875
0.5637499,9.136273384094238,-3.8762125968933105,0.9409212470054626,12.5732421875,3.1585693359375,6.2713623046875
0.5662499000000001,9.136273384094238,-3.864241600036621,0.9576807022094727,12.2222900390625,3.23486328125,5.9661865234375
0.5687499,9.126696586608887,-3.861847400665283,0.9624691009521484,12.237548828125,3.23486328125,5.9051513671875
0.5712499000000001,9.11233139038086,-3.8738183975219727,0.9672574996948242,12.1307373046875,2.7923583984375,5.523681640625
0.5737499,9.090784072875977,-3.892971992492676,0.9672574996948242,12.51220703125,2.685546875,5.126953125
0.5762499000000001,9.074024200439453,-3.909731388092041,0.9720458984375,12.2833251953125,2.716064453125,4.7149658203125
0.5787499,9.05487060546875,-3.9240965843200684,0.9696516990661621,12.0849609375,2.44140625,4.6844482421875
0.5812499,9.040505409240723,-3.931279182434082,0.9672574996948242,12.3748779296875,2.197265625,4.7454833984375
0.5837499,9.023746490478516,-3.9432501792907715,0.9768342971801758,12.451171875,1.8768310546875,4.425048828125
0.5862499,9.006986618041992,-3.955221176147461,0.9744400978088379,12.4359130859375,1.9073486328125,4.058837890625
0.5887499,9.002198219299316,-3.9671921730041504,0.9864110946655273,12.542724609375,1.64794921875,4.1046142578125
0.5912499,8.995016098022461,-3.9695863723754883,0.9816226959228516,12.451171875,1.46484375,4.08935546875
0.5937499,8.999804496765137,-3.957615375518799,0.9768342971801758,12.451171875,1.434326171875,3.8299560546875
0.5962499,8.995016098022461,-3.9432501792907715,0.9672574996948242,12.2222900390625,1.129150390625,3.5858154296875
0.5987499000000001,8.983044624328613,-3.928884983062744,0.9576807022094727,12.298583984375,0.7781982421875,3.5247802734375
0.6012499,8.96389102935791,-3.9264907836914062,0.9552865028381348,12.39013671875,0.640869140625,3.3111572265625
0.6037499000000001,8.949525833129883,-3.928884983062744,0.9600749015808105,12.4969482421875,0.3662109375,3.204345703125
0.6062499,8.932766914367676,-3.9240965843200684,0.9744400978088379,12.4664306640625,0.2288818359375,3.2501220703125
0.6087499000000001,8.925583839416504,-3.914519786834717,0.9959878921508789,12.3443603515625,0.030517578125,3.143310546875
0.6112499,8.916007041931152,-3.9001545906066895,1.0127472877502441,12.054443359375,-0.1983642578125,2.9144287109375
0.6137499000000001,8.9064302444458,-3.883395195007324,1.036689281463623,11.871337890625,-0.2899169921875,2.960205078125
0.6162499,8.904036521911621,-3.864241600036621,1.0558429956436157,11.9171142578125,-0.335693359375,2.9144287109375
0.6187499000000001,8.887276649475098,-3.861847400665283,1.0678139925003052,11.5966796875,-0.5645751953125,3.0059814453125
0.6212499,8.887276649475098,-3.847482204437256,1.0773907899856567,11.566162109375,-0.946044921875,2.8533935546875
0.6237499000000001,8.877699851989746,-3.845088005065918,1.0773907899856567,11.41357421875,-1.0986328125,2.655029296875
0.6262499,8.882488250732422,-3.825934410095215,1.072602391242981,11.0626220703125,-1.0528564453125,2.777099609375
0.6287499000000001,8.892065048217773,-3.8067808151245117,1.0606313943862915,10.4217529296875,-0.9918212890625,3.1280517578125
0.6312499,8.89685344696045,-3.7828385829925537,1.0462661981582642,9.8876953125,-1.220703125,3.0975341796875
0.6337499000000001,8.892065048217773,-3.7684733867645264,1.0295066833496094,9.552001953125,-1.251220703125,3.11279296875
0.6362499,8.87291145324707,-3.7612907886505127,1.015141487121582,9.124755859375,-1.3885498046875,3.204345703125
0.6387499000000001,8.853757858276367,-3.751713991165161,1.0031704902648926,8.7432861328125,-1.5411376953125,3.326416015625
0.6412499,8.834604263305664,-3.7421371936798096,0.9911994934082031,8.5296630859375,-1.40380859375,3.326416015625
0.6437499,8.820239067077637,-3.7277719974517822,0.9816226959228516,8.1939697265625,-1.6937255859375,3.60107421875
0.6462499,8.810662269592285,-3.711012601852417,0.9744400978088379,7.8887939453125,-1.739501953125,3.84521484375
0.6487499,8.80587387084961,-3.6966474056243896,0.9720458984375,7.01904296875,-1.8768310546875,4.2572021484375
0.6512499,8.810662269592285,-3.7014358043670654,0.9720458984375,6.7901611328125,-2.0751953125,4.364013671875
0.6537499,8.815450668334961,-3.711012601852417,0.9672574996948242,6.561279296875,-2.2430419921875,4.45556640625
0.6562499,8.81784439086914,-3.7229835987091064,0.9576807022094727,6.317138671875,-2.197265625,4.669189453125
0.6587499,8.81784439086914,-3.734954595565796,0.950498104095459,6.2713623046875,-2.227783203125,4.8370361328125
0.6612499000000001,8.810662269592285,-3.7421371936798096,0.9457096457481384,5.9661865234375,-2.2125244140625,5.0201416015625
0.6637499,8.796297073364258,-3.7445313930511475,0.9409212470054626,5.7373046875,-2.5634765625,5.2642822265625
0.6662499000000001,8.774748802185059,-3.751713991165161,0.9361328482627869,5.767822265625,-2.655029296875,5.6304931640625
0.6687499,8.755595207214355,-3.754108190536499,0.9265560507774353,6.0272216796875,-2.685546875,5.7830810546875
0.6712499000000001,8.7268648147583,-3.758896589279175,0.912190854549408,6.16455078125,-2.899169921875,6.1187744140625
0.6737499,8.702922821044922,-3.7612907886505127,0.8978256583213806,6.04248046875,-2.9144287109375,6.4697265625
0.6762499000000001,8.681375503540039,-3.7684733867645264,0.8810662031173706,5.9356689453125,-2.9449462890625,6.65283203125
0.6787499,8.65982723236084,-3.77565598487854,0.8667010068893433,5.9356689453125,-3.173828125,6.8817138671875
0.6812499000000001,8.640673637390137,-3.7876269817352295,0.849941611289978,6.1492919921875,-3.4637451171875,7.2021484375
0.6837499,8.62630844116211,-3.804386615753174,0.8355764150619507,6.40869140625,-3.90625,7.6751708984375
0.6862499000000001,8.609549522399902,-3.8163576126098633,0.8164227604866028,6.103515625,-3.8909912109375,7.904052734375
0.6887499,8.592789649963379,-3.8307228088378906,0.8020575642585754,6.2255859375,-4.1961669921875,8.30078125
0.6912499000000001,8.576030731201172,-3.84269380569458,0.7924807667732239,6.6070556640625,-4.3792724609375,8.6669921875
0.6937499,8.554482460021973,-3.8498764038085938,0.7876923680305481,6.7138671875,-4.45556640625,8.8958740234375
0.6962499000000001,8.53532886505127,-3.8498764038085938,0.790086567401886,6.6070556640625,-4.4403076171875,9.246826171875
0.6987499,8.518569946289062,-3.847482204437256,0.7972691655158997,7.080078125,-4.608154296875,9.674072265625
0.7012499000000001,8.51138687133789,-3.84269380569458,0.8092401623725891,7.26318359375,-4.7454833984375,9.979248046875
0.7037499,8.51138687133789,-3.8379054069519043,0.8236053586006165,7.1563720703125,-4.852294921875,10.1470947265625
0.7062499,8.516175270080566,-3.8331170082092285,0.8403648138046265,7.14111328125,-5.157470703125,10.345458984375
0.7087499,8.528146743774414,-3.8331170082092285,0.849941611289978,7.26318359375,-5.06591796875,10.894775390625
0.7112499,8.537723541259766,-3.8307228088378906,0.8595184087753296,7.415771484375,-5.18798828125,11.4898681640625
0.7137499,8.542511940002441,-3.8355112075805664,0.8667010068893433,7.4920654296875,-5.43212890625,11.810302734375
0.7162499,8.544905662536621,-3.8379054069519043,0.8690952062606812,7.598876953125,-5.4473876953125,12.115478515625
0.7187499,8.53532886505127,-3.847482204437256,0.8762778043746948,7.6446533203125,-5.4779052734375,12.451171875
0.7212499,8.523358345031738,-3.8498764038085938,0.8738836050033569,7.843017578125,-5.7373046875,12.5885009765625
0.7237499000000001,8.513781547546387,-3.8594532012939453,0.871489405632019,7.9803466796875,-5.859375,12.8631591796875
0.7262499,8.508993148803711,-3.8714241981506348,0.871489405632019,8.1787109375,-5.828857421875,13.1683349609375
0.7287499000000001,8.508993148803711,-3.883395195007324,0.8738836050033569,8.1939697265625,-5.7830810546875,13.5955810546875
0.7312499,8.516175270080566,-3.9025487899780273,0.8762778043746948,8.331298828125,-5.92041015625,13.9007568359375
0.7337499000000001,8.523358345031738,-3.9217023849487305,0.8810662031173706,8.6822509765625,-5.79833984375,14.2669677734375
0.7362499,8.530540466308594,-3.936067581176758,0.8882488012313843,9.09423828125,-5.8135986328125,14.3585205078125
0.7387499000000001,8.537723541259766,-3.9480385780334473,0.8858546018600464,9.2010498046875,-5.767822265625,14.6331787109375
0.7412499,8.544905662536621,-3.9480385780334473,0.8882488012313843,9.21630859375,-5.9051513671875,14.8468017578125
0.7437499000000001,8.552088737487793,-3.952826976776123,0.8834604024887085,9.368896484375,-5.9051513671875,15.3350830078125
0.7462499,8.564059257507324,-3.957615375518799,0.8834604024887085,9.613037109375,-5.9814453125,15.7623291015625
0.7487499000000001,8.585607528686523,-3.9671921730041504,0.8810662031173706,9.7808837890625,-6.04248046875,15.9759521484375
0.7512499,8.604761123657227,-3.9863457679748535,0.871489405632019,9.94873046875,-5.9051513671875,16.1895751953125
0.7537499000000001,8.62630844116211,-4.003105163574219,0.8667010068893433,10.2691650390625,-5.79833984375,16.7694091796875
0.7562499,8.638279914855957,-4.010287761688232,0.8595184087753296,10.345458984375,-5.79833984375,17.2576904296875
0.7587499000000001,8.635885238647461,-4.01268196105957,0.8547300100326538,10.4827880859375,-5.7220458984375,17.27294921875
0.7612499,8.628703117370605,-3.993528366088867,0.8619126081466675,10.55908203125,-5.859375,17.7154541015625
0.7637499000000001,8.621520042419434,-3.97916316986084,0.8667010068893433,10.406494140625,-5.8135986328125,18.1121826171875
0.7662499,8.619126319885254,-3.950432777404785,0.8762778043746948,10.498046875,-5.9661865234375,18.4783935546875
0.7687499000000001,8.633491516113281,-3.93367338180542,0.8858546018600464,10.345458984375,-5.8746337890625,18.6309814453125
0.7712499,8.655038833618164,-3.912125587463379,0.8930372595787048,10.0250244140625,-5.8135986328125,18.6004638671875
0.7737499,8.676587104797363,-3.9001545906066895,0.8978256583213806,9.7808837890625,-5.55419921875,19.134521484375
0.7762499,8.695740699768066,-3.8953661918640137,0.8954314589500427,9.6893310546875,-5.3863525390625,19.500732421875
0.7787499,8.705317497253418,-3.890577793121338,0.8834604024887085,9.4146728515625,-5.4168701171875,19.53125
0.7812499,8.707711219787598,-3.892971992492676,0.8690952062606812,9.307861328125,-5.218505859375,19.95849609375
0.7837499,8.698134422302246,-3.892971992492676,0.8523358106613159,9.0789794921875,-4.974365234375,20.32470703125
0.7862499000000001,8.688557624816895,-3.88818359375,0.8355764150619507,8.575439453125,-5.0048828125,20.3399658203125
0.7887499,8.683769226074219,-3.88818359375,0.8164227604866028,8.0718994140625,-5.0506591796875,20.5230712890625
0.7912499000000001,8.686163902282715,-3.88818359375,0.8044517636299133,7.7972412109375,-4.8828125,20.8282470703125
0.7937499,8.695740699768066,-3.8977603912353516,0.7948749661445618,7.5531005859375,-4.69970703125,21.026611328125
0.7962499000000001,8.705317497253418,-3.9025487899780273,0.7948749661445618,7.2479248046875,-4.547119140625,21.1639404296875
0.7987499,8.707711219787598,-3.907337188720703,0.7948749661445618,6.866455078125,-4.180908203125,21.4385986328125
0.8012499000000001,8.705317497253418,-3.9049429893493652,0.7996633648872375,6.5155029296875,-4.180908203125,21.6217041015625
0.8037499,8.69095230102539,-3.9049429893493652,0.8020575642585754,6.2713623046875,-4.0130615234375,21.5911865234375
0.8062499000000001,8.674192428588867,-3.912125587463379,0.8020575642585754,6.011962890625,-3.936767578125,21.8048095703125
0.8087499,8.662221908569336,-3.9217023849487305,0.8020575642585754,5.55419921875,-4.1656494140625,21.9573974609375
0.8112499000000001,8.65743350982666,-3.936067581176758,0.7972691655158997,5.5084228515625,-4.21142578125,22.308349609375
0.8137499,8.652645111083984,-3.952826976776123,0.7948749661445618,5.31005859375,-4.1351318359375,22.52197265625
0.8162499000000001,8.655038833618164,-3.9695863723754883,0.7972691655158997,5.218505859375,-4.0283203125,22.6898193359375
0.8187499,8.645462036132812,-3.9911341667175293,0.8020575642585754,5.1422119140625,-3.8909912109375,23.13232421875
0.8212499000000001,8.633491516113281,-4.010287761688232,0.811634361743927,5.0506591796875,-4.180908203125,23.5443115234375
0.8237499,8.616731643676758,-4.0294413566589355,0.8236053586006165,5.1116943359375,-4.5318603515625,23.712158203125
0.8262499000000001,8.607154846191406,-4.046200752258301,0.8331822156906128,5.1422119140625,-4.302978515625,24.200439453125
0.8287499,8.59997272491455,-4.062960147857666,0.8379706144332886,5.1116943359375,-4.5166015625,24.8260498046875
0.8312499000000001,8.597578048706055,-4.079719543457031,0.8307880163192749,5.096435546875,-4.669189453125,24.9481201171875
0.8337499,8.595184326171875,-4.094084739685059,0.8259995579719543,4.8675537109375,-4.486083984375,25.08544921875
0.8362499,8.597578048706055,-4.108449935913086,0.8140285611152649,4.913330078125,-4.852294921875,25.299072265625
0.8387499,8.59997272491455,-4.122815132141113,0.811634361743927,5.0811767578125,-4.9285888671875,25.8636474609375
0.8412499,8.611943244934082,-4.132391929626465,0.8092401623725891,5.18798828125,-5.0201416015625,26.18408203125
0.8437499,8.62630844116211,-4.14915132522583,0.811634361743927,5.5389404296875,-4.974365234375,26.214599609375
0.8462499,8.635885238647461,-4.156333923339844,0.8068459630012512,5.706787109375,-5.2642822265625,26.67236328125
0.8487499000000001,8.643068313598633,-4.158728122711182,0.7996633648872375,5.7373046875,-5.3253173828125,27.1148681640625
0.8512499,8.643068313598633,-4.158728122711182,0.7829039692878723,5.92041015625,-5.37109375,27.1453857421875
0.8537499000000001,8.638279914855957,-4.14915132522583,0.7637503147125244,6.1187744140625,-5.4779052734375,27.374267578125
0.8562499,8.635885238647461,-4.141968727111816,0.7374141216278076,6.2713623046875,-5.67626953125,27.6641845703125
0.8587499000000001,8.640673637390137,-4.120420932769775,0.689530074596405,6.5460205078125,-5.9356689453125,27.9693603515625
0.8612499,8.647856712341309,-4.1156325340271,0.6727706789970398,6.65283203125,-6.011962890625,28.1524658203125
0.8637499000000001,8.650250434875488,-4.1156325340271,0.6655880808830261,6.4544677734375,-5.8135986328125,27.984619140625
0.8662499,8.655038833618164,-4.1156325340271,0.6655880808830261,6.40869140625,-6.1187744140625,28.533935546875
0.8687499000000001,8.655038833618164,-4.1156325340271,0.6703764796257019,6.5460205078125,-6.195068359375,28.8238525390625
0.8712499,8.655038833618164,-4.1156325340271,0.6751648783683777,6.2103271484375,-6.072998046875,28.6865234375
0.8737499000000001,8.652645111083984,-4.110844135284424,0.6775590777397156,6.134033203125,-6.1492919921875,28.961181640625
0.8762499,8.655038833618164,-4.101267337799072,0.6775590777397156,5.8135986328125,-6.011962890625,29.1900634765625
0.8787499000000001,8.655038833618164,-4.089296340942383,0.6727706789970398,5.615234375,-6.0272216796875,29.3426513671875
0.8812499,8.667010307312012,-4.077325344085693,0.6727706789970398,5.2642822265625,-5.9356689453125,29.3426513671875
0.8837499000000001,8.678980827331543,-4.07014274597168,0.667982280254364,4.8675537109375,-5.645751953125,29.47998046875
0.8862499,8.700529098510742,-4.062960147857666,0.6655880808830261,4.4097900390625,-5.7525634765625,29.8614501953125
0.8887499000000001,8.71489429473877,-4.062960147857666,0.6655880808830261,4.150390625,-5.79833984375,29.998779296875
0.8912499,8.731653213500977,-4.072536945343018,0.6655880808830261,3.753662109375,-5.4779052734375,30.120849609375
0.8937499000000001,8.741230010986328,-4.082113742828369,0.6751648783683777,3.4027099609375,-5.43212890625,30.517578125
0.8962499,8.741230010986328,-4.094084739685059,0.6847416758537292,2.86865234375,-5.4779052734375,30.6854248046875
0.8987499,8.738836288452148,-4.101267337799072,0.6943184733390808,2.4566650390625,-5.3558349609375,30.8990478515625
0.9012499,8.729259490966797,-4.110844135284424,0.6967126727104187,1.9073486328125,-5.462646484375,30.9295654296875
0.9037499,8.724471092224121,-4.1180267333984375,0.6919242739677429,1.64794921875,-5.523681640625,31.2652587890625
0.9062499,8.71728801727295,-4.127603530883789,0.6727706789970398,1.3275146484375,-5.2337646484375,31.31103515625
0.9087499,8.71489429473877,-4.141968727111816,0.6560112833976746,0.8392333984375,-5.1422119140625,31.4178466796875
0.9112499000000001,8.707711219787598,-4.156333923339844,0.6320692300796509,0.4425048828125,-5.340576171875,31.494140625
0.9137499,8.705317497253418,-4.170699596405029,0.6129156351089478,-0.06103515625,-5.401611328125,31.5093994140625
0.9162499000000001,8.705317497253418,-4.177882194519043,0.6009446382522583,-0.335693359375,-5.43212890625,31.55517578125
0.9187499,8.712499618530273,-4.1874589920043945,0.5913678407669067,-0.7171630859375,-5.2032470703125,31.8450927734375
0.9212499000000001,8.719682693481445,-4.189853191375732,0.5913678407669067,-0.8544921875,-5.218505859375,32.0892333984375
0.9237499,8.722076416015625,-4.197035789489746,0.5961562395095825,-1.373291015625,-5.096435546875,32.16552734375
0.9262499000000001,8.729259490966797,-4.197035789489746,0.6033388376235962,-1.9073486328125,-5.279541015625,32.470703125
0.9287499,8.731653213500977,-4.194641590118408,0.6105214357376099,-2.410888671875,-5.096435546875,32.470703125
0.9312499000000001,8.736441612243652,-4.1874589920043945,0.6153098344802856,-2.8076171875,-4.94384765625,32.806396484375
0.9337499,8.743624687194824,-4.182670593261719,0.6177040338516235,-3.3416748046875,-4.730224609375,32.71484375
0.9362499000000001,8.753201484680176,-4.185064792633057,0.6153098344802856,-3.7078857421875,-4.669189453125,32.623291015625
0.9387499,8.765172004699707,-4.19224739074707,0.6153098344802856,-4.1656494140625,-4.5623779296875,32.806396484375
0.9412499000000001,8.774748802185059,-4.206612586975098,0.6129156351089478,-4.486083984375,-4.364013671875,32.6690673828125
0.9437499,8.786720275878906,-4.216189384460449,0.6105214357376099,-4.9591064453125,-4.425048828125,32.501220703125
0.9462499000000001,8.796297073364258,-4.225766181945801,0.6033388376235962,-5.37109375,-4.1656494140625,32.562255859375
0.9487499,8.810662269592285,-4.235342979431152,0.586579442024231,-5.4473876953125,-4.0283203125,32.5164794921875
0.9512499000000001,8.825027465820312,-4.242525577545166,0.569819986820221,-5.8441162109375,-3.875732421875,32.440185546875
0.9537499,8.83939266204834,-4.256890773773193,0.5530605912208557,-6.1492919921875,-3.90625,32.470703125
0.9562499000000001,8.853757858276367,-4.278438568115234,0.5482721924781799,-6.5155029296875,-3.60107421875,32.3028564453125
0.9587499,8.868123054504395,-4.302380561828613,0.5578489899635315,-7.0343017578125,-3.23486328125,32.196044921875
0.9612499,8.87051773071289,-4.331110954284668,0.5817909836769104,-7.293701171875,-3.2196044921875,32.2113037109375
0.9637499,8.868123054504395,-4.359841346740723,0.6200982332229614,-7.32421875,-3.2958984375,32.3333740234375
0.9662499,8.856152534484863,-4.393360137939453,0.6703764796257019,-7.7362060546875,-2.9144287109375,32.5164794921875
0.9687499,8.83939266204834,-4.426878929138184,0.7254431247711182,-7.9498291015625,-2.685546875,32.5469970703125
0.9712499,8.81784439086914,-4.469974517822266,0.7876923680305481,-8.0413818359375,-2.5177001953125,32.2723388671875
0.9737499000000001,8.801085472106934,-4.51067590713501,0.8451532125473022,-8.026123046875,-2.1209716796875,32.3486328125
0.9762499,8.789113998413086,-4.546588897705078,0.8930372595787048,-8.3770751953125,-1.678466796875,32.2418212890625
0.9787499000000001,8.777143478393555,-4.570530891418457,0.9265560507774353,-8.392333984375,-1.4190673828125,32.3486328125
0.9812499,8.777143478393555,-4.580107688903809,0.9385270476341248,-8.392333984375,-1.251220703125,32.5164794921875
0.9837499000000001,8.777143478393555,-4.58968448638916,0.9409212470054626,-8.5601806640625,-0.732421875,32.3333740234375
0.9862499,8.78432559967041,-4.6040496826171875,0.9409212470054626,-8.5906982421875,-0.5950927734375,32.3333740234375
0.9887499000000001,8.786720275878906,-4.632780075073242,0.9409212470054626,-8.697509765625,0.1373291015625,32.3333740234375
0.9912499,8.779537200927734,-4.675876140594482,0.9528923034667969,-8.514404296875,0.4425048828125,32.1197509765625
0.9937499000000001,8.765172004699707,-4.726154327392578,0.9648633003234863,-8.3465576171875,0.5645751953125,32.1197509765625
0.9962499,8.736441612243652,-4.790797710418701,0.9864110946655273,-8.2244873046875,0.885009765625,32.3333740234375
0.9987499000000001,8.705317497253418,-4.8602294921875,1.0199298858642578,-8.056640625,1.129150390625,32.5775146484375
1.0012499,8.671798706054688,-4.924872875213623,1.0582371950149536,-8.1329345703125,1.40380859375,32.5469970703125
1.0037498999999999,8.640673637390137,-4.98472785949707,1.1061211824417114,-7.5225830078125,1.64794921875,32.562255859375
1.0062499,8.609549522399902,-5.032611846923828,1.1635819673538208,-7.26318359375,2.0599365234375,32.6385498046875
1.0087499,8.578424453735352,-5.061342239379883,1.216254472732544,-7.2784423828125,2.227783203125,32.77587890625
1.0112499,8.547300338745117,-5.080495834350586,1.2665326595306396,-7.2174072265625,2.532958984375,32.6995849609375
1.0137498999999999,8.518569946289062,-5.085284233093262,1.3072341680526733,-6.9580078125,2.8228759765625,32.867431640625
1.0162499,8.487444877624512,-5.082890033721924,1.3311761617660522,-6.622314453125,2.838134765625,32.8826904296875
1.0187499,8.458714485168457,-5.082890033721924,1.338358759880066,-6.591796875,2.86865234375,32.9437255859375
1.0212499,8.427590370178223,-5.085284233093262,1.3311761617660522,-6.561279296875,3.082275390625,32.9742431640625
1.0237498999999999,8.396465301513672,-5.099649429321289,1.3120225667953491,-6.195068359375,3.0975341796875,32.928466796875
1.0262498999999998,8.362946510314941,-5.128379821777344,1.2880805730819702,-6.04248046875,3.2501220703125,33.0047607421875
1.0287499,8.315062522888184,-5.154716491699219,1.259350061416626,-5.584716796875,2.9754638671875,33.02001953125
1.0312499,8.26239013671875,-5.185841083526611,1.2330138683319092,-5.2947998046875,2.9754638671875,32.9742431640625
1.0337498999999999,8.195352554321289,-5.197812080383301,1.2066776752471924,-5.035400390625,2.960205078125,33.0657958984375
1.0362498999999998,8.130708694458008,-5.202600479125977,1.1851298809051514,-5.0811767578125,2.8839111328125,33.0047607421875
1.0387499,8.066065788269043,-5.193023681640625,1.1635819673538208,-5.096435546875,2.777099609375,33.0047607421875
1.0412499,8.015787124633789,-5.17626428604126,1.1420341730117798,-5.035400390625,2.6092529296875,32.989501953125
1.0437499,7.975085735321045,-5.149928092956543,1.1276689767837524,-5.2947998046875,2.4261474609375,32.989501953125
1.0462498999999998,7.953537940979004,-5.116408824920654,1.1109095811843872,-5.43212890625,2.227783203125,32.989501953125
1.0487499,7.934384346008301,-5.07570743560791,1.1061211824417114,-6.04248046875,2.0599365234375,32.806396484375
1.0512499,7.927201747894287,-5.032611846923828,1.1037269830703735,-6.5155029296875,1.89208984375,32.745361328125
1.0537499,7.922413349151611,-4.98472785949707,1.094150185585022,-7.0343017578125,1.708984375,32.5469970703125
1.0562498999999999,7.910442352294922,-4.934449672698975,1.0773907899856567,-7.7056884765625,1.678466796875,32.1807861328125
1.0587499,7.90086555480957,-4.879383087158203,1.0534487962722778,-8.514404296875,1.15966796875,32.16552734375
1.0612499,7.884106159210205,-4.819528102874756,1.0103530883789062,-9.521484375,0.8087158203125,31.982421875
1.0637499,7.869740962982178,-4.771644115447998,0.9696516990661621,-10.589599609375,0.579833984375,31.768798828125
1.0662498999999999,7.864952564239502,-4.69024133682251,0.8930372595787048,-13.24462890625,0.1068115234375,31.06689453125
1.0687499,7.876923561096191,-4.659116744995117,0.8690952062606812,-14.739990234375,-0.244140625,30.731201171875
1.0712499,7.893682956695557,-4.630385875701904,0.8595184087753296,-16.2506103515625,-0.1983642578125,30.6854248046875
1.0737499,7.91283655166626,-4.60165548324585,0.8547300100326538,-18.0816650390625,-0.4119873046875,30.57861328125
1.0762498999999999,7.929595947265625,-4.570530891418457,0.8619126081466675,-20.3399658203125,-0.5645751953125,30.7159423828125
1.0787499,7.94635534286499,-4.5394062995910645,0.8643068075180054,-22.4761962890625,-0.7171630859375,30.5633544921875
1.0812499,7.960720539093018,-4.51067590713501,0.8786720037460327,-24.84130859375,-0.762939453125,30.4107666015625
1.0837499,7.970297336578369,-4.481945514678955,0.8810662031173706,-27.1148681640625,-0.9765625,30.70068359375
1.0862498999999999,7.977479934692383,-4.4532151222229,0.8906430602073669,-29.754638671875,-1.220703125,30.517578125
1.0887499,7.979874134063721,-4.41969633102417,0.8906430602073669,-32.379150390625,-1.4190673828125,30.21240234375
1.0912499,7.9846625328063965,-4.3861775398254395,0.8858546018600464,-35.2325439453125,-1.678466796875,30.029296875
1.0937499,7.994239330291748,-4.352658748626709,0.871489405632019,-37.933349609375,-1.9683837890625,30.0140380859375
1.0962498999999999,7.999027729034424,-4.3191399574279785,0.8403648138046265,-40.8172607421875,-1.953125,29.9072265625
1.0987498999999998,8.018181800842285,-4.304774761199951,0.8020575642585754,-43.6553955078125,-2.01416015625,29.327392578125
1.1012499,8.030152320861816,-4.302380561828613,0.7613561153411865,-46.295166015625,-2.288818359375,28.900146484375
1.1037499,8.04691219329834,-4.321534156799316,0.730231523513794,-48.7823486328125,-2.5177001953125,28.594970703125
1.1062499,8.054094314575195,-4.3622355461120605,0.7086837291717529,-51.300048828125,-2.532958984375,28.2135009765625
1.1087498999999998,8.066065788269043,-4.41969633102417,0.6991068720817566,-53.497314453125,-2.7923583984375,27.6947021484375
1.1112499,8.073247909545898,-4.486733913421631,0.6991068720817566,-55.206298828125,-2.9296875,27.40478515625
1.1137499,8.087613105773926,-4.565742492675781,0.7015010714530945,-57.159423828125,-3.1280517578125,26.9317626953125
1.1162499,8.101978302001953,-4.644751071929932,0.706289529800415,-58.9752197265625,-3.4027099609375,26.580810546875
1.1187498999999999,8.109161376953125,-4.72376012802124,0.706289529800415,-60.546875,-3.35693359375,26.0162353515625
1.1212499,8.11634349822998,-4.802768707275391,0.7038952708244324,-62.164306640625,-3.5552978515625,25.604248046875
1.1237499,8.125920295715332,-4.891354084014893,0.6991068720817566,-63.720703125,-3.8604736328125,25.6500244140625
1.1262499,8.13789176940918,-4.994304656982422,0.6943184733390808,-65.216064453125,-3.753662109375,25.1922607421875
1.1287498999999999,8.154650688171387,-5.1116204261779785,0.689530074596405,-65.7958984375,-3.662109375,25.146484375
1.1312499,8.17380428314209,-5.238513469696045,0.6847416758537292,-66.4520263671875,-3.7384033203125,25.146484375
1.1337499,8.178592681884766,-5.355829238891602,0.6799532771110535,-67.0623779296875,-3.9215087890625,25.1007080078125
1.1362499,8.169015884399414,-5.463568210601807,0.6727706789970398,-67.9779052734375,-3.90625,25.299072265625
1.1387498999999999,8.142680168151855,-5.552153587341309,0.6560112833976746,-68.66455078125,-3.96728515625,25.543212890625
1.1412499,8.094796180725098,-5.631162166595459,0.6368576288223267,-69.0765380859375,-4.3487548828125,25.7415771484375
1.1437499,8.037335395812988,-5.710171222686768,0.6129156351089478,-69.3206787109375,-4.3182373046875,26.30615234375
1.1462499,7.972691535949707,-5.781997203826904,0.5889736413955688,-69.6563720703125,-4.5166015625,26.763916015625
1.1487498999999999,7.903259754180908,-5.8442463874816895,0.5626373887062073,-69.6563720703125,-4.852294921875,27.2216796875
1.1512499,7.826645374298096,-5.896918773651123,0.5315127968788147,-69.5343017578125,-5.2642822265625,27.557373046875
1.1537499,7.754819393157959,-5.937620162963867,0.49320554733276367,-69.7479248046875,-5.8441162109375,28.4271240234375
1.1562499,7.6782050132751465,-5.96874475479126,0.44771572947502136,-69.7021484375,-6.0882568359375,29.1900634765625
1.1587498999999999,7.603984832763672,-5.995080947875977,0.3902548849582672,-69.4122314453125,-6.7138671875,29.84619140625
1.1612498999999998,7.524975776672363,-6.011840343475342,0.3280056416988373,-69.122314453125,-7.476806640625,30.5633544921875
1.1637499,7.438784599304199,-6.0190229415893555,0.2561795711517334,-68.9239501953125,-8.30078125,31.4483642578125
1.1662499,7.3454108238220215,-6.01423454284668,0.17717093229293823,-68.4356689453125,-9.2315673828125,32.1044921875
1.1687499,7.261613845825195,-6.007051944732666,0.09576806426048279,-68.3135986328125,-10.1318359375,32.9437255859375
1.1712498999999998,7.187393665313721,-6.004657745361328,0.014365210197865963,-67.87109375,-10.9100341796875,33.75244140625
1.1737499,7.122750282287598,-6.009446144104004,-0.07182604819536209,-66.8487548828125,-12.054443359375,34.7137451171875
1.1762499,7.072471618652344,-6.01423454284668,-0.1604115068912506,-65.704345703125,-13.0157470703125,35.7818603515625
1.1787499,7.01979923248291,-6.007051944732666,-0.2537853717803955,-65.093994140625,-14.16015625,36.9415283203125
1.1812498999999999,6.97430944442749,-5.978321552276611,-0.33997663855552673,-64.5751953125,-15.6402587890625,37.5518798828125
1.1837499,6.933608055114746,-5.935225963592529,-0.4213795065879822,-64.0869140625,-17.059326171875,38.63525390625
1.1862499,6.914454460144043,-5.884947776794434,-0.49320554733276367,-63.4765625,-18.402099609375,39.794921875
1.1887499,6.912060260772705,-5.834669589996338,-0.5578489899635315,-62.7899169921875,-19.744873046875,41.015625
1.1912498999999999,6.92881965637207,-5.791574001312256,-0.6129156351089478,-62.103271484375,-21.240234375,42.3126220703125
1.1937499,6.947973251342773,-5.748478412628174,-0.6584054827690125,-61.614990234375,-22.491455078125,43.0755615234375
1.1962499,6.97430944442749,-5.70777702331543,-0.6919242739677429,-60.8673095703125,-24.0936279296875,44.677734375
1.1987499,6.998251438140869,-5.664681434631348,-0.7182605266571045,-60.1959228515625,-25.3753662109375,46.2188720703125
1.2012498999999999,7.010222434997559,-5.621585369110107,-0.7422025203704834,-59.967041015625,-26.885986328125,47.088623046875
1.2037499,7.026981830596924,-5.580883979797363,-0.7565677165985107,-59.5703125,-28.25927734375,48.5992431640625
1.2062499,7.0317702293396,-5.542576789855957,-0.7805097699165344,-59.3414306640625,-29.4952392578125,50.1861572265625
1.2087499,7.036558628082275,-5.506663799285889,-0.8044517636299133,-59.63134765625,-30.8837890625,51.6510009765625
1.2112498999999999,7.048529624938965,-5.468356609344482,-0.8403648138046265,-59.5550537109375,-32.196044921875,53.375244140625
1.2137499,7.070077419281006,-5.432443618774414,-0.8906430602073669,-59.7381591796875,-33.5540771484375,54.8248291015625
1.2162499,7.101202011108398,-5.384559631347656,-0.9600749015808105,-60.2264404296875,-34.72900390625,56.427001953125
1.2187499,7.129932880401611,-5.327098846435547,-1.0295066833496094,-60.4248046875,-36.224365234375,58.28857421875
1.2212498999999999,7.16584587097168,-5.260061264038086,-1.1109095811843872,-61.0504150390625,-37.29248046875,59.87548828125
1.2237498999999998,7.187393665313721,-5.190629482269287,-1.1899182796478271,-61.737060546875,-38.360595703125,61.3250732421875
1.2262499,7.218518257141113,-5.12119722366333,-1.256955862045288,-62.530517578125,-40.0390625,62.92724609375
1.2287499,7.242460250854492,-5.056553840637207,-1.3287819623947144,-63.5223388671875,-41.2750244140625,64.422607421875
1.2312499,7.266402244567871,-4.991910457611084,-1.3886369466781616,-64.5599365234375,-42.6025390625,66.1773681640625
1.2337498999999998,7.280767440795898,-4.922478675842285,-1.455674648284912,-65.7806396484375,-44.219970703125,67.7947998046875
1.2362499,7.295132637023926,-4.8482584953308105,-1.5107412338256836,-67.2454833984375,-45.6085205078125,69.15283203125
1.2387499,7.297526836395264,-4.766855716705322,-1.5682021379470825,-68.267822265625,-47.088623046875,70.6634521484375
1.2412499,7.299921035766602,-4.699818134307861,-1.6089035272598267,-70.404052734375,-48.2635498046875,72.20458984375
1.2437498999999999,7.3023152351379395,-4.642356872558594,-1.6519991159439087,-71.7926025390625,-49.74365234375,73.822021484375
1.2462499,7.297526836395264,-4.596867084503174,-1.6927006244659424,-73.150634765625,-51.177978515625,75.3326416015625
1.2487499,7.297526836395264,-4.5609540939331055,-1.7405846118927002,-74.7833251953125,-52.3223876953125,76.2176513671875
1.2512499,7.29034423828125,-4.520252704620361,-1.7956513166427612,-76.2939453125,-54.168701171875,77.5146484375
1.2537498999999999,7.285555839538574,-4.46518611907959,-1.8507179021835327,-78.0792236328125,-55.5267333984375,78.67431640625
1.2562499,7.283161640167236,-4.398148536682129,-1.8986018896102905,-79.864501953125,-57.1441650390625,79.6966552734375
1.2587499,7.285555839538574,-4.333505153656006,-1.941697597503662,-81.6802978515625,-58.7158203125,80.9173583984375
1.2612499,7.3023152351379395,-4.28322696685791,-1.968033790588379,-83.2061767578125,-60.2264404296875,81.5887451171875
1.2637498999999999,7.3238630294799805,-4.244919776916504,-1.98958158493042,-84.136962890625,-61.5997314453125,82.183837890625
1.2662499,7.354987621307373,-4.235342979431152,-2.0015525817871094,-85.2203369140625,-63.04931640625,82.8704833984375
1.2687499,7.383718013763428,-4.213795185089111,-2.0183119773864746,-86.8072509765625,-64.544677734375,83.5418701171875
1.2712499,7.412448406219482,-4.2090067863464355,-2.03507137298584,-88.1195068359375,-66.192626953125,84.075927734375
1.2737498999999999,7.479485988616943,-4.259284973144531,-2.073378562927246,-90.4083251953125,-68.8934326171875,84.9761962890625
1.2762499,7.51779317855835,-4.32871675491333,-2.094926595687866,-90.972900390625,-70.2362060546875,85.723876953125
1.2787499,7.558494567871094,-4.402936935424805,-2.118868589401245,-91.4764404296875,-71.563720703125,86.4105224609375
1.2812499,7.601590633392334,-4.467580318450928,-2.1523873805999756,-92.0867919921875,-73.211669921875,86.8072509765625
1.2837498999999999,7.63989782333374,-4.525041103363037,-2.2002713680267334,-92.7734375,-74.76806640625,87.46337890625
1.2862498999999998,7.682993412017822,-4.570530891418457,-2.252943754196167,-93.26171875,-76.3092041015625,88.3026123046875
1.2887499,7.740454196929932,-4.618414878845215,-2.315192937850952,-93.5516357421875,-77.6824951171875,89.019775390625
1.2912499,7.812280178070068,-4.671087741851807,-2.3726539611816406,-93.8720703125,-79.0863037109375,90.27099609375
1.2937499,7.903259754180908,-4.704606533050537,-2.4372973442077637,-93.780517578125,-80.8258056640625,91.00341796875
1.2962498999999998,8.008605003356934,-4.72376012802124,-2.494758129119873,-94.17724609375,-82.122802734375,92.1173095703125
1.2987499,8.130708694458008,-4.714183330535889,-2.5546131134033203,-94.6197509765625,-83.831787109375,93.2159423828125
1.3012499,8.26239013671875,-4.702212333679199,-2.6024973392486572,-94.757080078125,-85.5712890625,94.146728515625
1.3037499,8.415618896484375,-4.680664539337158,-2.6408045291900635,-94.90966796875,-86.9140625,94.9859619140625
1.3062498999999999,8.578424453735352,-4.666299343109131,-2.6647465229034424,-94.8944091796875,-88.4246826171875,96.0845947265625
1.3087499,8.753201484680176,-4.661510944366455,-2.671929121017456,-95.15380859375,-90.1947021484375,97.10693359375
1.3112499,8.942343711853027,-4.651933670043945,-2.674323320388794,-95.15380859375,-91.6748046875,98.08349609375
1.3137499,9.14585018157959,-4.6471452713012695,-2.6647465229034424,-95.27587890625,-93.2159423828125,99.0753173828125
1.3162498999999999,9.363722801208496,-4.637568473815918,-2.6623523235321045,-94.940185546875,-94.7723388671875,100.0518798828125
1.3187499,9.607931137084961,-4.623203277587891,-2.6623523235321045,-94.8028564453125,-96.5423583984375,100.9979248046875
1.3212499,9.876082420349121,-4.596867084503174,-2.671929121017456,-94.940185546875,-98.1292724609375,101.531982421875
1.3237499,10.17296314239502,-4.580107688903809,-2.6839001178741455,-94.8333740234375,-99.8687744140625,102.47802734375
1.3262498999999999,10.503362655639648,-4.568136692047119,-2.7006595134735107,-94.879150390625,-101.318359375,103.546142578125
1.3287499,10.867281913757324,-4.572925090789795,-2.7102363109588623,-94.7113037109375,-102.874755859375,104.30908203125
1.3312499,11.264719009399414,-4.587290287017822,-2.715024709701538,-94.42138671875,-104.67529296875,104.827880859375
1.3337499,11.69806957244873,-4.611232280731201,-2.715024709701538,-94.2230224609375,-106.6436767578125,105.560302734375
1.3362498999999999,12.164938926696777,-4.6255974769592285,-2.7102363109588623,-94.2230224609375,-108.062744140625,106.292724609375
1.3387499,12.667720794677734,-4.627991676330566,-2.7126305103302,-94.1619873046875,-109.7869873046875,106.8572998046875
1.3412499,13.208810806274414,-4.620809078216553,-2.715024709701538,-94.451904296875,-111.6180419921875,107.3760986328125
1.3437499,13.785813331604004,-4.599261283874512,-2.7317841053009033,-94.818115234375,-113.6627197265625,108.1390380859375
1.3462498999999999,14.391546249389648,-4.5609540939331055,-2.7557260990142822,-94.9859619140625,-115.753173828125,108.489990234375
1.3487498999999998,15.030797958374023,-4.508281707763672,-2.784456491470337,-95.64208984375,-117.9351806640625,108.7799072265625
1.3512499,15.693992614746094,-4.436455726623535,-2.8203697204589844,-96.7254638671875,-120.6512451171875,108.9935302734375
1.3537499,16.3883113861084,-4.350264549255371,-2.8634653091430664,-97.991943359375,-123.4893798828125,108.82568359375
1.3562499,17.113754272460938,-4.259284973144531,-2.913743495941162,-99.3194580078125,-126.6937255859375,108.612060546875
1.3587498999999998,17.86792755126953,-4.163516521453857,-2.983175277709961,-100.9368896484375,-129.94384765625,108.1085205078125
1.3612499,18.655620574951172,-4.07014274597168,-3.0789434909820557,-102.9205322265625,-133.11767578125,107.147216796875
1.3637499,19.457677841186523,-3.952826976776123,-3.2082302570343018,-105.46875,-136.8408203125,106.2774658203125
1.3662499,20.274099349975586,-3.801992416381836,-3.359065055847168,-108.2763671875,-140.7318115234375,105.255126953125
1.3687498999999999,21.102493286132812,-3.581725835800171,-3.5649664402008057,-111.5570068359375,-144.7601318359375,104.0191650390625
1.3712499,21.94046401977539,-3.28963303565979,-3.7876269817352295,-115.7379150390625,-148.712158203125,102.691650390625
1.3737499,22.816741943359375,-2.9257144927978516,-4.046200752258301,-120.1019287109375,-152.77099609375,101.0284423828125
1.3762499,23.75766372680664,-2.5043349266052246,-4.307168960571289,-124.786376953125,-156.982421875,98.9990234375
1.3787498999999999,24.782381057739258,-2.0470423698425293,-4.553771495819092,-130.2032470703125,-161.31591796875,96.9390869140625
1.3812499,25.936386108398438,-1.5490485429763794,-4.788403511047363,-135.650634765625,-164.703369140625,94.4976806640625
1.3837499,27.198131561279297,-1.0462661981582642,-4.977545261383057,-141.7236328125,-167.5567626953125,91.8426513671875
1.3862499,28.567615509033203,-0.5386953949928284,-5.118803024291992,-148.101806640625,-169.8150634765625,89.2333984375
1.3887498999999999,30.044837951660156,0.004788403399288654,-5.231330871582031,-154.47998046875,-171.478271484375,87.0513916015625
1.3912499,31.507694244384766,0.5195417404174805,-5.238513469696045,-162.017822265625,-172.36328125,85.540771484375
1.3937499,32.975341796875,0.9864110946655273,-5.185841083526611,-172.9583740234375,-173.4771728515625,83.160400390625
1.3962499,34.38792037963867,1.314416766166687,-5.027823448181152,-182.5408935546875,-175.23193359375,81.6192626953125
1.3987498999999999,35.74064254760742,1.525106430053711,-4.829104900360107,-191.1163330078125,-176.2237548828125,80.99365234375
1.4012499,36.9928092956543,1.534683346748352,-4.522646903991699,-201.568603515625,-176.4373779296875,80.4443359375
1.4037499,38.09653854370117,1.5059528350830078,-4.235342979431152,-212.158203125,-176.8341064453125,80.230712890625
1.4062499,38.917747497558594,1.403002142906189,-3.88818359375,-223.3734130859375,-176.7578125,80.5511474609375
1.4087498999999999,39.406166076660156,1.3287819623947144,-3.5673606395721436,-235.076904296875,-176.8341064453125,81.3751220703125
1.4112498999999998,39.50672149658203,1.2856862545013428,-3.268085241317749,-245.5902099609375,-176.9256591796875,82.8857421875
1.4137499,39.272090911865234,1.256955862045288,-3.047818660736084,-257.26318359375,-177.8411865234375,84.747314453125
1.4162499,38.75494384765625,1.2401964664459229,-2.853888511657715,-269.10400390625,-178.8177490234375,87.005615234375
1.4187499,38.03668212890625,1.2114660739898682,-2.7293899059295654,-279.815673828125,-179.0771484375,89.599609375
1.4212498999999998,37.18913650512695,1.1827356815338135,-2.655169725418091,-291.4276123046875,-179.6112060546875,92.6055908203125
1.4237499,36.26018524169922,1.2521674633026123,-2.628833532333374,-303.314208984375,-179.5196533203125,96.2982177734375
1.4262499,35.278560638427734,1.4173674583435059,-2.6599581241607666,-315.49072265625,-178.7261962890625,100.0213623046875
1.4287499,34.27060317993164,1.7597382068634033,-2.7509377002716064,-328.79638671875,-177.6580810546875,104.0191650390625
1.4312498999999999,33.24109649658203,2.2385785579681396,-2.8826189041137695,-342.7581787109375,-175.8575439453125,108.1390380859375
1.4337499,32.20919418334961,2.8227639198303223,-3.090914487838745,-357.208251953125,-174.407958984375,112.4725341796875
1.4362499,31.208419799804688,3.464409828186035,-3.3494882583618164,-371.551513671875,-172.4090576171875,116.9891357421875
1.4387499,30.24834442138672,4.0294413566589355,-3.6583402156829834,-385.986328125,-169.3878173828125,121.4599609375
1.4412498999999999,29.28587532043457,4.484339714050293,-4.015076160430908,-400.3753662109375,-166.5802001953125,126.068115234375
1.4437499,28.31382942199707,4.754884719848633,-4.371812343597412,-413.909912109375,-164.2303466796875,131.378173828125
1.4462499,27.22207260131836,4.831499099731445,-4.742913722991943,-427.154541015625,-161.7431640625,137.298583984375
1.4487499,25.99384880065918,4.766855716705322,-5.12119722366333,-440.4754638671875,-159.3780517578125,143.73779296875
1.4512498999999999,24.562114715576172,4.575319290161133,-5.535394191741943,-453.55224609375,-158.0657958984375,151.031494140625
1.4537499,22.878992080688477,4.316745758056641,-5.975927352905273,-466.9952392578125,-157.2418212890625,159.11865234375
1.4562499,20.91335105895996,4.0078935623168945,-6.44279670715332,-479.98046875,-157.3944091796875,168.5638427734375
1.4587499,18.614917755126953,3.6343982219696045,-6.959944248199463,-493.95751953125,-159.2559814453125,179.1839599609375
1.4612498999999999,15.98129653930664,3.179499864578247,-7.503427982330322,-500,-162.9791259765625,190.5670166015625
1.4637499,13.010091781616211,2.6384103298187256,-8.118738174438477,-500,-167.7093505859375,202.8045654296875
1.4662499,9.730035781860352,1.9847931861877441,-8.808267593383789,-500,-173.33984375,216.1407470703125
1.4687499,6.150704383850098,1.3096283674240112,-9.550470352172852,-500,-179.50439453125,230.3924560546875
1.4712498999999999,2.293645143508911,0.629675030708313,-10.359710693359375,-500,-186.553955078125,245.3460693359375
1.4737498999999998,-1.8148049116134644,-0.009576806798577309,-11.176133155822754,-500,-195.1141357421875,261.7034912109375
1.4762499,-6.121973514556885,-0.608127236366272,-12.016498565673828,-500,-204.4219970703125,278.839111328125
1.4787499,-10.481815338134766,-1.194706678390503,-12.828132629394531,-500,-214.1265869140625,296.234130859375
1.4812499,-18.83997344970703,-2.432508945465088,-14.255077362060547,-500,-230.499267578125,329.58984375
1.4837498999999998,-22.771251678466797,-3.222595453262329,-14.755465507507324,-500,-235.9161376953125,345.5352783203125
1.4862499,-26.680984497070312,-4.07014274597168,-15.054739952087402,-500,-240.631103515625,360.748291015625
1.4887499,-30.74155044555664,-5.035006046295166,-15.143325805664062,-500,-245.1629638671875,375.2899169921875
1.4912499,-35.041534423828125,-5.985504150390625,-15.081076622009277,-500,-249.4049072265625,388.702392578125
1.4937498999999999,-39.578548431396484,-6.916848659515381,-14.970943450927734,-500,-252.50244140625,400.848388671875
1.4962499,-44.218509674072266,-7.86734676361084,-15.028404235839844,-500,-253.7078857421875,412.7044677734375
1.4987499,-48.702850341796875,-8.942343711853027,-15.433024406433105,-500,-252.44140625,423.3245849609375
1.5012499,-52.79693603515625,-10.156203269958496,-16.22071647644043,-500,-247.13134765625,431.854248046875
1.5037498999999999,-56.25655746459961,-11.429919242858887,-17.25740623474121,-500,-237.9608154296875,437.5457763671875
1.5062499,-58.98355484008789,-12.564770698547363,-18.322826385498047,-492.1417236328125,-225.8453369140625,440.73486328125
1.5087499,-60.946800231933594,-13.376404762268066,-19.151220321655273,-469.482421875,-210.9222412109375,440.3076171875
1.5112499,-62.0313720703125,-13.646949768066406,-19.658790588378906,-446.8841552734375,-194.2596435546875,436.09619140625
1.5137498999999999,-62.05531311035156,-13.345280647277832,-19.800048828125,-424.1790771484375,-175.10986328125,427.7191162109375
1.5162499,-60.800750732421875,-12.598289489746094,-19.50556182861328,-402.4658203125,-152.28271484375,415.191650390625
1.5187499,-58.10966873168945,-11.513715744018555,-18.66280174255371,-380.5694580078125,-126.129150390625,398.284912109375
1.5212499,-54.02276611328125,-10.27591323852539,-17.20233917236328,-356.7657470703125,-98.5870361328125,377.288818359375
1.5237498999999999,-48.81058883666992,-9.126696586608887,-14.997279167175293,-333.282470703125,-69.244384765625,352.0965576171875
1.5262499,-42.88972854614258,-8.130708694458008,-12.126631736755371,-309.38720703125,-38.7420654296875,322.7386474609375
1.5287499,-36.80845642089844,-7.424419403076172,-8.674192428588867,-282.8521728515625,-8.819580078125,290.008544921875
1.5312499,-31.124622344970703,-7.12035608291626,-4.8482584953308105,-255.7373046875,20.5078125,254.3487548828125
1.5337498999999999,-26.31706428527832,-7.216124057769775,-0.9720458984375,-226.5625,47.119140625,216.30859375
1.5362499,-22.656330108642578,-7.7213006019592285,2.626439332962036,-195.1141357421875,70.037841796875,177.30712890625
1.5387499,-20.140024185180664,-8.518569946289062,5.588066577911377,-161.3311767578125,88.165283203125,137.3443603515625
1.5412499,-18.514362335205078,-9.473855972290039,7.647080421447754,-126.5716552734375,101.50146484375,97.3968505859375
1.5437499,-17.42739486694336,-10.522516250610352,8.762778282165527,-91.61376953125,111.175537109375,57.0526123046875
1.5462498999999998,-16.433799743652344,-11.405977249145508,8.937555313110352,-53.5125732421875,118.46923828125,16.1285400390625
1.5487499,-15.389928817749023,-12.227188110351562,8.334216117858887,-13.3819580078125,124.08447265625,-24.0325927734375
1.5512499,-14.192827224731445,-12.617443084716797,7.089231014251709,29.35791015625,128.936767578125,-63.323974609375
1.5537499,-13.108254432678223,-12.756306648254395,5.367800235748291,70.9991455078125,133.056640625,-101.1810302734375
1.5562498999999999,-12.401965141296387,-12.555193901062012,3.2393548488616943,112.6251220703125,135.9710693359375,-136.23046875
1.5587499,-12.33253288269043,-12.22000503540039,0.9145850539207458,154.35791015625,137.542724609375,-167.8314208984375
1.5612499,-13.062764167785645,-11.887211799621582,-1.50355863571167,194.27490234375,138.73291015625,-195.9075927734375
1.5637499,-14.5591402053833,-11.563994407653809,-3.7876269817352295,232.4066162109375,139.0380859375,-219.696044921875
1.5662498999999999,-16.678009033203125,-11.26950740814209,-5.817910194396973,266.17431640625,138.5498046875,-238.5101318359375
1.5687499,-19.158401489257812,-10.831368446350098,-7.46033239364624,295.4559326171875,137.359619140625,-252.99072265625
1.5712499,-21.741744995117188,-10.153809547424316,-8.702922821044922,321.10595703125,135.6964111328125,-263.336181640625
1.5737499,-24.12397575378418,-9.155426979064941,-9.550470352172852,340.576171875,133.6212158203125,-269.6533203125
1.5762498999999999,-26.07525062561035,-7.836222171783447,-10.0580415725708,354.2022705078125,131.2103271484375,-272.979736328125
1.5787499,-27.447128295898438,-6.339846134185791,-10.280701637268066,363.4185791015625,129.058837890625,-274.200439453125
1.5812499,-28.172571182250977,-4.711789131164551,-10.29746150970459,370.208740234375,126.5716552734375,-274.322509765625
1.5837499,-28.263551712036133,-3.0837318897247314,-10.139444351196289,373.626708984375,123.8555908203125,-273.6053466796875
1.5862498999999999,-27.81822967529297,-1.3623007535934448,-9.890447616577148,373.22998046875,121.2615966796875,-272.369384765625
1.5887499,-26.949134826660156,0.43335050344467163,-9.591172218322754,368.743896484375,118.408203125,-270.782470703125
1.5912499,-25.795129776000977,2.293645143508911,-9.301473617553711,360.1837158203125,115.386962890625,-269.622802734375
1.5937499,-24.459163665771484,4.132391929626465,-9.078812599182129,348.5870361328125,112.60986328125,-268.7530517578125
1.5962498999999999,-23.03461456298828,5.801150798797607,-8.927978515625,335.0830078125,110.015869140625,-268.37158203125
1.5987499,-21.598093032836914,7.225700855255127,-8.856152534484863,319.7784423828125,107.9864501953125,-268.280029296875
1.6012499,-20.207061767578125,8.329427719116211,-8.834604263305664,302.703857421875,106.3690185546875,-268.341064453125
1.6037499,-18.928558349609375,9.124302864074707,-8.856152534484863,284.6832275390625,105.072021484375,-268.1121826171875
1.6062499,-17.79131317138672,9.619902610778809,-8.892065048217773,265.7318115234375,103.729248046875,-267.364501953125
1.6087498999999998,-16.790536880493164,9.849745750427246,-8.937555313110352,245.66650390625,102.783203125,-266.265869140625
1.6112499,-15.904682159423828,9.837775230407715,-8.975862503051758,225.5859375,102.325439453125,-264.5721435546875
1.6137499,-15.088258743286133,9.59835433959961,-8.995016098022461,205.4901123046875,101.898193359375,-262.1612548828125
1.6162499,-14.295778274536133,9.169792175292969,-8.999804496765137,185.943603515625,101.226806640625,-258.8043212890625
1.6187498999999999,-13.472172737121582,8.578424453735352,-8.983044624328613,167.144775390625,101.0894775390625,-254.8675537109375
1.6212499,-12.588712692260742,7.8960771560668945,-8.949525833129883,149.2919921875,100.5401611328125,-250.3662109375
1.6237499,-11.623848915100098,7.16584587097168,-8.882488250732422,131.89697265625,100.372314453125,-245.0408935546875
1.6262499,-10.579977035522461,6.45476770401001,-8.779537200927734,115.53955078125,99.9603271484375,-239.166259765625
1.6287498999999999,-9.478644371032715,5.805939197540283,-8.638279914855957,99.9298095703125,99.7772216796875,-233.0169677734375
1.6312499,-8.339004516601562,5.250484466552734,-8.482656478881836,84.4268798828125,99.4720458984375,-226.3336181640625
1.6337499,-7.201758861541748,4.766855716705322,-8.317456245422363,69.610595703125,99.1668701171875,-219.696044921875
1.6362499,-6.09324312210083,4.343081951141357,-8.178592681884766,56.1065673828125,98.8616943359375,-213.0279541015625
1.6387498999999999,-5.058948040008545,3.9193081855773926,-8.04930591583252,44.403076171875,98.541259765625,-206.695556640625
1.6412499,-4.120420932769775,3.49314022064209,-7.951143741607666,34.332275390625,98.1903076171875,-200.5157470703125
1.6437499,-3.2968156337738037,3.0573954582214355,-7.86734676361084,25.5584716796875,97.7325439453125,-194.7784423828125
1.6462499,-2.5761611461639404,2.626439332962036,-7.800309181213379,18.096923828125,97.198486328125,-189.0869140625
1.6487498999999999,-1.9393033981323242,2.2026655673980713,-7.759607791900635,11.810302734375,96.7559814453125,-183.624267578125
1.6512499,-1.3431471586227417,1.7717092037200928,-7.738059997558594,6.591796875,95.9930419921875,-178.2684326171875
1.6537499,-0.768538773059845,1.3120225667953491,-7.738059997558594,3.0517578125,94.90966796875,-172.7142333984375
1.6562499,-0.17477671802043915,0.8068459630012512,-7.733271598815918,0.885009765625,94.0093994140625,-167.3431396484375
1.6587498999999999,0.44771572947502136,0.2513911724090576,-7.714118003845215,0.213623046875,92.529296875,-162.0025634765625
1.6612499,1.1348515748977661,-0.3471592366695404,-7.6566572189331055,1.03759765625,91.094970703125,-156.6925048828125
1.6637499,1.920149803161621,-0.9576807022094727,-7.527369976043701,3.11279296875,89.508056640625,-150.9246826171875
1.6662499,2.782062292098999,-1.5394717454910278,-7.433996200561523,5.79833984375,89.324951171875,-145.6146240234375
1.6687499,3.665522813796997,-2.1499931812286377,-7.228095054626465,10.19287109375,88.6077880859375,-140.0146484375
1.6712498999999998,4.469974517822266,-2.6839001178741455,-7.1251444816589355,14.892578125,86.6241455078125,-133.3465576171875
1.6737499,5.128379821777344,-3.205836057662964,-6.955155849456787,20.843505859375,83.4503173828125,-127.0751953125
1.6762499,5.6670756340026855,-3.6296098232269287,-6.856993675231934,27.16064453125,79.6966552734375,-120.8953857421875
1.6787499,6.145915985107422,-3.9815573692321777,-6.756437301635742,32.989501953125,76.7059326171875,-114.9444580078125
1.6812498999999999,6.66785192489624,-4.256890773773193,-6.701370716094971,40.313720703125,74.4476318359375,-108.795166015625
1.6837499,7.24485445022583,-4.474762916564941,-6.629544734954834,48.004150390625,73.211669921875,-102.60009765625
1.6862499,7.845798969268799,-4.69024133682251,-6.567295074462891,55.5572509765625,72.8607177734375,-97.0458984375
1.6887499,8.432378768920898,-4.879383087158203,-6.502651691436768,64.7430419921875,72.75390625,-91.30859375
1.6912498999999999,9.337387084960938,-5.293580055236816,-6.40927791595459,82.8857421875,72.1588134765625,-79.3609619140625
1.6937499,9.646238327026367,-5.473145008087158,-6.418854713439941,91.1407470703125,71.685791015625,-73.150634765625
1.6962499,9.904812812805176,-5.590460777282715,-6.449979305267334,99.0753173828125,71.47216796875,-66.6046142578125
1.6987499,10.15141487121582,-5.616796970367432,-6.5050458908081055,106.0638427734375,71.47216796875,-59.8297119140625
1.7012498999999999,10.417171478271484,-5.56173038482666,-6.567295074462891,112.457275390625,71.9451904296875,-53.466796875
1.7037499,10.716446876525879,-5.458779811859131,-6.63433313369751,118.83544921875,72.7691650390625,-46.9970703125
1.7062499,11.034875869750977,-5.336675643920898,-6.710947513580322,125.06103515625,73.9288330078125,-40.6951904296875
1.7087499,11.334151268005371,-5.224148273468018,-6.799532890319824,131.8359375,75.653076171875,-35.0341796875
1.7112498999999999,11.604695320129395,-5.1116204261779785,-6.89530086517334,138.3056640625,77.3162841796875,-29.78515625
1.7137499,11.820174217224121,-4.999093055725098,-6.98628044128418,144.1650390625,79.010009765625,-24.7344970703125
1.7162499,11.980585098266602,-4.876988887786865,-7.06528902053833,149.7344970703125,80.902099609375,-20.08056640625
1.7187499,12.097901344299316,-4.757278919219971,-7.117961883544922,154.754638671875,83.221435546875,-16.3116455078125
1.7212498999999999,12.18648624420166,-4.644751071929932,-7.1490864753723145,159.1644287109375,85.296630859375,-13.00048828125
1.7237499,12.258312225341797,-4.5394062995910645,-7.15387487411499,163.4063720703125,87.0819091796875,-9.918212890625
1.7262499,12.33013916015625,-4.455609321594238,-7.144298076629639,167.266845703125,88.6993408203125,-7.232666015625
1.7287499,12.401965141296387,-4.405331134796143,-7.127538681030273,170.9136962890625,90.2862548828125,-5.035400390625
1.7312499,12.48815631866455,-4.395754337310791,-7.12035608291626,174.407958984375,91.6748046875,-3.2196044921875
1.7337498999999998,12.574347496032715,-4.422090530395508,-7.129932880401611,178.2684326171875,92.6971435546875,-1.5411376953125
1.7362499,12.660538673400879,-4.479551315307617,-7.175422668457031,181.94580078125,93.7652587890625,-0.335693359375
1.7387499,12.739546775817871,-4.54419469833374,-7.252037048339844,185.577392578125,94.3450927734375,0.42724609375
1.7412499,12.799402236938477,-4.606443881988525,-7.371747016906738,189.178466796875,95.062255859375,0.9002685546875
1.7437498999999999,12.844892501831055,-4.659116744995117,-7.51779317855835,192.7490234375,95.855712890625,1.3275146484375
1.7462499,12.861651420593262,-4.685452938079834,-7.69735860824585,196.563720703125,96.3897705078125,1.4801025390625
1.7487499,12.844892501831055,-4.692635536193848,-7.879317760467529,199.7528076171875,97.3663330078125,1.220703125
1.7512499,12.797008514404297,-4.666299343109131,-8.066065788269043,202.484130859375,98.2208251953125,0.8392333984375
1.7537498999999999,12.713211059570312,-4.620809078216553,-8.236053466796875,204.9713134765625,99.0447998046875,0.4730224609375
1.7562499,12.60307788848877,-4.558559894561768,-8.377311706542969,206.939697265625,100.341796875,-0.396728515625
1.7587499,12.461819648742676,-4.481945514678955,-8.492233276367188,208.5113525390625,101.3336181640625,-1.220703125
1.7612499,12.30859088897705,-4.398148536682129,-8.571242332458496,209.7625732421875,102.05078125,-2.197265625
1.7637498999999999,12.138602256774902,-4.304774761199951,-8.631096839904785,210.4034423828125,102.8900146484375,-3.5400390625
1.7662499,11.963826179504395,-4.206612586975098,-8.669404029846191,210.75439453125,103.9276123046875,-4.913330078125
1.7687499,11.796232223510742,-4.122815132141113,-8.702922821044922,211.1968994140625,104.5684814453125,-6.4544677734375
1.7712499,11.635820388793945,-4.05817174911499,-8.743624687194824,211.36474609375,105.743408203125,-8.3770751953125
1.7737498999999999,11.480196952819824,-4.022258758544922,-8.786720275878906,211.2579345703125,106.7352294921875,-10.31494140625
1.7762499,11.331756591796875,-4.005499362945557,-8.83939266204834,211.1663818359375,107.8033447265625,-12.2833251953125
1.7787499,11.176133155822754,-3.9887399673461914,-8.884882926940918,210.9527587890625,108.94775390625,-14.5111083984375
1.7812499,11.013327598571777,-3.9624037742614746,-8.913613319396973,210.02197265625,109.954833984375,-16.754150390625
1.7837498999999999,10.848128318786621,-3.9240965843200684,-8.925583839416504,209.0606689453125,111.1602783203125,-19.04296875
1.7862499,10.706870079040527,-3.8714241981506348,-8.908824920654297,207.82470703125,112.24365234375,-21.5606689453125
1.7887499,10.60152530670166,-3.823540210723877,-8.877699851989746,206.695556640625,113.8458251953125,-24.0478515625
1.7912499,10.556035041809082,-3.7828385829925537,-8.820239067077637,204.742431640625,115.3717041015625,-26.4739990234375
1.7937499,10.560823440551758,-3.751713991165161,-8.7484130859375,202.5909423828125,117.0196533203125,-29.1900634765625
1.7962498999999998,10.615890502929688,-3.7277719974517822,-8.655038833618164,200.62255859375,118.865966796875,-31.6925048828125
1.7987499,10.69489860534668,-3.7253777980804443,-8.544905662536621,198.4405517578125,120.635986328125,-34.3475341796875
1.8012499,10.802638053894043,-3.734954595565796,-8.4108304977417,196.319580078125,122.49755859375,-36.7279052734375
1.8037499,10.917559623718262,-3.7612907886505127,-8.267178535461426,194.2596435546875,124.298095703125,-39.1387939453125
1.8062498999999999,11.027692794799805,-3.799597978591919,-8.090007781982422,192.2149658203125,126.220703125,-41.50390625
1.8087499,11.111490249633789,-3.8355112075805664,-7.905653953552246,190.1092529296875,128.0517578125,-43.9910888671875
1.8112499,11.161767959594727,-3.864241600036621,-7.694964408874512,187.7593994140625,129.7760009765625,-46.3104248046875
1.8137499,11.166556358337402,-3.8810009956359863,-7.474697589874268,185.546875,131.561279296875,-48.736572265625
1.8162498999999999,11.1474027633667,-3.9025487899780273,-7.249642848968506,183.59375,132.9193115234375,-51.055908203125
1.8187499,11.101913452148438,-3.9408559799194336,-7.0341644287109375,182.0526123046875,134.552001953125,-53.131103515625
1.8212499,11.049241065979004,-4.005499362945557,-6.823474884033203,180.633544921875,135.8489990234375,-55.4656982421875
1.8237499,10.986991882324219,-4.1156325340271,-6.653486728668213,179.2449951171875,136.8865966796875,-57.525634765625
1.8262498999999999,10.927136421203613,-4.23773717880249,-6.493074893951416,178.0853271484375,137.8936767578125,-59.295654296875
1.8287499,10.879252433776855,-4.369418144226074,-6.3733649253845215,177.0172119140625,138.85498046875,-60.9588623046875
1.8312499,10.836156845092773,-4.496310710906982,-6.289567947387695,175.9796142578125,139.7705078125,-62.6220703125
1.8337499,10.800244331359863,-4.594472885131836,-6.2392897605896,175.1556396484375,140.411376953125,-63.6749267578125
1.8362498999999999,10.747570991516113,-4.651933670043945,-6.229712963104248,174.560546875,140.8538818359375,-64.6820068359375
1.8387499,10.673351287841797,-4.663905143737793,-6.251260757446289,173.492431640625,140.838623046875,-65.7958984375
1.8412499,10.572794914245605,-4.627991676330566,-6.291962146759033,172.576904296875,140.5792236328125,-66.5130615234375
1.8437499,10.453084945678711,-4.55616569519043,-6.325480937957764,171.7987060546875,140.13671875,-67.07763671875
1.8462498999999999,10.309432983398438,-4.469974517822266,-6.347028732299805,171.295166015625,139.495849609375,-67.840576171875
1.8487499,10.165780067443848,-4.376600742340088,-6.342240333557129,170.6390380859375,138.61083984375,-68.5272216796875
1.8512499,10.014945983886719,-4.290409564971924,-6.320692539215088,169.6014404296875,137.5732421875,-69.2138671875
1.8537499,9.852140426635742,-4.211400985717773,-6.279991149902344,168.7164306640625,136.871337890625,-69.976806640625
1.8562499,9.677363395690918,-4.137180328369141,-6.229712963104248,167.7398681640625,136.1236572265625,-70.587158203125
1.8587498999999998,9.476250648498535,-4.055777549743652,-6.165069580078125,167.1142578125,135.25390625,-71.2738037109375
1.8612499,9.258378028869629,-3.9624037742614746,-6.09324312210083,166.3360595703125,134.2010498046875,-72.2503662109375
1.8637499,9.026140213012695,-3.861847400665283,-6.011840343475342,165.1763916015625,133.2550048828125,-72.9522705078125
1.8662499,8.801085472106934,-3.7445313930511475,-5.925649166107178,164.337158203125,132.720947265625,-74.0203857421875
1.8687498999999999,8.585607528686523,-3.648763418197632,-5.822698593139648,163.299560546875,131.927490234375,-75.0274658203125
1.8712499,8.398859977722168,-3.5482068061828613,-5.722142219543457,162.384033203125,130.9967041015625,-76.0650634765625
1.8737499,8.24084186553955,-3.4811692237854004,-5.600037574768066,161.4532470703125,130.2490234375,-77.0416259765625
1.8762499,8.130708694458008,-3.445256233215332,-5.5114521980285645,160.7208251953125,129.1961669921875,-78.0487060546875
1.8787498999999999,8.058882713317871,-3.471592426300049,-5.382165431976318,160.0189208984375,128.41796875,-78.6285400390625
1.8812499,8.01339340209961,-3.5410242080688477,-5.276820659637451,159.48486328125,127.6702880859375,-79.376220703125
1.8837499,8.001421928405762,-3.667917013168335,-5.145139217376709,159.3475341796875,127.01416015625,-80.01708984375
1.8862499,7.989450931549072,-3.8115692138671875,-5.013458251953125,159.24072265625,126.373291015625,-80.1544189453125
1.8887498999999999,8.006210327148438,-3.9863457679748535,-4.886565685272217,159.149169921875,125.457763671875,-80.4595947265625
1.8912499,8.001421928405762,-4.197035789489746,-4.7620673179626465,159.637451171875,124.6337890625,-80.7342529296875
1.8937499,7.989450931549072,-4.424484729766846,-4.654327869415283,160.9344482421875,124.1912841796875,-80.6732177734375
1.8962499,7.960720539093018,-4.692635536193848,-4.541800498962402,162.078857421875,123.3367919921875,-81.085205078125
1.8987498999999999,7.812280178070068,-5.128379821777344,-4.343081951141357,164.2913818359375,121.490478515625,-81.2225341796875
1.9012499,7.726089000701904,-5.260061264038086,-4.2329487800598145,164.6270751953125,120.3155517578125,-81.329345703125
1.9037499,7.666234016418457,-5.336675643920898,-4.1180267333984375,164.7491455078125,119.2626953125,-81.298828125
1.9062499,7.649474620819092,-5.3582234382629395,-3.9887399673461914,165.0238037109375,118.3319091796875,-80.7342529296875
1.9087498999999999,7.668628215789795,-5.336675643920898,-3.8786067962646484,165.252685546875,117.645263671875,-79.9407958984375
1.9112499,7.723694801330566,-5.284003257751465,-3.7708675861358643,164.85595703125,117.0806884765625,-79.2083740234375
1.9137499,7.797914981842041,-5.202600479125977,-3.7014358043670654,164.520263671875,116.6839599609375,-78.79638671875
1.9162499,7.869740962982178,-5.094861030578613,-3.641580820083618,164.4439697265625,116.302490234375,-78.61328125
1.9187499,7.943961143493652,-4.965574264526367,-3.627215623855591,164.3218994140625,116.0736083984375,-78.5369873046875
1.9212498999999998,8.008605003356934,-4.821922302246094,-3.5889084339141846,163.5894775390625,115.7989501953125,-78.399658203125
1.9237499,8.056488990783691,-4.656722068786621,-3.579331636428833,162.994384765625,115.2801513671875,-78.2012939453125
1.9262499,8.097189903259277,-4.508281707763672,-3.5218706130981445,161.9873046875,115.1123046875,-78.2470703125
1.9287499,8.121131896972656,-4.367023944854736,-3.4811692237854004,160.9649658203125,114.80712890625,-78.338623046875
1.9312498999999999,8.13789176940918,-4.2544965744018555,-3.40216064453125,159.5458984375,114.6087646484375,-78.5064697265625
1.9337499,8.149862289428711,-4.180276393890381,-3.318363666534424,158.233642578125,114.2578125,-78.8726806640625
1.9362499,8.152256965637207,-4.1395745277404785,-3.2178070545196533,156.7535400390625,114.013671875,-79.04052734375
1.9387499,8.152256965637207,-4.134786128997803,-3.112462282180786,154.998779296875,113.8458251953125,-79.254150390625
1.9412498999999999,8.135497093200684,-4.156333923339844,-3.026270866394043,153.2440185546875,113.5406494140625,-79.4830322265625
1.9437499,8.118738174438477,-4.19224739074707,-2.9688100814819336,151.6571044921875,113.311767578125,-79.193115234375
1.9462499,8.10437297821045,-4.240131378173828,-2.9496564865112305,149.5361328125,113.1591796875,-78.826904296875
1.9487499,8.094796180725098,-4.280832767486572,-2.9448680877685547,147.369384765625,112.8387451171875,-78.8116455078125
1.9512498999999999,8.10437297821045,-4.309563159942627,-2.9688100814819336,145.1263427734375,112.3809814453125,-78.43017578125
1.9537499,8.118738174438477,-4.32871675491333,-2.9712042808532715,142.974853515625,112.091064453125,-77.850341796875
1.9562499,8.154650688171387,-4.345476150512695,-2.959233283996582,140.3961181640625,111.99951171875,-77.4078369140625
1.9587499,8.188169479370117,-4.3622355461120605,-2.935291290283203,138.031005859375,111.7095947265625,-76.59912109375
1.9612498999999999,8.212111473083496,-4.4077253341674805,-2.8610711097717285,135.9405517578125,111.4654541015625,-76.1566162109375
1.9637499,8.238448143005371,-4.460397720336914,-2.801215887069702,134.1094970703125,111.175537109375,-75.653076171875
1.9662499,8.22887134552002,-4.522646903991699,-2.7006595134735107,132.080078125,110.7330322265625,-75.1495361328125
1.9687499,8.216899871826172,-4.563348293304443,-2.5905263423919678,130.1422119140625,110.076904296875,-74.6612548828125
1.9712498999999999,8.17141056060791,-4.6040496826171875,-2.4803929328918457,128.0364990234375,109.466552734375,-74.066162109375
1.9737499,8.13789176940918,-4.632780075073242,-2.3487119674682617,126.6326904296875,108.70361328125,-73.5626220703125
1.9762499,8.085219383239746,-4.683058738708496,-2.2457611560821533,125.732421875,107.8948974609375,-73.2269287109375
1.9787499,8.044517517089844,-4.72376012802124,-2.140416383743286,125.030517578125,106.964111328125,-72.8302001953125
1.9812499,7.979874134063721,-4.747702121734619,-2.0470423698425293,124.176025390625,105.6671142578125,-72.6318359375
1.9837499,7.898471355438232,-4.726154327392578,-1.9752163887023926,122.9248046875,104.217529296875,-72.57080078125
1.9862499,7.7883381843566895,-4.663905143737793,-1.9105730056762695,121.3226318359375,102.4627685546875,-72.4945068359375
1.9887499,7.692570209503174,-4.6040496826171875,-1.8579005002975464,120.3155517578125,100.15869140625,-72.3876953125
1.9912499,7.5968017578125,-4.558559894561768,-1.8195933103561401,119.8577880859375,97.8546142578125,-72.2503662109375
1.9937498999999999,7.55131196975708,-4.599261283874512,-1.766920804977417,119.140625,95.7794189453125,-71.9451904296875
1.9962499,7.527369976043701,-4.656722068786621,-1.7262194156646729,119.598388671875,93.414306640625,-71.5484619140625
1.9987499,7.51779317855835,-4.76924991607666,-1.680729627609253,119.049072265625,91.0186767578125,-70.9075927734375
2.0012499,7.5201873779296875,-4.876988887786865,-1.6519991159439087,118.9117431640625,88.409423828125,-70.220947265625
2.0037499,7.51779317855835,-4.982333660125732,-1.6328455209732056,119.1253662109375,85.7696533203125,-69.15283203125
2.0062499,7.51779317855835,-5.078101634979248,-1.6280571222305298,119.3084716796875,82.9925537109375,-67.81005859375
2.0087498999999998,7.508216381072998,-5.16429328918457,-1.6352397203445435,119.3389892578125,80.4595947265625,-66.6656494140625
2.0112499,7.50582218170166,-5.2265424728393555,-1.6519991159439087,119.415283203125,77.362060546875,-65.1092529296875
2.0137499,7.4986395835876465,-5.250484466552734,-1.6855180263519287,119.140625,74.64599609375,-63.04931640625
2.0162499,7.501033782958984,-5.238513469696045,-1.723825216293335,118.560791015625,71.6094970703125,-60.546875
2.0187499,7.51779317855835,-5.190629482269287,-1.7621324062347412,117.73681640625,68.66455078125,-58.1512451171875
2.0212499,7.553706169128418,-5.109226226806641,-1.7932571172714233,116.76025390625,65.643310546875,-55.8013916015625
2.0237499,7.594407558441162,-5.018246650695801,-1.8148049116134644,115.4937744140625,63.0035400390625,-53.52783203125
2.0262499,7.666234016418457,-4.910507678985596,-1.8195933103561401,113.8763427734375,60.24169921875,-51.361083984375
2.0287498999999998,7.733271598815918,-4.800374507904053,-1.8100165128707886,112.1978759765625,57.403564453125,-48.7823486328125
2.0312499,7.812280178070068,-4.685452938079834,-1.7956513166427612,110.107421875,54.290771484375,-46.173095703125
2.0337499,7.893682956695557,-4.568136692047119,-1.7573440074920654,107.635498046875,51.4984130859375,-43.9605712890625
2.0362499,7.965508937835693,-4.441244125366211,-1.7070658206939697,104.7515869140625,48.736572265625,-41.80908203125
2.0387499,8.042123794555664,-4.307168960571289,-1.6519991159439087,102.203369140625,45.9136962890625,-39.5355224609375
2.0412499,8.118738174438477,-4.165910720825195,-1.580173134803772,99.1363525390625,43.1365966796875,-37.78076171875
2.0437499,8.200140953063965,-4.01268196105957,-1.53707754611969,96.3134765625,40.5120849609375,-36.102294921875
2.0462499,8.267178535461426,-3.8546648025512695,-1.4700398445129395,93.0328369140625,38.421630859375,-34.759521484375
2.0487499,8.312667846679688,-3.6846764087677,-1.414973258972168,89.630126953125,36.1480712890625,-33.4625244140625
2.0512498999999997,8.33182144165039,-3.512293815612793,-1.3455413579940796,86.029052734375,33.538818359375,-32.28759765625
2.0537499,8.31985092163086,-3.3446998596191406,-1.2521674633026123,82.58056640625,31.1431884765625,-31.2957763671875
2.0562499,8.293514251708984,-3.19865345954895,-1.1516109704971313,78.18603515625,29.4342041015625,-30.33447265625
2.0587499,8.252813339233398,-3.0789434909820557,-1.0462661981582642,73.883056640625,27.1759033203125,-29.7393798828125
2.0612499,8.216899871826172,-3.00711727142334,-0.9289502501487732,69.76318359375,24.4903564453125,-28.900146484375
2.0637499,8.188169479370117,-2.980781078338623,-0.8188169598579407,65.887451171875,22.186279296875,-28.167724609375
2.0662499,8.17141056060791,-2.9927520751953125,-0.7134721279144287,61.798095703125,20.56884765625,-27.89306640625
2.0687499,8.17141056060791,-3.043030261993408,-0.6248866319656372,57.5714111328125,19.012451171875,-27.2674560546875
2.0712498999999998,8.166622161865234,-3.1028854846954346,-0.5530605912208557,53.28369140625,17.120361328125,-26.458740234375
2.0737499,8.161833763122559,-3.1699230670928955,-0.5003881454467773,49.3011474609375,15.3656005859375,-25.93994140625
2.0762499,8.147468566894531,-3.2297780513763428,-0.4620809257030487,45.2728271484375,13.5345458984375,-25.4974365234375
2.0787499,8.128314971923828,-3.2848446369171143,-0.42616790533065796,40.679931640625,11.749267578125,-24.7955322265625
2.0812499,8.109161376953125,-3.315969467163086,-0.3974374830722809,36.285400390625,10.284423828125,-24.1546630859375
2.0837499,8.090007781982422,-3.3494882583618164,-0.3711012601852417,31.9366455078125,8.819580078125,-23.6663818359375
2.0862499,8.068459510803223,-3.3638534545898438,-0.33758243918418884,27.587890625,7.50732421875,-23.1475830078125
2.0887499,8.04930591583252,-3.3854012489318848,-0.3256114423274994,23.0560302734375,6.378173828125,-22.5982666015625
2.0912498999999998,8.020575523376465,-3.406949043273926,-0.3064578175544739,18.6767578125,5.2032470703125,-22.1710205078125
2.0937499,7.996633529663086,-3.421314239501953,-0.2992752194404602,14.617919921875,3.814697265625,-21.8048095703125
2.0962499,7.977479934692383,-3.4308910369873047,-0.2992752194404602,10.2996826171875,2.899169921875,-21.66748046875
2.0987499,7.955932140350342,-3.4356794357299805,-0.2849099934101105,6.3018798828125,2.2125244140625,-21.453857421875
2.1012499,7.951143741607666,-3.4117374420166016,-0.27054479718208313,2.6092529296875,0.9765625,-21.1181640625
2.1037499,7.960720539093018,-3.3877954483032227,-0.2346317619085312,-1.15966796875,0.091552734375,-20.965576171875
2.1062499,7.989450931549072,-3.3423056602478027,-0.19153612852096558,-4.8675537109375,-0.7171630859375,-21.0418701171875
2.1087499,8.04691219329834,-3.272873640060425,-0.08619125932455063,-12.603759765625,-2.3193359375,-20.8587646484375
2.1112499,8.058882713317871,-3.2632968425750732,-0.028730420395731926,-16.05224609375,-2.960205078125,-21.0418701171875
2.1137498999999997,8.070854187011719,-3.292027235031128,0.043095629662275314,-19.012451171875,-3.5858154296875,-21.148681640625
2.1162499,8.068459510803223,-3.332728862762451,0.12210428714752197,-22.0489501953125,-4.0283203125,-21.331787109375
2.1187499,8.075642585754395,-3.3901896476745605,0.20111294090747833,-24.8260498046875,-4.69970703125,-21.66748046875
2.1212499,8.08043098449707,-3.4572272300720215,0.28730419278144836,-27.313232421875,-5.2642822265625,-21.91162109375
2.1237499,8.099584579467773,-3.531447410583496,0.3711012601852417,-29.541015625,-5.828857421875,-21.9268798828125
2.1262499,8.121131896972656,-3.6104562282562256,0.45250412821769714,-31.3262939453125,-5.9356689453125,-21.8658447265625
2.1287499,8.147468566894531,-3.7038300037384033,0.5219359993934631,-33.3099365234375,-6.0882568359375,-22.1710205078125
2.1312499,8.159439086914062,-3.799597978591919,0.5817909836769104,-34.8663330078125,-6.2103271484375,-22.2015380859375
2.1337498999999998,8.166622161865234,-3.8977603912353516,0.6272808313369751,-35.797119140625,-6.5155029296875,-22.15576171875
2.1362499,8.166622161865234,-3.993528366088867,0.6584054827690125,-36.6668701171875,-6.805419921875,-21.9573974609375
2.1387499,8.17380428314209,-4.084507942199707,0.6847416758537292,-37.2772216796875,-7.080078125,-21.78955078125
2.1412499,8.185775756835938,-4.173093795776367,0.7134721279144287,-37.65869140625,-7.14111328125,-21.3470458984375
2.1437499,8.20732307434082,-4.259284973144531,0.7422025203704834,-37.7349853515625,-7.0648193359375,-20.8740234375
2.1462499,8.236053466796875,-4.355052947998047,0.7781155705451965,-37.4755859375,-7.0648193359375,-20.263671875
2.1487499,8.279149055480957,-4.460397720336914,0.8259995579719543,-36.9110107421875,-7.01904296875,-19.866943359375
2.1512499,8.327033042907715,-4.5609540939331055,0.8786720037460327,-36.1328125,-6.988525390625,-19.0582275390625
2.1537498999999998,8.38449478149414,-4.659116744995117,0.9409212470054626,-35.3240966796875,-6.9427490234375,-18.585205078125
2.1562499,8.439560890197754,-4.733336925506592,1.0031704902648926,-34.1949462890625,-6.6375732421875,-17.852783203125
2.1587499,8.497021675109863,-4.786009311676025,1.0606313943862915,-32.8521728515625,-6.40869140625,-16.937255859375
2.1612499,8.549694061279297,-4.817133903503418,1.1180921792984009,-31.5704345703125,-6.0882568359375,-15.9454345703125
2.1637499,8.60236644744873,-4.829104900360107,1.1635819673538208,-30.0445556640625,-5.7373046875,-15.350341796875
2.1662499,8.647856712341309,-4.821922302246094,1.2090718746185303,-28.717041015625,-5.157470703125,-14.5416259765625
2.1687499,8.695740699768066,-4.807557106018066,1.2401964664459229,-26.947021484375,-4.608154296875,-13.824462890625
2.1712499,8.736441612243652,-4.778826713562012,1.2665326595306396,-25.08544921875,-4.3487548828125,-12.9241943359375
2.1737499,8.772355079650879,-4.73573112487793,1.2737152576446533,-23.406982421875,-3.72314453125,-12.1917724609375
2.1762499,8.803479194641113,-4.687847137451172,1.2856862545013428,-21.759033203125,-3.23486328125,-11.444091796875
2.1787499,8.83699893951416,-4.623203277587891,1.2880805730819702,-19.9127197265625,-2.7923583984375,-10.8642578125
2.1812499,8.865729331970215,-4.563348293304443,1.2952631711959839,-18.2952880859375,-2.1209716796875,-10.31494140625
2.1837499,8.89445972442627,-4.49870491027832,1.3024457693099976,-16.66259765625,-1.8157958984375,-9.521484375
2.1862499,8.918401718139648,-4.446032524108887,1.3192051649093628,-15.0299072265625,-1.220703125,-9.307861328125
2.1887499,8.925583839416504,-4.393360137939453,1.3431471586227417,-13.18359375,-1.0223388671875,-8.6669921875
2.1912499,8.918401718139648,-4.345476150512695,1.3766659498214722,-11.383056640625,-0.8392333984375,-7.9498291015625
2.1937499,8.901641845703125,-4.2975921630859375,1.414973258972168,-9.918212890625,-0.4119873046875,-7.62939453125
2.1962498999999998,8.880094528198242,-4.244919776916504,1.4293384552001953,-8.209228515625,-0.1678466796875,-7.2174072265625
2.1987499,8.860940933227539,-4.199429988861084,1.4317326545715332,-6.927490234375,0.1983642578125,-6.9732666015625
2.2012499,8.846575736999512,-4.156333923339844,1.4053963422775269,-5.5389404296875,0.4425048828125,-6.744384765625
2.2037499,8.83699893951416,-4.1156325340271,1.357512354850769,-3.9215087890625,0.885009765625,-6.591796875
2.2062499,8.841787338256836,-4.086902141571045,1.3096283674240112,-2.8839111328125,1.40380859375,-6.439208984375
2.2087499,8.844181060791016,-4.043806552886963,1.2521674633026123,-1.708984375,1.556396484375,-6.16455078125
2.2112499,8.846575736999512,-4.0078935623168945,1.1994950771331787,-0.7781982421875,1.861572265625,-5.8746337890625
2.2137499,8.844181060791016,-3.9624037742614746,1.158793568611145,0,1.8310546875,-5.828857421875
2.2162498999999998,8.825027465820312,-3.914519786834717,1.113303780555725,0.5035400390625,1.953125,-5.523681640625
2.2187499,8.80587387084961,-3.8570590019226074,1.0749965906143188,0.946044921875,2.0751953125,-4.8980712890625
2.2212499,8.777143478393555,-3.8091750144958496,1.039083480834961,1.251220703125,1.9073486328125,-4.913330078125
2.2237499,8.75080680847168,-3.754108190536499,0.9959878921508789,1.0986328125,2.01416015625,-4.6234130859375
2.2262499,8.731653213500977,-3.708618402481079,0.9624691009521484,0.6561279296875,2.1820068359375,-4.3487548828125
2.2287499,8.71489429473877,-3.6583402156829834,0.9289502501487732,0.4119873046875,2.166748046875,-4.1046142578125
2.2312499,8.722076416015625,-3.620033025741577,0.9002198576927185,-0.42724609375,2.0751953125,-3.96728515625
2.2337499,8.731653213500977,-3.5721490383148193,0.8786720037460327,-0.9765625,2.105712890625,-3.5400390625
2.2362499,8.75080680847168,-3.533841609954834,0.8643068075180054,-2.0904541015625,2.25830078125,-3.35693359375
2.2387499,8.772355079650879,-3.4979286193847656,0.8547300100326538,-3.387451171875,2.288818359375,-3.5400390625
2.2412499,8.796297073364258,-3.469198226928711,0.8475474119186401,-4.5166015625,2.288818359375,-3.4637451171875
2.2437499,8.815450668334961,-3.4548330307006836,0.8475474119186401,-5.8135986328125,2.44140625,-3.35693359375
2.2462499,8.832210540771484,-3.450044631958008,0.8379706144332886,-7.14111328125,2.2125244140625,-3.1280517578125
2.2487499,8.846575736999512,-3.464409828186035,0.8355764150619507,-8.3160400390625,2.5482177734375,-3.173828125
2.2512499,8.848969459533691,-3.4811692237854004,0.8307880163192749,-9.5062255859375,2.410888671875,-3.3416748046875
2.2537499,8.846575736999512,-3.507505416870117,0.8331822156906128,-10.8642578125,2.01416015625,-3.0670166015625
2.2562499,8.83699893951416,-3.533841609954834,0.8259995579719543,-12.2528076171875,1.617431640625,-3.021240234375
2.2587498999999998,8.834604263305664,-3.56017804145813,0.8212111592292786,-13.5498046875,1.5411376953125,-2.99072265625
2.2612499,8.820239067077637,-3.579331636428833,0.8020575642585754,-14.678955078125,1.556396484375,-3.0670166015625
2.2637499,8.822632789611816,-3.6128504276275635,0.790086567401886,-16.021728515625,1.4495849609375,-3.204345703125
2.2662499,8.81784439086914,-3.648763418197632,0.7733271718025208,-16.937255859375,1.3275146484375,-3.5552978515625
2.2687499,8.825027465820312,-3.711012601852417,0.7661445140838623,-17.486572265625,1.129150390625,-3.2806396484375
2.2712499,8.827422142028809,-3.7828385829925537,0.7589619159698486,-18.1121826171875,1.0986328125,-3.2501220703125
2.2737499,8.832210540771484,-3.8738183975219727,0.7565677165985107,-18.798828125,0.732421875,-3.2806396484375
2.2762499,8.820239067077637,-3.9600095748901367,0.7493851184844971,-19.22607421875,0.4119873046875,-3.3111572265625
2.2787498999999998,8.803479194641113,-4.050989151000977,0.7422025203704834,-19.561767578125,0.1220703125,-3.143310546875
2.2812499,8.779537200927734,-4.122815132141113,0.727837324142456,-19.683837890625,-0.3662109375,-2.8533935546875
2.2837499,8.75080680847168,-4.189853191375732,0.7110779285430908,-19.989013671875,-0.7171630859375,-2.74658203125
2.2862499,8.719682693481445,-4.24970817565918,0.6823474764823914,-20.01953125,-1.220703125,-2.8076171875
2.2887499,8.686163902282715,-4.302380561828613,0.6440402865409851,-19.7296142578125,-1.556396484375,-2.6702880859375
2.2912499,8.655038833618164,-4.364629745483398,0.6033388376235962,-19.4091796875,-1.983642578125,-2.4871826171875
2.2937499,8.614337921142578,-4.414907932281494,0.545877993106842,-19.22607421875,-2.3040771484375,-2.532958984375
2.2962499,8.5903959274292,-4.46518611907959,0.49559974670410156,-18.8140869140625,-2.9449462890625,-2.3956298828125
2.2987499,8.56645393371582,-4.505887508392334,0.4357447028160095,-18.12744140625,-3.4942626953125,-2.13623046875
2.3012499,8.56645393371582,-4.537012100219727,0.38067805767059326,-17.4102783203125,-3.936767578125,-1.861572265625
2.3037499,8.576030731201172,-4.563348293304443,0.3232172429561615,-17.08984375,-4.5318603515625,-1.6326904296875
2.3062499,8.597578048706055,-4.594472885131836,0.2825157940387726,-16.6473388671875,-4.852294921875,-1.495361328125
2.3087499,8.616731643676758,-4.620809078216553,0.24420857429504395,-16.0369873046875,-5.218505859375,-0.9613037109375
2.3112499,8.638279914855957,-4.656722068786621,0.22505496442317963,-15.411376953125,-5.523681640625,-0.732421875
2.3137499,8.65982723236084,-4.67827033996582,0.2059013396501541,-14.556884765625,-5.8746337890625,-0.4730224609375
2.3162499,8.700529098510742,-4.704606533050537,0.17956513166427612,-13.1378173828125,-6.6680908203125,-0.3662109375
2.3187499,8.724471092224121,-4.6950297355651855,0.16998831927776337,-12.63427734375,-7.0648193359375,-0.0457763671875
2.3212498999999998,8.755595207214355,-4.685452938079834,0.16998831927776337,-12.1307373046875,-7.6141357421875,0.1983642578125
2.3237499,8.793902397155762,-4.659116744995117,0.16759411990642548,-11.627197265625,-7.9345703125,0.3509521484375
2.3262499,8.832210540771484,-4.630385875701904,0.1604115068912506,-11.4593505859375,-7.9193115234375,0.54931640625
2.3287499,8.875306129455566,-4.599261283874512,0.1604115068912506,-10.833740234375,-7.9803466796875,0.640869140625
2.3312499,8.918401718139648,-4.563348293304443,0.15083470940589905,-10.5133056640625,-8.2550048828125,0.6256103515625
2.3337499,8.956708908081055,-4.532223701477051,0.15562310814857483,-10.7574462890625,-8.514404296875,0.6256103515625
2.3362499,8.990227699279785,-4.505887508392334,0.1628057211637497,-10.6048583984375,-8.5601806640625,0.7781982421875
2.3387499,9.02135181427002,-4.479551315307617,0.1628057211637497,-10.4217529296875,-8.4991455078125,0.8392333984375
2.3412498999999998,9.050082206726074,-4.467580318450928,0.16759411990642548,-10.6353759765625,-8.5906982421875,0.91552734375
2.3437499,9.05247688293457,-4.4508209228515625,0.15322890877723694,-10.650634765625,-8.6822509765625,0.8544921875
2.3462499,9.05247688293457,-4.446032524108887,0.13407529890537262,-10.772705078125,-8.6212158203125,0.9002685546875
2.3487499,9.038111686706543,-4.438849925994873,0.09816227108240128,-10.955810546875,-8.7432861328125,0.8697509765625
2.3512499,9.014169692993164,-4.426878929138184,0.05985504388809204,-11.1541748046875,-8.6822509765625,0.885009765625
2.3537499,8.983044624328613,-4.412513732910156,0.016759412363171577,-11.5509033203125,-8.6212158203125,0.91552734375
2.3562499,8.96389102935791,-4.402936935424805,-0.014365210197865963,-12.2222900390625,-8.48388671875,0.79345703125
2.3587499,8.937555313110352,-4.383783340454102,-0.038307227194309235,-12.3291015625,-8.697509765625,0.7171630859375
2.3612499,8.920795440673828,-4.378994941711426,-0.05506663769483566,-12.664794921875,-8.7890625,0.8087158203125
2.3637499,8.908824920654297,-4.37420654296875,-0.07900865375995636,-13.0767822265625,-8.4686279296875,0.7476806640625
2.3662499,8.899248123168945,-4.378994941711426,-0.090979665517807,-13.397216796875,-8.453369140625,0.79345703125
2.3687499,8.889671325683594,-4.383783340454102,-0.10534487664699554,-13.48876953125,-8.6212158203125,0.4730224609375
2.3712499,8.887276649475098,-4.393360137939453,-0.11013327538967133,-14.1754150390625,-8.4228515625,0.518798828125
2.3737499,8.882488250732422,-4.395754337310791,-0.11013327538967133,-14.5263671875,-8.36181640625,0.6103515625
2.3762499,8.884882926940918,-4.402936935424805,-0.10534487664699554,-14.8773193359375,-8.48388671875,0.5645751953125
2.3787499,8.892065048217773,-4.395754337310791,-0.10773907601833344,-15.2130126953125,-8.1939697265625,0.5035400390625
2.3812499,8.901641845703125,-4.400542736053467,-0.09816227108240128,-15.838623046875,-8.026123046875,0.5035400390625
2.3837498999999998,8.918401718139648,-4.398148536682129,-0.0933738648891449,-16.17431640625,-7.8582763671875,0.54931640625
2.3862499,8.932766914367676,-4.4077253341674805,-0.090979665517807,-16.3116455078125,-7.8125,0.4730224609375
2.3887499,8.944737434387207,-4.412513732910156,-0.08140286058187485,-16.2811279296875,-7.720947265625,0.457763671875
2.3912499,8.944737434387207,-4.422090530395508,-0.06703764945268631,-16.4337158203125,-7.415771484375,0.1678466796875
2.3937499,8.935160636901855,-4.438849925994873,-0.05506663769483566,-16.571044921875,-7.3089599609375,0.244140625
2.3962499,8.916007041931152,-4.4508209228515625,-0.047884032130241394,-16.5252685546875,-7.080078125,0.18310546875
2.3987499,8.887276649475098,-4.4723687171936035,-0.033518824726343155,-16.54052734375,-6.927490234375,0.18310546875
2.4012499,8.851364135742188,-4.484339714050293,-0.033518824726343155,-16.29638671875,-6.89697265625,0.1220703125
2.4037498999999998,8.813055992126465,-4.505887508392334,-0.026336219161748886,-16.17431640625,-6.7596435546875,0.2593994140625
2.4062499,8.779537200927734,-4.532223701477051,-0.014365210197865963,-16.2506103515625,-6.7901611328125,0.1983642578125
2.4087499,8.746018409729004,-4.551377296447754,-0.009576806798577309,-15.6097412109375,-6.8206787109375,0.274658203125
2.4112499,8.731653213500977,-4.58968448638916,0.004788403399288654,-15.472412109375,-6.8359375,0.48828125
2.4137499,8.712499618530273,-4.608838081359863,0.011971008032560349,-14.7552490234375,-6.805419921875,0.6866455078125
2.4162499,8.698134422302246,-4.639962673187256,0.021547814831137657,-14.190673828125,-6.927490234375,0.7171630859375
2.4187499,8.69095230102539,-4.663905143737793,0.028730420395731926,-13.427734375,-7.32421875,0.946044921875
2.4212499,8.676587104797363,-4.685452938079834,0.026336219161748886,-12.6953125,-7.171630859375,1.190185546875
2.4237499,8.65982723236084,-4.707000732421875,0.021547814831137657,-11.7950439453125,-6.9732666015625,1.5716552734375
2.4262499,8.640673637390137,-4.721365928649902,0.002394201699644327,-11.138916015625,-7.1868896484375,1.861572265625
2.4287499,8.616731643676758,-4.738125324249268,-0.0071826050989329815,-10.589599609375,-7.3699951171875,2.3651123046875
2.4312499,8.585607528686523,-4.742913722991943,-0.019153613597154617,-9.4757080078125,-7.3699951171875,2.7313232421875
2.4337499,8.554482460021973,-4.738125324249268,-0.023942016065120697,-8.7432861328125,-7.659912109375,2.99072265625
2.4362499,8.530540466308594,-4.72376012802124,-0.021547814831137657,-8.331298828125,-7.9803466796875,3.1890869140625
2.4387499,8.51138687133789,-4.697423934936523,-0.023942016065120697,-7.5531005859375,-8.209228515625,3.60107421875
2.4412499,8.508993148803711,-4.67827033996582,-0.019153613597154617,-6.89697265625,-8.1634521484375,3.7078857421875
2.4437499,8.518569946289062,-4.659116744995117,-0.021547814831137657,-6.04248046875,-8.2244873046875,4.058837890625
2.4462498999999998,8.528146743774414,-4.639962673187256,-0.019153613597154617,-5.3253173828125,-8.1787109375,4.241943359375
2.4487499,8.537723541259766,-4.611232280731201,-0.026336219161748886,-4.8828125,-8.3770751953125,4.5928955078125
2.4512499,8.540117263793945,-4.5609540939331055,-0.026336219161748886,-4.7760009765625,-8.3770751953125,4.5928955078125
2.4537499,8.542511940002441,-4.51067590713501,-0.028730420395731926,-4.5318603515625,-8.36181640625,4.6539306640625
2.4562499,8.547300338745117,-4.4532151222229,-0.026336219161748886,-4.3182373046875,-8.636474609375,5.096435546875
2.4587499,8.556877136230469,-4.410119533538818,-0.019153613597154617,-4.1961669921875,-8.697509765625,5.126953125
2.4612499,8.56884765625,-4.369418144226074,-0.014365210197865963,-4.2266845703125,-8.6517333984375,5.2337646484375
2.4637499,8.585607528686523,-4.331110954284668,-0.011971008032560349,-4.3792724609375,-8.544921875,5.279541015625
2.4662498999999998,8.607154846191406,-4.292803764343262,-0.004788403399288654,-4.5318603515625,-8.5601806640625,5.3863525390625
2.4687499,8.631096839904785,-4.2544965744018555,-0.004788403399288654,-4.94384765625,-8.4991455078125,5.645751953125
2.4712499,8.65982723236084,-4.223371982574463,-0.002394201699644327,-5.3253173828125,-8.2550048828125,5.7525634765625
2.4737499,8.681375503540039,-4.194641590118408,-0.009576806798577309,-5.523681640625,-8.209228515625,5.767822265625
2.4762499,8.702922821044922,-4.168305397033691,-0.016759412363171577,-6.103515625,-8.2244873046875,5.9051513671875
2.4787499,8.705317497253418,-4.132391929626465,-0.035913024097681046,-6.7291259765625,-8.1024169921875,6.134033203125
2.4812499,8.695740699768066,-4.086902141571045,-0.05746084079146385,-7.3394775390625,-8.026123046875,6.195068359375
2.4837499,8.674192428588867,-4.031835556030273,-0.07182604819536209,-8.1024169921875,-7.7056884765625,6.3018798828125
2.4862499,8.645462036132812,-3.9839515686035156,-0.0933738648891449,-9.063720703125,-7.720947265625,6.439208984375
2.4887499,8.619126319885254,-3.9384617805480957,-0.10773907601833344,-9.918212890625,-7.7667236328125,6.3629150390625
2.4912499,8.595184326171875,-3.909731388092041,-0.11971008777618408,-10.8489990234375,-7.537841796875,6.4849853515625
2.4937499,8.573636054992676,-3.892971992492676,-0.1364694982767105,-11.5509033203125,-7.293701171875,6.3018798828125
2.4962499,8.552088737487793,-3.8786067962646484,-0.14844051003456116,-12.3443603515625,-7.1868896484375,6.256103515625
2.4987499,8.542511940002441,-3.8786067962646484,-0.1604115068912506,-13.0767822265625,-7.2021484375,6.256103515625
2.5012499,8.528146743774414,-3.8810009956359863,-0.16519992053508759,-13.6260986328125,-6.9427490234375,6.3934326171875
2.5037499,8.523358345031738,-3.892971992492676,-0.16519992053508759,-14.46533203125,-7.01904296875,6.16455078125
2.5062499,8.51138687133789,-3.9217023849487305,-0.1604115068912506,-14.9078369140625,-7.049560546875,6.16455078125
2.5087498999999998,8.501810073852539,-3.952826976776123,-0.15801730751991272,-15.5487060546875,-6.9427490234375,6.5765380859375
2.5112499,8.489839553833008,-3.995922565460205,-0.15562310814857483,-15.9454345703125,-6.8359375,6.6375732421875
2.5137499,8.480262756347656,-4.034229755401611,-0.15801730751991272,-16.204833984375,-6.683349609375,6.561279296875
2.5162499,8.47786808013916,-4.0749311447143555,-0.16519992053508759,-16.7999267578125,-6.4239501953125,6.591796875
2.5187499,8.470685958862305,-4.098873138427734,-0.17238251864910126,-17.15087890625,-6.3629150390625,6.6680908203125
2.5212499,8.473079681396484,-4.129997730255127,-0.1843535304069519,-17.51708984375,-6.2255859375,6.683349609375
2.5237499,8.485051155090332,-4.173093795776367,-0.2082955539226532,-17.9290771484375,-5.5389404296875,6.8511962890625
2.5262499,8.504204750061035,-4.19224739074707,-0.22026655077934265,-17.9443359375,-5.2947998046875,7.3089599609375
2.5287498999999998,8.528146743774414,-4.20421838760376,-0.22026655077934265,-18.035888671875,-5.0201416015625,7.38525390625
2.5312499,8.554482460021973,-4.211400985717773,-0.2106897532939911,-18.096923828125,-4.8065185546875,7.50732421875
2.5337499,8.583212852478027,-4.2090067863464355,-0.20111294090747833,-18.4478759765625,-4.2572021484375,7.537841796875
2.5362499,8.607154846191406,-4.206612586975098,-0.17956513166427612,-18.310546875,-3.9215087890625,7.2479248046875
2.5387499,8.628703117370605,-4.20421838760376,-0.15801730751991272,-18.1427001953125,-3.6468505859375,7.171630859375
2.5412499,8.65743350982666,-4.225766181945801,-0.12928688526153564,-18.4783935546875,-3.173828125,7.080078125
2.5437499,8.678980827331543,-4.242525577545166,-0.10534487664699554,-18.4783935546875,-2.8839111328125,7.4005126953125
2.5462499,8.702922821044922,-4.273650169372559,-0.07661445438861847,-18.2037353515625,-2.349853515625,7.2479248046875
2.5487499,8.724471092224121,-4.2975921630859375,-0.05746084079146385,-18.2037353515625,-1.6937255859375,7.110595703125
