# Time (seconds),Accel_X,Accel_Y,Accel_Z,Gyro_X,Gyro_Y,Gyro_Z
0.0012499,0.5003881454467773,-6.598419666290283,8.1139497756958,17.9595947265625,77.0263671875,8.1024169921875
0.0037499,0.507570743560791,-6.495469093322754,8.133103370666504,18.12744140625,76.690673828125,7.1868896484375
0.0062499,0.5171475410461426,-6.368576526641846,8.216899871826172,18.1884765625,77.1942138671875,5.92041015625
0.0087499,0.5195417404174805,-6.246472358703613,8.317456245422363,18.7225341796875,77.6824951171875,4.9285888671875
0.0112499,0.5051765441894531,-6.119579315185547,8.432378768920898,18.707275390625,77.301025390625,4.3792724609375
0.0137499,0.47165772318840027,-6.00226354598999,8.537723541259766,18.0206298828125,77.0111083984375,3.4332275390625
0.016249899999999998,0.4165911078453064,-5.8873419761657715,8.638279914855957,17.2882080078125,76.7974853515625,2.3956298828125
0.0187499,0.35673606395721436,-5.772420406341553,8.729259490966797,16.2506103515625,76.080322265625,1.861572265625
0.021249900000000002,0.28969839215278625,-5.671864032745361,8.820239067077637,15.3350830078125,74.9969482421875,1.129150390625
0.023749899999999997,0.2298433631658554,-5.585672378540039,8.9064302444458,14.862060546875,74.4781494140625,0.6561279296875
0.0262499,0.16519992053508759,-5.530605792999268,9.002198219299316,14.5111083984375,74.0509033203125,0.244140625
0.028749900000000002,0.11971008777618408,-5.489904403686523,9.119514465332031,13.916015625,73.4100341796875,-0.1983642578125
0.031249899999999997,0.090979665517807,-5.475539207458496,9.27034854888916,12.8936767578125,72.08251953125,-0.30517578125
0.0337499,0.08140286058187485,-5.458779811859131,9.452308654785156,12.1612548828125,71.014404296875,-0.91552734375
0.0362499,0.10534487664699554,-5.458779811859131,9.660603523254395,12.20703125,70.1904296875,-1.617431640625
0.0387499,0.15083470940589905,-5.458779811859131,9.852140426635742,12.1002197265625,69.1375732421875,-2.01416015625
0.0412499,0.19393034279346466,-5.47075080871582,10.017339706420898,13.031005859375,68.084716796875,-2.685546875
0.0437499,0.24181437492370605,-5.489904403686523,10.160991668701172,14.7552490234375,66.83349609375,-3.5552978515625
0.0462499,0.2777273952960968,-5.530605792999268,10.27591323852539,16.1590576171875,65.582275390625,-4.0283203125
0.0487499,0.3016694188117981,-5.580883979797363,10.395624160766602,16.9219970703125,64.697265625,-4.2877197265625
0.0512499,0.31364041566848755,-5.664681434631348,10.512939453125,17.2576904296875,64.453125,-4.5318603515625
0.053749899999999996,0.2992752194404602,-5.762843608856201,10.608707427978516,16.9219970703125,64.544677734375,-4.82177734375
0.0562499,0.26336219906806946,-5.870582580566406,10.682928085327148,16.4794921875,63.4307861328125,-4.8370361328125
0.0587499,0.20111294090747833,-5.966350555419922,10.716446876525879,16.41845703125,62.5152587890625,-4.425048828125
0.061249899999999996,0.12928688526153564,-6.050147533416748,10.706870079040527,16.4794921875,62.5,-4.150390625
0.0637499,0.043095629662275314,-6.121973514556885,10.651803016662598,16.2200927734375,63.262939453125,-4.3182373046875
0.0662499,-0.047884032130241394,-6.172252178192139,10.548852920532227,15.9454345703125,63.29345703125,-4.119873046875
0.0687499,-0.11971008777618408,-6.208165168762207,10.412383079528809,15.4571533203125,62.103271484375,-3.23486328125
0.0712499,-0.14604631066322327,-6.229712963104248,10.254365921020508,14.6942138671875,61.737060546875,-3.0059814453125
0.0737499,-0.12928688526153564,-6.2416839599609375,10.074800491333008,13.5040283203125,62.80517578125,-2.8533935546875
0.0762499,-0.06703764945268631,-6.2416839599609375,9.880870819091797,12.237548828125,63.7664794921875,-2.9449462890625
0.0787499,-0.033518824726343155,-6.2201361656188965,9.658209800720215,11.4898681640625,64.3310546875,-2.777099609375
0.0812499,-0.004788403399288654,-6.1770405769348145,9.397241592407227,10.6201171875,63.6444091796875,-2.532958984375
0.0837499,-0.031124621629714966,-6.102819919586182,9.133879661560059,8.9569091796875,63.5223388671875,-3.0059814453125
0.0862499,-0.08379705995321274,-6.007051944732666,8.860940933227539,7.7362060546875,64.3768310546875,-3.3416748046875
0.0887499,-0.14604631066322327,-5.916072368621826,8.609549522399902,6.866455078125,63.812255859375,-3.7078857421875
0.0912499,-0.22505496442317963,-5.832275390625,8.396465301513672,5.92041015625,63.1866455078125,-4.425048828125
0.0937499,-0.29209262132644653,-5.762843608856201,8.214506149291992,5.0506591796875,63.8275146484375,-5.4779052734375
0.0962499,-0.33997663855552673,-5.717353820800781,8.066065788269043,4.4097900390625,64.1632080078125,-6.439208984375
0.0987499,-0.36152446269989014,-5.688623428344727,7.94635534286499,4.5318603515625,63.6749267578125,-7.0037841796875
0.1012499,-0.35434186458587646,-5.679046630859375,7.843404769897461,4.2877197265625,63.018798828125,-7.38525390625
0.1037499,-0.33758243918418884,-5.6910176277160645,7.7428483963012695,4.33349609375,63.140869140625,-7.8887939453125
0.1062499,-0.3064578175544739,-5.69580602645874,7.675810813903809,5.5999755859375,62.5457763671875,-8.8043212890625
0.1087499,-0.28730419278144836,-5.686229228973389,7.654263019561768,6.3934326171875,61.4776611328125,-8.9111328125
0.1112499,-0.2753331959247589,-5.647922039031982,7.69735860824585,6.5460205078125,61.8896484375,-9.796142578125
0.1137499,-0.2825157940387726,-5.588066577911377,7.793126583099365,7.14111328125,61.4471435546875,-10.4827880859375
0.1162499,-0.3758896589279175,-5.473145008087158,7.989450931549072,8.2550048828125,60.0738525390625,-11.871337890625
0.1187499,-0.3758896589279175,-5.473145008087158,7.989450931549072,8.2550048828125,60.0738525390625,-11.871337890625
0.1212499,-0.47405192255973816,-5.396530628204346,8.070854187011719,11.8560791015625,57.3883056640625,-13.641357421875
0.1237499,-0.47405192255973816,-5.396530628204346,8.070854187011719,11.8560791015625,57.3883056640625,-13.641357421875
0.1262499,-0.524330198764801,-5.284003257751465,8.176198959350586,16.693115234375,55.4656982421875,-15.4266357421875
0.1287499,-0.524330198764801,-5.284003257751465,8.176198959350586,16.693115234375,55.4656982421875,-15.4266357421875
0.1312499,-0.5482721924781799,-5.078101634979248,8.429984092712402,20.843505859375,55.3131103515625,-18.1732177734375
0.1337499,-0.5482721924781799,-5.078101634979248,8.429984092712402,20.843505859375,55.3131103515625,-18.1732177734375
0.1362499,-0.44532153010368347,-4.924872875213623,8.83939266204834,25.81787109375,51.4068603515625,-19.04296875
0.1387499,-0.44532153010368347,-4.924872875213623,8.83939266204834,25.81787109375,51.4068603515625,-19.04296875
0.1412499,-0.35673606395721436,-4.855441093444824,9.385271072387695,25.848388671875,53.314208984375,-20.9808349609375
0.1437499,-0.35673606395721436,-4.855441093444824,9.385271072387695,25.848388671875,53.314208984375,-20.9808349609375
0.1462499,-0.4572925269603729,-4.730942726135254,10.06043529510498,28.564453125,51.2542724609375,-22.4761962890625
0.1487499,-0.4572925269603729,-4.730942726135254,10.06043529510498,28.564453125,51.2542724609375,-22.4761962890625
0.1512499,-0.5937620401382446,-4.6040496826171875,10.757147789001465,27.862548828125,50.9033203125,-23.7579345703125
0.1537499,-0.5937620401382446,-4.6040496826171875,10.757147789001465,27.862548828125,50.9033203125,-23.7579345703125
0.1562499,-0.730231523513794,-4.532223701477051,11.202469825744629,27.435302734375,49.0875244140625,-24.47509765625
0.1587499,-0.730231523513794,-4.532223701477051,11.202469825744629,27.435302734375,49.0875244140625,-24.47509765625
0.1612499,-0.9217676520347595,-4.505887508392334,11.372458457946777,25.482177734375,49.560546875,-25.482177734375
0.1637499,-0.9217676520347595,-4.505887508392334,11.372458457946777,25.482177734375,49.560546875,-25.482177734375
0.1662499,-1.070208191871643,-4.49870491027832,11.39400577545166,22.0794677734375,48.095703125,-26.6265869140625
0.1687499,-1.070208191871643,-4.49870491027832,11.39400577545166,22.0794677734375,48.095703125,-26.6265869140625
0.1712499,-1.0342950820922852,-4.537012100219727,11.233593940734863,18.218994140625,47.8668212890625,-27.008056640625
0.1737499,-1.0342950820922852,-4.537012100219727,11.233593940734863,18.218994140625,47.8668212890625,-27.008056640625
0.17624990000000001,-0.8020575642585754,-4.733336925506592,10.821791648864746,17.120361328125,46.5087890625,-27.64892578125
0.1787499,-0.8020575642585754,-4.733336925506592,10.821791648864746,17.120361328125,46.5087890625,-27.64892578125
0.1812499,-0.7206547260284424,-5.027823448181152,10.304644584655762,15.0604248046875,47.4700927734375,-27.130126953125
0.1837499,-0.7206547260284424,-5.027823448181152,10.304644584655762,15.0604248046875,47.4700927734375,-27.130126953125
0.1862499,-0.9097966551780701,-5.233725070953369,9.806650161743164,13.4429931640625,44.6014404296875,-26.0772705078125
0.1887499,-0.9097966551780701,-5.233725070953369,9.806650161743164,13.4429931640625,44.6014404296875,-26.0772705078125
0.1912499,-1.139639973640442,-5.252878665924072,9.279925346374512,10.650634765625,45.196533203125,-24.658203125
0.1937499,-1.139639973640442,-5.252878665924072,9.279925346374512,10.650634765625,45.196533203125,-24.658203125
0.1962499,-1.2832920551300049,-5.114014625549316,8.753201484680176,9.4451904296875,44.219970703125,-24.0020751953125
0.1987499,-1.2832920551300049,-5.114014625549316,8.753201484680176,9.4451904296875,44.219970703125,-24.0020751953125
0.2012499,-1.2689268589019775,-5.027823448181152,8.47547435760498,8.9874267578125,44.1436767578125,-24.505615234375
0.2037499,-1.2689268589019775,-5.027823448181152,8.47547435760498,8.9874267578125,44.1436767578125,-24.505615234375
0.2062499,-1.0678139925003052,-5.0900726318359375,8.463502883911133,8.331298828125,44.464111328125,-25.177001953125
0.20874990000000002,-1.0678139925003052,-5.0900726318359375,8.463502883911133,8.331298828125,44.464111328125,-25.177001953125
0.2112499,-0.8068459630012512,-5.137956619262695,8.341399192810059,7.6141357421875,47.30224609375,-25.9246826171875
0.2137499,-0.8068459630012512,-5.137956619262695,8.341399192810059,7.6141357421875,47.30224609375,-25.9246826171875
0.2162499,-0.6344634294509888,-5.109226226806641,8.015787124633789,5.9967041015625,47.91259765625,-26.1383056640625
0.2187499,-0.6344634294509888,-5.109226226806641,8.015787124633789,5.9967041015625,47.91259765625,-26.1383056640625
0.2212499,-0.569819986820221,-5.039794445037842,7.716512203216553,1.953125,47.515869140625,-25.9857177734375
0.2237499,-0.569819986820221,-5.039794445037842,7.716512203216553,1.953125,47.515869140625,-25.9857177734375
0.2262499,-0.5817909836769104,-4.884171485900879,7.615955829620361,-3.265380859375,47.271728515625,-26.0772705078125
0.2287499,-0.5817909836769104,-4.884171485900879,7.615955829620361,-3.265380859375,47.271728515625,-26.0772705078125
0.2312499,-0.6536170840263367,-4.680664539337158,7.723694801330566,-8.148193359375,47.6837158203125,-27.069091796875
0.2337499,-0.6536170840263367,-4.680664539337158,7.723694801330566,-8.148193359375,47.6837158203125,-27.069091796875
0.2362499,-0.7948749661445618,-4.541800498962402,7.903259754180908,-11.962890625,47.2564697265625,-27.099609375
0.23874990000000001,-0.7948749661445618,-4.541800498962402,7.903259754180908,-11.962890625,47.2564697265625,-27.099609375
0.2412499,-0.9361328482627869,-4.5609540939331055,7.996633529663086,-14.9078369140625,47.7142333984375,-27.89306640625
0.2437499,-0.9361328482627869,-4.5609540939331055,7.996633529663086,-14.9078369140625,47.7142333984375,-27.89306640625
0.2462499,-0.9816226959228516,-4.766855716705322,8.125920295715332,-16.29638671875,46.6461181640625,-27.4505615234375
0.2487499,-0.9816226959228516,-4.766855716705322,8.125920295715332,-16.29638671875,46.6461181640625,-27.4505615234375
0.2512499,-0.9552865028381348,-5.054159641265869,8.446743965148926,-18.646240234375,46.6461181640625,-27.3284912109375
0.25374990000000003,-0.9552865028381348,-5.054159641265869,8.446743965148926,-18.646240234375,46.6461181640625,-27.3284912109375
0.25624990000000003,-0.9481038451194763,-5.315127849578857,8.786720275878906,-19.6990966796875,47.1343994140625,-26.3214111328125
0.25874990000000003,-0.9481038451194763,-5.315127849578857,8.786720275878906,-19.6990966796875,47.1343994140625,-26.3214111328125
0.26124990000000003,-0.9792284965515137,-5.4659624099731445,9.01895809173584,-21.2554931640625,48.065185546875,-24.7344970703125
0.26374990000000004,-0.9792284965515137,-5.4659624099731445,9.01895809173584,-21.2554931640625,48.065185546875,-24.7344970703125
0.26624990000000004,-0.9696516990661621,-5.4444146156311035,9.121908187866211,-22.2015380859375,47.210693359375,-23.2086181640625
0.26874990000000004,-0.9696516990661621,-5.4444146156311035,9.121908187866211,-22.2015380859375,47.210693359375,-23.2086181640625
0.27124990000000004,-0.9097966551780701,-5.351040840148926,9.17697525024414,-25.634765625,48.858642578125,-21.5606689453125
0.27374990000000005,-0.9097966551780701,-5.351040840148926,9.17697525024414,-25.634765625,48.858642578125,-21.5606689453125
0.27624990000000005,-0.8236053586006165,-5.370194435119629,9.090784072875977,-28.7322998046875,49.285888671875,-19.5465087890625
0.27874990000000005,-0.8236053586006165,-5.370194435119629,9.090784072875977,-28.7322998046875,49.285888671875,-19.5465087890625
0.28124990000000005,-0.6344634294509888,-5.56173038482666,8.83939266204834,-32.1502685546875,49.3011474609375,-16.632080078125
0.28374990000000005,-0.6344634294509888,-5.56173038482666,8.83939266204834,-32.1502685546875,49.3011474609375,-16.632080078125
0.28624990000000006,-0.1867477297782898,-5.920860767364502,8.667010307312012,-34.3780517578125,51.544189453125,-14.22119140625
0.28874990000000006,-0.1867477297782898,-5.920860767364502,8.667010307312012,-34.3780517578125,51.544189453125,-14.22119140625
0.2912499,1.0079588890075684,-6.464344501495361,8.786720275878906,-27.3284912109375,50.0640869140625,-12.1612548828125
0.2937499,1.0079588890075684,-6.464344501495361,8.786720275878906,-27.3284912109375,50.0640869140625,-12.1612548828125
0.2962499,1.601720929145813,-6.66785192489624,8.583212852478027,-29.4342041015625,63.8275146484375,-9.2315673828125
0.2987499,1.601720929145813,-6.66785192489624,8.583212852478027,-29.4342041015625,63.8275146484375,-9.2315673828125
0.3012499,0.10055647045373917,-6.291962146759033,7.63989782333374,-25.909423828125,53.0242919921875,-3.41796875
0.3037499,0.10055647045373917,-6.291962146759033,7.63989782333374,-25.909423828125,53.0242919921875,-3.41796875
0.3062499,-1.0797849893569946,-6.0836663246154785,7.275979042053223,-18.951416015625,47.8515625,1.3580322265625
0.3087499,-0.912190854549408,-6.155492782592773,7.582436561584473,-14.556884765625,53.28369140625,2.5482177734375
0.3112499,-0.45250412821769714,-6.22731876373291,8.042123794555664,-11.53564453125,60.4705810546875,5.0048828125
0.3137499,-0.05506663769483566,-6.203376770019531,8.44434928894043,-8.7890625,62.591552734375,7.354736328125
0.31624990000000003,0.17717093229293823,-6.045359134674072,8.662221908569336,-6.591796875,62.1490478515625,9.735107421875
0.31874990000000003,0.26336219906806946,-5.822698593139648,8.65982723236084,-1.922607421875,58.2733154296875,12.542724609375
0.32124990000000003,0.26575639843940735,-5.600037574768066,8.516175270080566,3.6468505859375,58.258056640625,14.678955078125
0.32374990000000003,0.2992752194404602,-5.473145008087158,8.343792915344238,4.69970703125,63.4613037109375,16.29638671875
0.32624990000000004,0.23702596127986908,-5.4659624099731445,8.255207061767578,7.904052734375,64.51416015625,18.6614990234375
0.32874990000000004,0.15083470940589905,-5.5545477867126465,8.26239013671875,13.3819580078125,63.5223388671875,21.331787109375
0.33124990000000004,-0.004788403399288654,-5.7341132164001465,8.374917984008789,17.2576904296875,62.5457763671875,23.92578125
0.33374990000000004,-0.12928688526153564,-5.935225963592529,8.489839553833008,18.3563232421875,63.1866455078125,27.6947021484375
0.33624990000000005,-0.1388636976480484,-6.1315507888793945,8.640673637390137,15.5029296875,65.7196044921875,31.890869140625
0.33874990000000005,-0.05506663769483566,-6.323086738586426,8.793902397155762,14.3890380859375,66.5283203125,37.628173828125
0.34124990000000005,-0.021547814831137657,-6.466738700866699,8.992621421813965,13.61083984375,64.605712890625,43.487548828125
0.34374990000000005,-0.05985504388809204,-6.517016887664795,9.08838939666748,10.8184814453125,67.718505859375,44.6319580078125
0.34624990000000005,-0.26815059781074524,-6.421248912811279,9.069235801696777,10.1318359375,71.6094970703125,43.975830078125
0.34874990000000006,-0.6560112833976746,-6.133944988250732,8.877699851989746,17.7459716796875,67.9473876953125,46.8292236328125
0.35124990000000006,-0.9864110946655273,-5.7341132164001465,8.552088737487793,23.345947265625,64.544677734375,48.0804443359375
0.3537499,-1.2090718746185303,-5.341464042663574,8.303091049194336,24.4598388671875,64.6209716796875,49.1790771484375
0.3562499,-1.357512354850769,-5.03021764755249,8.178592681884766,24.3988037109375,65.2618408203125,51.4678955078125
0.3587499,-1.3838485479354858,-4.843470096588135,8.133103370666504,24.4598388671875,67.1539306640625,51.727294921875
0.3612499,-1.460463047027588,-4.716577529907227,8.133103370666504,25.146484375,68.115234375,51.8035888671875
0.3637499,-1.5825673341751099,-4.608838081359863,8.073247909545898,23.468017578125,67.230224609375,53.3599853515625
0.3662499,-1.9273324012756348,-4.422090530395508,7.977479934692383,18.707275390625,67.1234130859375,55.4046630859375
0.3687499,-2.2601263523101807,-4.168305397033691,7.7428483963012695,12.786865234375,65.399169921875,54.840087890625
0.3712499,-2.8227639198303223,-3.8067808151245117,7.546523571014404,7.476806640625,61.4013671875,56.243896484375
0.3737499,-3.2393548488616943,-3.423708438873291,7.264008045196533,3.35693359375,58.3343505859375,55.72509765625
0.3762499,-3.6152446269989014,-3.00711727142334,7.01979923248291,0.3662109375,56.976318359375,54.6417236328125
0.37874990000000003,-3.907337188720703,-2.6360161304473877,6.856993675231934,-2.4261474609375,57.708740234375,53.9703369140625
0.38124990000000003,-4.10366153717041,-2.343923568725586,6.689399719238281,-5.43212890625,58.6700439453125,50.9796142578125
0.38374990000000003,-4.381389141082764,-2.123656988143921,6.57926607131958,-7.1868896484375,58.2122802734375,48.9044189453125
0.38624990000000003,-4.637568473815918,-2.0470423698425293,6.402095317840576,-8.1787109375,58.1512451171875,46.6461181640625
0.38874990000000004,-4.908113479614258,-2.0638017654418945,6.224924564361572,-8.5296630859375,56.1065673828125,44.73876953125
0.39124990000000004,-5.193023681640625,-2.1571757793426514,6.04775333404541,-9.70458984375,55.7403564453125,43.8385009765625
0.39374990000000004,-5.449203014373779,-2.3127987384796143,5.944802761077881,-11.6729736328125,56.0455322265625,41.9769287109375
0.39624990000000004,-5.722142219543457,-2.516305923461914,5.884947776794434,-11.199951171875,54.0771484375,39.5965576171875
0.39874990000000005,-5.983109951019287,-2.7126305103302,5.872976779937744,-10.345458984375,52.642822265625,37.841796875
0.40124990000000005,-6.22731876373291,-2.918531894683838,5.91128396987915,-11.04736328125,52.4749755859375,36.407470703125
0.40374990000000005,-6.354211330413818,-3.1100680828094482,5.92325496673584,-11.4898681640625,51.1322021484375,34.5001220703125
0.40624990000000005,-6.172252178192139,-3.318363666534424,6.023811340332031,-12.054443359375,49.5147705078125,33.660888671875
0.40874990000000005,-5.530605792999268,-3.5936968326568604,6.236895561218262,-11.8408203125,46.3104248046875,33.7066650390625
0.41124990000000006,-4.414907932281494,-3.912125587463379,6.586448669433594,-13.2293701171875,46.2493896484375,33.416748046875
0.41374990000000006,-2.980781078338623,-4.220977783203125,7.043741226196289,-16.8914794921875,49.591064453125,32.6995849609375
0.41624990000000006,-1.558625340461731,-4.4532151222229,7.489062786102295,-17.181396484375,51.3458251953125,30.731201171875
0.4187499,-0.395043283700943,-4.594472885131836,7.785943984985352,-15.9454345703125,51.788330078125,28.4881591796875
0.4212499,0.3878606855869293,-4.685452938079834,7.8529815673828125,-15.9759521484375,51.3763427734375,26.3824462890625
0.4237499,0.7613561153411865,-4.807557106018066,7.728483200073242,-15.9759521484375,49.896240234375,25.08544921875
0.4262499,0.8355764150619507,-4.999093055725098,7.450755596160889,-16.11328125,48.0804443359375,23.98681640625
0.4287499,0.6943184733390808,-5.274426460266113,7.144298076629639,-15.8538818359375,44.5709228515625,23.3917236328125
0.4312499,0.43335050344467163,-5.609614372253418,6.926425457000732,-13.427734375,40.7562255859375,22.5982666015625
0.4337499,0.2346317619085312,-5.95677375793457,6.648698329925537,-9.33837890625,35.5224609375,20.93505859375
0.4362499,0.06224924325942993,-6.210559368133545,6.528987884521484,-9.552001953125,34.7747802734375,22.0794677734375
0.4387499,0.011971008032560349,-6.380547523498535,6.3973069190979,-7.049560546875,34.8663330078125,21.6827392578125
0.44124990000000003,0.026336219161748886,-6.445190906524658,6.382941722869873,-0.9002685546875,32.0281982421875,20.7672119140625
0.44374990000000003,0.07182604819536209,-6.449979305267334,6.452373504638672,1.7547607421875,31.1431884765625,20.08056640625
0.44624990000000003,0.11971008777618408,-6.449979305267334,6.57926607131958,4.57763671875,31.73828125,19.012451171875
0.44874990000000003,0.1628057211637497,-6.449979305267334,6.7061591148376465,8.0718994140625,31.341552734375,17.9290771484375
0.45124990000000004,0.15562310814857483,-6.4380083084106445,6.84981107711792,9.7198486328125,30.364990234375,17.6849365234375
0.45374990000000004,0.1173158809542656,-6.411672115325928,7.005434036254883,8.819580078125,29.9530029296875,17.8375244140625
0.45624990000000004,0.019153613597154617,-6.349422931671143,7.19936466217041,7.3699951171875,28.74755859375,17.7154541015625
0.45874990000000004,-0.10773907601833344,-6.2416839599609375,7.378929615020752,6.2713623046875,28.106689453125,17.1356201171875
0.46124990000000005,-0.23942017555236816,-6.1052141189575195,7.522581577301025,4.1046142578125,27.496337890625,16.4337158203125
0.46374990000000005,-0.36152446269989014,-5.963956356048584,7.618350028991699,2.9754638671875,26.2298583984375,15.6097412109375
0.46624990000000005,-0.43095630407333374,-5.837063789367676,7.675810813903809,2.1209716796875,25.8026123046875,14.251708984375
0.46874990000000005,-0.47405192255973816,-5.729324817657471,7.704541206359863,0.885009765625,26.3824462890625,13.2293701171875
0.47124990000000005,-0.49799394607543945,-5.628767967224121,7.750030994415283,0.213623046875,26.55029296875,12.14599609375
0.47374990000000006,-0.5171475410461426,-5.513846397399902,7.8098859786987305,-0.6256103515625,26.4739990234375,10.528564453125
0.47624990000000006,-0.5650315880775452,-5.413290023803711,7.908048152923584,-2.5634765625,26.824951171875,9.1552734375
0.47874990000000006,-0.6057330369949341,-5.315127849578857,8.051700592041016,-4.82177734375,27.435302734375,7.6446533203125
0.4812499,-0.6847416758537292,-5.272032260894775,8.200140953063965,-6.7901611328125,27.9998779296875,5.7373046875
0.4837499,-0.7709329724311829,-5.233725070953369,8.341399192810059,-8.331298828125,28.6865234375,4.058837890625
0.4862499,-0.8858546018600464,-5.243301868438721,8.439560890197754,-9.6893310546875,29.11376953125,2.593994140625
0.4887499,-1.0199298858642578,-5.233725070953369,8.489839553833008,-11.383056640625,29.2510986328125,1.373291015625
0.4912499,-1.1444283723831177,-5.193023681640625,8.492233276367188,-13.4124755859375,29.5867919921875,0.213623046875
0.4937499,-1.3048399686813354,-5.114014625549316,8.451532363891602,-14.6331787109375,30.3802490234375,-1.3427734375
0.4962499,-1.460463047027588,-4.989516258239746,8.379706382751465,-14.6484375,29.9530029296875,-2.7008056640625
0.4987499,-1.6615760326385498,-4.896142482757568,8.274360656738281,-15.2130126953125,30.914306640625,-4.2877197265625
0.5012499,-1.8938134908676147,-4.853046894073486,8.14028549194336,-14.95361328125,31.7535400390625,-6.011962890625
0.5037499000000001,-2.123656988143921,-4.884171485900879,8.006210327148438,-14.5416259765625,31.25,-6.988525390625
0.5062499,-2.3367409706115723,-4.965574264526367,7.860164165496826,-14.0228271484375,30.517578125,-8.4991455078125
0.5087499000000001,-2.535459518432617,-5.051765441894531,7.752425193786621,-13.0615234375,29.1900634765625,-9.490966796875
0.5112499,-2.6599581241607666,-5.109226226806641,7.63989782333374,-13.580322265625,29.693603515625,-10.711669921875
0.5137499,-2.7485435009002686,-5.118803024291992,7.572859764099121,-13.7939453125,29.4189453125,-12.0849609375
0.5162499,-2.7892448902130127,-5.085284233093262,7.491456985473633,-13.1988525390625,28.13720703125,-12.8021240234375
0.5187499,-2.7916390895843506,-5.0014872550964355,7.407660007476807,-14.2974853515625,28.472900390625,-13.671875
0.5212499,-2.8131868839263916,-4.9152960777282715,7.304709434509277,-14.678955078125,28.2745361328125,-14.556884765625
0.5237499,-2.8562827110290527,-4.821922302246094,7.177816867828369,-13.24462890625,26.8707275390625,-15.5792236328125
0.5262499,-2.9472622871398926,-4.738125324249268,7.048529624938965,-11.260986328125,25.421142578125,-16.632080078125
0.5287499,-3.0837318897247314,-4.685452938079834,6.943184852600098,-8.97216796875,23.5137939453125,-17.669677734375
0.5312499,-3.246537446975708,-4.649539470672607,6.890512466430664,-7.171630859375,22.15576171875,-18.6309814453125
0.5337499,-3.421314239501953,-4.642356872558594,6.871358871459961,-5.523681640625,20.5535888671875,-19.6075439453125
0.5362499000000001,-3.5936968326568604,-4.651933670043945,6.9240312576293945,-4.2877197265625,18.218994140625,-20.6451416015625
0.5387499,-3.737348794937134,-4.659116744995117,7.022193431854248,-2.838134765625,16.7694091796875,-22.064208984375
0.5412499000000001,-3.8522706031799316,-4.675876140594482,7.163451671600342,-1.8157958984375,15.899658203125,-23.2696533203125
0.5437499,-3.936067581176758,-4.671087741851807,7.33583402633667,-2.044677734375,15.2587890625,-24.0325927734375
0.5462499000000001,-4.036623954772949,-4.6471452713012695,7.491456985473633,-1.2054443359375,14.801025390625,-25.4669189453125
0.5487499,-4.165910720825195,-4.608838081359863,7.592013359069824,0.1220703125,14.190673828125,-27.313232421875
0.5512499000000001,-4.352658748626709,-4.568136692047119,7.644686222076416,2.3193359375,12.3748779296875,-29.083251953125
0.5537499,-4.551377296447754,-4.575319290161133,7.6782050132751465,5.18798828125,9.4757080078125,-30.6854248046875
0.5562499000000001,-4.733336925506592,-4.659116744995117,7.738059997558594,6.591796875,7.3699951171875,-31.73828125
0.5587499,-4.841075897216797,-4.821922302246094,7.879317760467529,4.180908203125,6.8511962890625,-31.951904296875
0.5612499000000001,-4.888959884643555,-4.999093055725098,8.056488990783691,3.7078857421875,5.1422119140625,-32.3944091796875
0.5637499,-4.862623691558838,-5.240907669067383,8.307879447937012,8.544921875,-0.06103515625,-33.782958984375
0.5662499000000001,-4.7836151123046875,-5.463568210601807,8.540117263793945,13.7176513671875,-2.8839111328125,-33.660888671875
0.5687499,-4.656722068786621,-5.69580602645874,8.80587387084961,10.7421875,-0.640869140625,-33.050537109375
0.5712499000000001,-4.5154643058776855,-5.916072368621826,9.009381294250488,10.6353759765625,0.518798828125,-32.8826904296875
0.5737499,-4.398148536682129,-6.088454723358154,9.162610054016113,12.9852294921875,-0.732421875,-32.318115234375
0.5762499000000001,-4.32871675491333,-6.208165168762207,9.251194953918457,15.4571533203125,-2.0599365234375,-32.1502685546875
0.5787499,-4.3191399574279785,-6.294356346130371,9.279925346374512,17.791748046875,-3.021240234375,-31.92138671875
0.5812499,-4.335899353027344,-6.342240333557129,9.306262016296387,19.6685791015625,-4.1351318359375,-31.341552734375
0.5837499,-4.355052947998047,-6.356605529785156,9.332598686218262,21.5606689453125,-5.5694580078125,-30.8685302734375
0.5862499,-4.345476150512695,-6.332663536071777,9.3828763961792,22.39990234375,-6.4849853515625,-30.2734375
0.5887499,-4.285621166229248,-6.258443355560303,9.435548782348633,23.8189697265625,-7.293701171875,-29.35791015625
0.5912499,-4.20421838760376,-6.150704383850098,9.476250648498535,25.4364013671875,-7.14111328125,-28.74755859375
0.5937499,-4.106055736541748,-6.016628742218018,9.488221168518066,27.3590087890625,-6.6070556640625,-28.7628173828125
0.5962499,-4.034229755401611,-5.870582580566406,9.44991397857666,29.9224853515625,-6.4849853515625,-28.7933349609375
0.5987499000000001,-4.010287761688232,-5.729324817657471,9.351752281188965,32.989501953125,-7.0037841796875,-28.900146484375
0.6012499,-4.02465295791626,-5.580883979797363,9.208099365234375,35.614013671875,-7.476806640625,-28.9306640625
0.6037499000000001,-4.077325344085693,-5.4252610206604,9.047688484191895,37.41455078125,-8.4228515625,-28.839111328125
0.6062499,-4.144362926483154,-5.243301868438721,8.889671325683594,38.4521484375,-10.1165771484375,-28.8848876953125
0.6087499000000001,-4.206612586975098,-5.0254292488098145,8.762778282165527,38.9404296875,-11.90185546875,-28.5186767578125
0.6112499,-4.2544965744018555,-4.776432514190674,8.664615631103516,39.7491455078125,-13.336181640625,-28.13720703125
0.6137499000000001,-4.2951979637146,-4.491522312164307,8.588001251220703,39.61181640625,-14.2974853515625,-27.984619140625
0.6162499,-4.304774761199951,-4.199429988861084,8.508993148803711,38.6199951171875,-15.0299072265625,-27.6641845703125
0.6187499000000001,-4.316745758056641,-3.9193081855773926,8.427590370178223,37.3382568359375,-16.204833984375,-26.8096923828125
0.6212499,-4.304774761199951,-3.6750996112823486,8.329427719116211,35.247802734375,-17.0745849609375,-26.2603759765625
0.6237499000000001,-4.288015365600586,-3.4763808250427246,8.209717750549316,32.2723388671875,-18.096923828125,-25.726318359375
0.6262499,-4.230554580688477,-3.3446998596191406,8.08282470703125,29.5257568359375,-19.073486328125,-25.2838134765625
0.6287499000000001,-4.129997730255127,-3.268085241317749,7.977479934692383,27.679443359375,-20.7672119140625,-24.5513916015625
0.6312499,-3.971980571746826,-3.24414324760437,7.903259754180908,24.8260498046875,-21.7742919921875,-23.406982421875
0.6337499000000001,-3.7924153804779053,-3.251325845718384,7.876923561096191,21.026611328125,-22.2930908203125,-22.674560546875
0.6362499,-3.5960910320281982,-3.2632968425750732,7.8960771560668945,19.2718505859375,-23.040771484375,-22.6287841796875
0.6387499000000001,-3.464409828186035,-3.265691041946411,7.951143741607666,18.585205078125,-23.101806640625,-22.6287841796875
0.6412499,-3.3925838470458984,-3.3016040325164795,8.001421928405762,18.73779296875,-22.6287841796875,-23.4527587890625
0.6437499,-3.4093432426452637,-3.3662476539611816,8.04691219329834,20.6298828125,-22.7203369140625,-24.7955322265625
0.6462499,-3.4787750244140625,-3.509899616241455,8.054094314575195,25.3143310546875,-22.5982666015625,-26.275634765625
0.6487499,-3.5721490383148193,-3.7229835987091064,8.051700592041016,30.6396484375,-22.1405029296875,-27.8167724609375
0.6512499,-3.689464807510376,-3.9839515686035156,8.051700592041016,32.379150390625,-21.91162109375,-28.289794921875
0.6537499,-3.821146011352539,-4.242525577545166,8.061277389526367,31.4483642578125,-22.3846435546875,-27.40478515625
0.6562499,-3.9624037742614746,-4.49870491027832,8.04691219329834,32.16552734375,-23.62060546875,-26.641845703125
0.6587499,-4.043806552886963,-4.6950297355651855,8.042123794555664,35.369873046875,-26.3671875,-25.9246826171875
0.6612499000000001,-4.065354347229004,-4.8722004890441895,8.044517517089844,37.29248046875,-27.2064208984375,-24.688720703125
0.6637499,-3.9911341667175293,-4.977545261383057,8.145073890686035,36.529541015625,-26.275634765625,-23.651123046875
0.6662499000000001,-3.9001545906066895,-5.011064052581787,8.305485725402832,35.9039306640625,-25.4669189453125,-22.03369140625
0.6687499,-3.8379054069519043,-4.9799394607543945,8.487444877624512,36.07177734375,-25.20751953125,-20.6298828125
0.6712499000000001,-3.8379054069519043,-4.900930881500244,8.580819129943848,36.834716796875,-23.86474609375,-20.1873779296875
0.6737499,-3.8498764038085938,-4.81473970413208,8.578424453735352,39.4439697265625,-22.0794677734375,-20.69091796875
0.6762499000000001,-3.9001545906066895,-4.754884719848633,8.506598472595215,42.3583984375,-21.8963623046875,-20.2484130859375
0.6787499,-3.9432501792907715,-4.721365928649902,8.429984092712402,44.2047119140625,-21.820068359375,-19.500732421875
0.6812499000000001,-3.9839515686035156,-4.697423934936523,8.398859977722168,44.708251953125,-21.8353271484375,-18.6920166015625
0.6837499,-4.000710964202881,-4.6471452713012695,8.427590370178223,45.1507568359375,-21.9879150390625,-17.6239013671875
0.6862499000000001,-4.003105163574219,-4.553771495819092,8.485051155090332,45.257568359375,-21.54541015625,-16.6778564453125
0.6887499,-3.976768970489502,-4.414907932281494,8.542511940002441,44.097900390625,-20.2484130859375,-16.6015625
0.6912499000000001,-3.931279182434082,-4.228160381317139,8.578424453735352,42.4957275390625,-18.8446044921875,-16.4642333984375
0.6937499,-3.8953661918640137,-4.031835556030273,8.580819129943848,41.168212890625,-18.2037353515625,-15.869140625
0.6962499000000001,-3.847482204437256,-3.845088005065918,8.542511940002441,39.0472412109375,-17.5933837890625,-15.3045654296875
0.6987499,-3.8139634132385254,-3.6750996112823486,8.458714485168457,36.62109375,-16.41845703125,-15.106201171875
0.7012499000000001,-3.756502389907837,-3.5673606395721436,8.336610794067383,33.69140625,-15.80810546875,-14.7705078125
0.7037499,-3.7038300037384033,-3.5266590118408203,8.188169479370117,31.4788818359375,-15.7623291015625,-13.580322265625
0.7062499,-3.627215623855591,-3.5218706130981445,8.054094314575195,30.4107666015625,-16.2200927734375,-12.1612548828125
0.7087499,-3.600879430770874,-3.533841609954834,7.94635534286499,27.0843505859375,-16.66259765625,-11.1541748046875
0.7112499,-3.603273630142212,-3.4979286193847656,7.891288757324219,22.88818359375,-16.448974609375,-10.31494140625
0.7137499,-3.6559460163116455,-3.3854012489318848,7.872135162353516,18.06640625,-16.510009765625,-9.7198486328125
0.7162499,-3.7038300037384033,-3.222595453262329,7.869740962982178,12.8631591796875,-15.716552734375,-9.0789794921875
0.7187499,-3.73016619682312,-3.050212860107422,7.843404769897461,6.9732666015625,-15.167236328125,-8.7127685546875
0.7212499,-3.665522813796997,-2.920926094055176,7.752425193786621,1.7242431640625,-15.13671875,-8.209228515625
0.7237499000000001,-3.529053211212158,-2.8874073028564453,7.615955829620361,-1.678466796875,-15.716552734375,-7.7056884765625
0.7262499,-3.337517261505127,-2.9903578758239746,7.4555439949035645,-4.608154296875,-17.1356201171875,-6.3934326171875
0.7287499000000001,-3.093308687210083,-3.2752678394317627,7.319074630737305,-6.2408447265625,-17.63916015625,-4.4708251953125
0.7312499,-2.8802247047424316,-3.6942532062530518,7.2783732414245605,-5.767822265625,-18.0816650390625,-1.8157958984375
0.7337499000000001,-2.7054479122161865,-4.185064792633057,7.333439826965332,-4.364013671875,-18.24951171875,1.2054443359375
0.7362499,-2.6024973392486572,-4.606443881988525,7.462726593017578,-5.4473876953125,-17.2119140625,3.5858154296875
0.7387499000000001,-2.583343744277954,-4.831499099731445,7.63989782333374,-7.5836181640625,-15.56396484375,5.43212890625
0.7412499,-2.631227731704712,-4.8051629066467285,7.793126583099365,-10.1470947265625,-14.09912109375,6.65283203125
0.7437499000000001,-2.7126305103302,-4.570530891418457,7.891288757324219,-11.505126953125,-12.87841796875,6.5765380859375
0.7462499,-2.8107926845550537,-4.225766181945801,7.915230751037598,-11.5509033203125,-11.993408203125,5.9051513671875
0.7487499000000001,-2.8802247047424316,-3.8977603912353516,7.888894557952881,-10.19287109375,-11.016845703125,4.94384765625
0.7512499,-2.9328970909118652,-3.6750996112823486,7.8098859786987305,-8.544921875,-10.0250244140625,3.509521484375
0.7537499000000001,-2.983175277709961,-3.60566782951355,7.728483200073242,-7.049560546875,-9.002685546875,1.2969970703125
0.7562499,-3.0119056701660156,-3.6535518169403076,7.642292022705078,-5.37109375,-9.6893310546875,-1.3427734375
0.7587499000000001,-3.004723072052002,-3.7708675861358643,7.572859764099121,-3.5400390625,-11.3372802734375,-3.96728515625
0.7612499,-2.983175277709961,-3.8714241981506348,7.582436561584473,-2.01416015625,-12.786865234375,-6.4239501953125
0.7637499000000001,-2.920926094055176,-3.9169139862060547,7.647080421447754,-1.9073486328125,-13.2598876953125,-8.9874267578125
0.7662499,-2.851494312286377,-3.8786067962646484,7.805097579956055,-3.3111572265625,-13.85498046875,-11.04736328125
0.7687499000000001,-2.765302896499634,-3.804386615753174,8.008605003356934,-3.0059814453125,-14.4805908203125,-13.336181640625
0.7712499,-2.6575639247894287,-3.7421371936798096,8.238448143005371,-2.25830078125,-14.6331787109375,-16.082763671875
0.7737499,-2.513911724090576,-3.73016619682312,8.446743965148926,-2.7313232421875,-15.0299072265625,-18.2647705078125
0.7762499,-2.3558945655822754,-3.8067808151245117,8.607154846191406,-1.3427734375,-14.2364501953125,-21.087646484375
0.7787499,-2.248155355453491,-3.976768970489502,8.731653213500977,1.2969970703125,-14.068603515625,-23.681640625
0.7812499,-2.2218191623687744,-4.2329487800598145,8.765172004699707,3.1890869140625,-12.9852294921875,-25.4669189453125
0.7837499,-2.3056161403656006,-4.551377296447754,8.7484130859375,5.43212890625,-11.932373046875,-27.252197265625
0.7862499000000001,-2.449268341064453,-4.888959884643555,8.69095230102539,9.490966796875,-13.1683349609375,-28.594970703125
0.7887499,-2.5737667083740234,-5.183446884155273,8.640673637390137,11.8408203125,-15.68603515625,-28.7628173828125
0.7912499000000001,-2.631227731704712,-5.394136428833008,8.640673637390137,11.7340087890625,-17.1966552734375,-28.106689453125
0.7937499,-2.609679937362671,-5.530605792999268,8.669404029846191,10.650634765625,-16.5863037109375,-27.496337890625
0.7962499000000001,-2.5785553455352783,-5.631162166595459,8.710105895996094,10.589599609375,-16.4794921875,-26.7791748046875
0.7987499,-2.58813214302063,-5.7556610107421875,8.688557624816895,12.7105712890625,-15.625,-26.5655517578125
0.8012499000000001,-2.6240451335906982,-5.894524574279785,8.643068313598633,17.0745849609375,-16.632080078125,-26.275634765625
0.8037499,-2.647987127304077,-6.054935932159424,8.611943244934082,21.087646484375,-19.073486328125,-24.96337890625
0.8062499000000001,-2.607285737991333,-6.196194171905518,8.652645111083984,23.49853515625,-20.01953125,-22.8424072265625
0.8087499,-2.4588451385498047,-6.332663536071777,8.769960403442383,24.6429443359375,-18.8751220703125,-20.8282470703125
0.8112499000000001,-2.1547815799713135,-6.423643112182617,8.975862503051758,24.3377685546875,-16.7999267578125,-18.4478759765625
0.8137499,-2.075772762298584,-6.607996463775635,9.117119789123535,22.6593017578125,-13.6566162109375,-14.3585205078125
0.8162499000000001,-1.9584569931030273,-6.744466304779053,9.186552047729492,24.1851806640625,-9.3841552734375,-14.2974853515625
0.8187499,-2.126051187515259,-6.854599475860596,9.229647636413574,31.6314697265625,-10.43701171875,-11.688232421875
0.8212499000000001,-2.3127987384796143,-6.825869083404541,9.251194953918457,35.8734130859375,-10.1165771484375,-8.941650390625
0.8237499,-2.516305923461914,-6.615179061889648,9.318233489990234,32.2265625,-5.157470703125,-6.256103515625
0.8262499000000001,-2.695871114730835,-6.234501361846924,9.433155059814453,27.6947021484375,-0.8544921875,-3.0975341796875
0.8287499,-2.8993782997131348,-5.746084213256836,9.545681953430176,25.9552001953125,1.7547607421875,-0.1373291015625
0.8312499000000001,-3.1723172664642334,-5.1810526847839355,9.646238327026367,23.0712890625,6.3629150390625,2.0294189453125
0.8337499,-3.4811692237854004,-4.6040496826171875,9.682151794433594,18.1732177734375,12.420654296875,3.4332275390625
0.8362499,-3.7014358043670654,-4.060565948486328,9.57201862335205,16.0064697265625,15.68603515625,3.1890869140625
0.8387499,-3.8307228088378906,-3.6750996112823486,9.339780807495117,21.3165283203125,14.83154296875,2.7923583984375
0.8412499,-3.7397429943084717,-3.4332852363586426,9.026140213012695,25.93994140625,14.46533203125,1.800537109375
0.8437499,-3.5266590118408203,-3.361459255218506,8.822632789611816,26.18408203125,16.1590576171875,0.67138671875
0.8462499,-3.2321722507476807,-3.361459255218506,8.798690795898438,23.468017578125,17.4560546875,0.518798828125
0.8487499000000001,-2.940079689025879,-3.3470940589904785,8.927978515625,20.538330078125,18.4173583984375,0.3509521484375
0.8512499,-2.719813108444214,-3.2824504375457764,9.07641887664795,19.3634033203125,19.3328857421875,-0.3204345703125
0.8537499000000001,-2.494758129119873,-3.184288263320923,9.102754592895508,19.2718505859375,20.20263671875,-2.0599365234375
0.8562499,-2.293645143508911,-3.098097085952759,8.992621421813965,22.064208984375,18.2952880859375,-3.5552978515625
0.8587499000000001,-2.0853497982025146,-3.098097085952759,8.801085472106934,25.93994140625,16.4642333984375,-5.096435546875
0.8612499,-1.8914192914962769,-3.1675288677215576,8.609549522399902,26.123046875,17.7459716796875,-6.378173828125
0.8637499000000001,-1.8100165128707886,-3.270479440689087,8.497021675109863,24.0631103515625,18.402099609375,-5.7220458984375
0.8662499,-1.86508309841156,-3.3494882583618164,8.439560890197754,21.8505859375,17.242431640625,-4.5013427734375
0.8687499000000001,-2.051830768585205,-3.3494882583618164,8.403648376464844,19.2718505859375,15.594482421875,-3.1585693359375
0.8712499,-2.3295583724975586,-3.265691041946411,8.382100105285645,15.960693359375,13.5955810546875,-1.52587890625
0.8737499000000001,-2.628833532333374,-3.1268274784088135,8.370129585266113,11.2762451171875,11.2457275390625,0.518798828125
0.8762499,-2.8850131034851074,-2.9664158821105957,8.40843677520752,5.9051513671875,8.6517333984375,2.9296875
0.8787499000000001,-3.050212860107422,-2.832340717315674,8.489839553833008,0.9613037109375,6.103515625,4.8980712890625
0.8812499,-3.098097085952759,-2.765302896499634,8.614337921142578,-3.0059814453125,5.4779052734375,5.859375
0.8837499000000001,-3.0526070594787598,-2.779668092727661,8.765172004699707,-5.828857421875,6.7138671875,6.256103515625
0.8862499,-2.9520506858825684,-2.87064790725708,8.920795440673828,-7.1868896484375,8.6822509765625,6.3323974609375
0.8887499000000001,-2.8155810832977295,-3.028665065765381,9.05487060546875,-7.9193115234375,10.1165771484375,5.9661865234375
0.8912499,-2.6862943172454834,-3.222595453262329,9.155426979064941,-7.049560546875,11.0931396484375,5.889892578125
0.8937499000000001,-2.5546131134033203,-3.4404678344726562,9.2033109664917,-6.4697265625,12.451171875,5.7373046875
0.8962499,-2.4468741416931152,-3.6607344150543213,9.20091724395752,-6.40869140625,14.1754150390625,5.6304931640625
0.8987499,-2.3702597618103027,-3.847482204437256,9.153033256530762,-6.6986083984375,15.5487060546875,6.4849853515625
0.9012499,-2.343923568725586,-3.9671921730041504,9.038111686706543,-7.2021484375,16.326904296875,7.415771484375
0.9037499,-2.33913516998291,-4.01268196105957,8.865729331970215,-8.1787109375,17.120361328125,7.7972412109375
0.9062499,-2.3798365592956543,-3.993528366088867,8.662221908569336,-9.3994140625,17.4713134765625,8.941650390625
0.9087499,-2.425326347351074,-3.936067581176758,8.453926086425781,-10.92529296875,18.2647705078125,9.8419189453125
0.9112499000000001,-2.4875755310058594,-3.864241600036621,8.279149055480957,-12.6495361328125,18.8446044921875,10.4217529296875
0.9137499,-2.5450363159179688,-3.7828385829925537,8.157045364379883,-14.5721435546875,19.0277099609375,11.3372802734375
0.9162499000000001,-2.5929205417633057,-3.6966474056243896,8.08043098449707,-16.448974609375,19.317626953125,12.2833251953125
0.9187499,-2.6192567348480225,-3.6104562282562256,8.04930591583252,-18.310546875,19.8211669921875,13.092041015625
0.9212499000000001,-2.628833532333374,-3.5458126068115234,8.04930591583252,-20.08056640625,20.751953125,13.48876953125
0.9237499,-2.6455929279327393,-3.5194764137268066,8.066065788269043,-21.087646484375,21.7742919921875,13.6260986328125
0.9262499000000001,-2.6623523235321045,-3.533841609954834,8.078036308288574,-21.8353271484375,22.4761962890625,13.671875
0.9287499,-2.691082715988159,-3.5745432376861572,8.073247909545898,-22.64404296875,23.1170654296875,13.61083984375
0.9312499000000001,-2.7269957065582275,-3.6367924213409424,8.04691219329834,-23.284912109375,23.5443115234375,13.6871337890625
0.9337499,-2.7700912952423096,-3.691859006881714,7.989450931549072,-24.1241455078125,24.2156982421875,13.3819580078125
0.9362499000000001,-2.832340717315674,-3.7421371936798096,7.9176249504089355,-24.688720703125,24.9786376953125,13.3209228515625
0.9387499,-2.9017724990844727,-3.7900211811065674,7.814674377441406,-25.115966796875,25.57373046875,13.3209228515625
0.9412499000000001,-2.9735984802246094,-3.8379054069519043,7.709329605102539,-25.2838134765625,25.81787109375,12.8173828125
0.9437499,-3.026270866394043,-3.909731388092041,7.60637903213501,-25.0396728515625,25.634765625,12.9241943359375
0.9462499000000001,-3.0382418632507324,-4.019864559173584,7.524975776672363,-25.7110595703125,25.2685546875,13.275146484375
0.9487499,-3.047818660736084,-4.146757125854492,7.450755596160889,-26.4892578125,25.787353515625,13.885498046875
0.9512499000000001,-3.0526070594787598,-4.273650169372559,7.371747016906738,-26.3519287109375,26.123046875,14.1143798828125
0.9537499,-3.0861260890960693,-4.367023944854736,7.285555839538574,-25.2838134765625,25.5584716796875,14.2059326171875
0.9562499000000001,-3.141192674636841,-4.412513732910156,7.204153060913086,-23.4375,25.0244140625,13.9617919921875
0.9587499,-3.1962592601776123,-4.410119533538818,7.158663272857666,-22.430419921875,24.47509765625,13.5955810546875
0.9612499,-3.2178070545196533,-4.37420654296875,7.15387487411499,-22.15576171875,23.98681640625,13.1378173828125
0.9637499,-3.203441858291626,-4.345476150512695,7.173028469085693,-21.575927734375,23.5748291015625,12.9241943359375
0.9662499,-3.1651346683502197,-4.326322555541992,7.184999465942383,-21.087646484375,23.834228515625,12.6495361328125
0.9687499,-3.1890766620635986,-4.343081951141357,7.158663272857666,-20.4620361328125,24.3072509765625,12.359619140625
0.9712499,-3.28963303565979,-4.37420654296875,7.074865818023682,-20.6298828125,25.5889892578125,12.420654296875
0.9737499000000001,-3.5218706130981445,-4.426878929138184,6.936002254486084,-20.1416015625,24.47509765625,13.0767822265625
0.9762499,-3.818751811981201,-4.496310710906982,6.775590896606445,-19.5770263671875,21.8048095703125,13.8092041015625
0.9787499000000001,-4.05817174911499,-4.563348293304443,6.629544734954834,-20.0347900390625,19.1192626953125,15.0299072265625
0.9812499,-4.153939723968506,-4.6255974769592285,6.5481414794921875,-20.2178955078125,14.2974853515625,15.6707763671875
0.9837499000000001,-4.390965938568115,-4.51067590713501,6.584054470062256,-18.798828125,10.8795166015625,15.3656005859375
0.9862499,-4.73573112487793,-4.158728122711182,6.452373504638672,-13.458251953125,14.8468017578125,8.4991455078125
0.9887499000000001,-5.2696380615234375,-3.6535518169403076,6.27280855178833,-3.84521484375,18.310546875,-0.7476806640625
0.9912499,-5.884947776794434,-3.1483752727508545,6.114790916442871,1.2359619140625,18.8751220703125,4.8828125
0.9937499000000001,-5.963956356048584,-3.1004912853240967,6.057330131530762,-1.6326904296875,10.7421875,9.5977783203125
0.9962499,-5.659893035888672,-3.5865142345428467,6.509834289550781,-4.8065185546875,-4.119873046875,13.24462890625
0.9987499000000001,-4.829104900360107,-4.424484729766846,7.259219646453857,-8.8348388671875,-0.67138671875,15.19775390625
1.0012499,-3.797203779220581,-5.310339450836182,8.250418663024902,-7.4005126953125,3.3111572265625,13.6871337890625
1.0037498999999999,-2.8874073028564453,-5.738901615142822,9.162610054016113,-4.6234130859375,9.552001953125,15.380859375
1.0062499,-2.0829553604125977,-5.69580602645874,9.782708168029785,-2.960205078125,15.7012939453125,14.4500732421875
1.0087499,-1.5969325304031372,-5.2480902671813965,10.0580415725708,0.79345703125,17.425537109375,12.2833251953125
1.0112499,-1.3910311460494995,-4.666299343109131,9.945513725280762,6.134033203125,19.9432373046875,10.92529296875
1.0137498999999999,-1.4293384552001953,-4.197035789489746,9.634267807006836,8.1024169921875,23.4375,9.7503662109375
1.0162499,-1.7142484188079834,-3.88818359375,9.287108421325684,7.4005126953125,26.336669921875,10.772705078125
1.0187499,-2.006340980529785,-3.8379054069519043,9.016563415527344,7.75146484375,24.1546630859375,9.918212890625
1.0212499,-2.255337953567505,-3.928884983062744,8.932766914367676,9.124755859375,18.6309814453125,9.857177734375
1.0237498999999999,-2.298433542251587,-4.0964789390563965,8.949525833129883,6.28662109375,18.1732177734375,11.9476318359375
1.0262498999999998,-2.2194249629974365,-4.252102375030518,9.11233139038086,3.3111572265625,19.3634033203125,12.1307373046875
1.0287499,-2.0614075660705566,-4.302380561828613,9.29189682006836,2.288818359375,19.9432373046875,10.8795166015625
1.0312499,-1.9177556037902832,-4.268861770629883,9.48343276977539,1.373291015625,21.270751953125,10.07080078125
1.0337498999999999,-1.8722656965255737,-4.151545524597168,9.639056205749512,0.2899169921875,21.66748046875,10.711669921875
1.0362498999999998,-1.9129672050476074,-3.9887399673461914,9.710882186889648,-1.9073486328125,22.4151611328125,10.2996826171875
1.0387499,-2.0829553604125977,-3.8546648025512695,9.684545516967773,-4.058837890625,23.3612060546875,9.0789794921875
1.0412499,-2.33913516998291,-3.7205893993377686,9.57201862335205,-5.6610107421875,23.284912109375,8.0108642578125
1.0437499,-2.63362193107605,-3.648763418197632,9.368511199951172,-7.6141357421875,21.6827392578125,6.866455078125
1.0462498999999998,-2.9281086921691895,-3.6320040225982666,9.157821655273438,-7.843017578125,20.172119140625,5.79833984375
1.0487499,-3.1747114658355713,-3.6535518169403076,8.944737434387207,-9.429931640625,19.287109375,4.2724609375
1.0512499,-3.426102638244629,-3.7421371936798096,8.69095230102539,-13.4124755859375,16.0369873046875,0.67138671875
1.0537499,-3.426102638244629,-3.7421371936798096,8.69095230102539,-13.4124755859375,16.0369873046875,0.67138671875
1.0562498999999999,-3.4117374420166016,-3.751713991165161,8.520963668823242,-12.847900390625,13.9312744140625,-3.1890869140625
1.0587499,-3.4117374420166016,-3.751713991165161,8.520963668823242,-12.847900390625,13.9312744140625,-3.1890869140625
1.0612499,-3.2609026432037354,-3.8115692138671875,8.274360656738281,-11.4593505859375,11.5814208984375,-6.3934326171875
1.0637499,-3.2609026432037354,-3.8115692138671875,8.274360656738281,-11.4593505859375,11.5814208984375,-6.3934326171875
1.0662498999999999,-3.0885202884674072,-4.0749311447143555,8.08043098449707,-10.92529296875,9.124755859375,-8.9263916015625
1.0687499,-3.0885202884674072,-4.0749311447143555,8.08043098449707,-10.92529296875,9.124755859375,-8.9263916015625
1.0712499,-3.028665065765381,-4.443638324737549,8.01339340209961,-12.3443603515625,6.622314453125,-10.8489990234375
1.0737499,-3.028665065765381,-4.443638324737549,8.01339340209961,-12.3443603515625,6.622314453125,-10.8489990234375
1.0762498999999999,-2.9544448852539062,-4.687847137451172,8.075642585754395,-11.0015869140625,0.9918212890625,-13.519287109375
1.0787499,-2.9544448852539062,-4.687847137451172,8.075642585754395,-11.0015869140625,0.9918212890625,-13.519287109375
1.0812499,-2.6623523235321045,-4.793191909790039,8.176198959350586,-8.1634521484375,-0.6103515625,-16.0369873046875
1.0837499,-2.6623523235321045,-4.793191909790039,8.176198959350586,-8.1634521484375,-0.6103515625,-16.0369873046875
1.0862498999999999,-2.3702597618103027,-4.987122058868408,8.24084186553955,-4.364013671875,-1.8157958984375,-17.547607421875
1.0887499,-2.3702597618103027,-4.987122058868408,8.24084186553955,-4.364013671875,-1.8157958984375,-17.547607421875
1.0912499,-2.185906171798706,-5.389348030090332,8.315062522888184,0.2288818359375,-5.67626953125,-17.8985595703125
1.0937499,-2.185906171798706,-5.389348030090332,8.315062522888184,0.2288818359375,-5.67626953125,-17.8985595703125
1.0962498999999999,-2.0446481704711914,-5.7556610107421875,8.487444877624512,1.5411376953125,-5.2642822265625,-17.120361328125
1.0987498999999998,-2.0446481704711914,-5.7556610107421875,8.487444877624512,1.5411376953125,-5.2642822265625,-17.120361328125
1.1012499,-2.030282974243164,-5.853823184967041,8.78193187713623,2.1820068359375,-6.16455078125,-16.4337158203125
1.1037499,-2.030282974243164,-5.853823184967041,8.78193187713623,2.1820068359375,-6.16455078125,-16.4337158203125
1.1062499,-2.126051187515259,-5.789179801940918,9.009381294250488,4.21142578125,-6.256103515625,-17.1661376953125
1.1087498999999998,-2.126051187515259,-5.789179801940918,9.009381294250488,4.21142578125,-6.256103515625,-17.1661376953125
1.1112499,-2.3511061668395996,-5.743690013885498,9.153033256530762,7.0648193359375,-6.6680908203125,-18.1884765625
1.1137499,-2.3511061668395996,-5.743690013885498,9.153033256530762,7.0648193359375,-6.6680908203125,-18.1884765625
1.1162499,-2.691082715988159,-5.779603004455566,9.349357604980469,8.7890625,-6.6070556640625,-18.2342529296875
1.1187498999999999,-2.691082715988159,-5.779603004455566,9.349357604980469,8.7890625,-6.6070556640625,-18.2342529296875
1.1212499,-3.0358476638793945,-5.858611583709717,9.586383819580078,10.2081298828125,-6.1798095703125,-17.3187255859375
1.1237499,-3.0358476638793945,-5.858611583709717,9.586383819580078,10.2081298828125,-6.1798095703125,-17.3187255859375
1.1262499,-3.3638534545898438,-5.853823184967041,9.780313491821289,10.2691650390625,-4.9896240234375,-16.510009765625
1.1287498999999999,-3.3638534545898438,-5.853823184967041,9.780313491821289,10.2691650390625,-4.9896240234375,-16.510009765625
1.1312499,-3.667917013168335,-5.609614372253418,9.911994934082031,7.26318359375,-5.2337646484375,-15.838623046875
1.1337499,-3.667917013168335,-5.609614372253418,9.911994934082031,7.26318359375,-5.2337646484375,-15.838623046875
1.1362499,-3.971980571746826,-5.171475887298584,9.84495735168457,5.1422119140625,-4.0435791015625,-16.571044921875
1.1387498999999999,-3.971980571746826,-5.171475887298584,9.84495735168457,5.1422119140625,-4.0435791015625,-16.571044921875
1.1412499,-4.60165548324585,-4.927267074584961,9.500192642211914,-0.3509521484375,-2.1209716796875,-15.6707763671875
1.1437499,-4.60165548324585,-4.927267074584961,9.500192642211914,-0.3509521484375,-2.1209716796875,-15.6707763671875
1.1462499,-5.456385612487793,-5.011064052581787,8.947132110595703,-12.5732421875,-5.889892578125,-14.007568359375
1.1487498999999999,-5.456385612487793,-5.011064052581787,8.947132110595703,-12.5732421875,-5.889892578125,-14.007568359375
1.1512499,-5.305551052093506,-4.93923807144165,8.767566680908203,-15.655517578125,-16.2353515625,-9.3841552734375
1.1537499,-5.305551052093506,-4.93923807144165,8.767566680908203,-15.655517578125,-16.2353515625,-9.3841552734375
1.1562499,-4.479551315307617,-4.541800498962402,8.932766914367676,-20.0653076171875,-0.48828125,-14.5721435546875
1.1587498999999999,-4.479551315307617,-4.541800498962402,8.932766914367676,-20.0653076171875,-0.48828125,-14.5721435546875
1.1612498999999998,-4.2951979637146,-4.4077253341674805,8.508993148803711,-10.3302001953125,-7.14111328125,-16.7083740234375
1.1637499,-4.2951979637146,-4.4077253341674805,8.508993148803711,-10.3302001953125,-7.14111328125,-16.7083740234375
1.1662499,-4.671087741851807,-4.754884719848633,7.5201873779296875,-8.4686279296875,-5.0811767578125,-18.9056396484375
1.1687499,-4.671087741851807,-4.754884719848633,7.5201873779296875,-8.4686279296875,-5.0811767578125,-18.9056396484375
1.1712498999999998,-4.932055473327637,-5.262455463409424,6.9240312576293945,-10.3607177734375,-11.8408203125,-17.333984375
1.1737499,-4.932055473327637,-5.262455463409424,6.9240312576293945,-10.3607177734375,-11.8408203125,-17.333984375
1.1762499,-4.51067590713501,-5.872976779937744,7.146692276000977,-18.280029296875,-12.75634765625,-13.3056640625
1.1787499,-4.51067590713501,-5.872976779937744,7.146692276000977,-18.280029296875,-12.75634765625,-13.3056640625
1.1812498999999999,-4.132391929626465,-6.189011573791504,7.3023152351379395,-17.9443359375,-11.77978515625,-12.7716064453125
1.1837499,-4.132391929626465,-6.189011573791504,7.3023152351379395,-17.9443359375,-11.77978515625,-12.7716064453125
1.1862499,-3.998316764831543,-5.954379558563232,6.852205276489258,-7.904052734375,-10.833740234375,-13.6260986328125
1.1887499,-3.998316764831543,-5.954379558563232,6.852205276489258,-7.904052734375,-10.833740234375,-13.6260986328125
1.1912498999999999,-3.2968156337738037,-5.8442463874816895,6.909666061401367,-4.1046142578125,-12.847900390625,-11.199951171875
1.1937499,-3.2968156337738037,-5.8442463874816895,6.909666061401367,-4.1046142578125,-12.847900390625,-11.199951171875
1.1962499,-2.3511061668395996,-6.277596950531006,7.718906402587891,-7.9498291015625,-7.0037841796875,-8.1634521484375
1.1987499,-2.3511061668395996,-6.277596950531006,7.718906402587891,-7.9498291015625,-7.0037841796875,-8.1634521484375
1.2012498999999999,-2.075772762298584,-6.600813865661621,7.893682956695557,-2.7008056640625,-8.5601806640625,-8.60595703125
1.2037499,-2.075772762298584,-6.600813865661621,7.893682956695557,-2.7008056640625,-8.5601806640625,-8.60595703125
1.2062499,-2.121262788772583,-6.325480937957764,7.3885064125061035,-1.7852783203125,-12.0391845703125,-5.279541015625
1.2087499,-2.121262788772583,-6.325480937957764,7.3885064125061035,-1.7852783203125,-12.0391845703125,-5.279541015625
1.2112498999999999,-1.8938134908676147,-5.861005783081055,7.2783732414245605,-6.988525390625,-13.153076171875,-2.410888671875
1.2137499,-1.8938134908676147,-5.861005783081055,7.2783732414245605,-6.988525390625,-13.153076171875,-2.410888671875
1.2162499,-1.8842366933822632,-5.518634796142578,7.479485988616943,-6.561279296875,-9.765625,-1.129150390625
1.2187499,-1.8842366933822632,-5.518634796142578,7.479485988616943,-6.561279296875,-9.765625,-1.129150390625
1.2212498999999999,-2.346317768096924,-5.272032260894775,7.493851184844971,-6.0272216796875,-10.6201171875,0.8392333984375
1.2237498999999998,-2.346317768096924,-5.272032260894775,7.493851184844971,-6.0272216796875,-10.6201171875,0.8392333984375
1.2262499,-2.7892448902130127,-5.118803024291992,7.407660007476807,-9.33837890625,-10.7269287109375,3.1280517578125
1.2287499,-2.868253707885742,-5.102043628692627,7.357381820678711,-9.033203125,-9.521484375,4.058837890625
1.2312499,-2.8658595085144043,-5.135562419891357,7.309497833251953,-8.9263916015625,-7.6904296875,4.180908203125
1.2337498999999998,-2.8395233154296875,-5.197812080383301,7.271190643310547,-9.27734375,-5.8135986328125,5.035400390625
1.2362499,-2.87064790725708,-5.2911858558654785,7.232883453369141,-9.8876953125,-4.058837890625,5.9967041015625
1.2387499,-2.983175277709961,-5.3797712326049805,7.180211067199707,-11.138916015625,-2.6702880859375,6.77490234375
1.2412499,-3.155557870864868,-5.451597213745117,7.105990409851074,-11.4898681640625,-2.5787353515625,7.50732421875
1.2437498999999999,-3.339911460876465,-5.521028995513916,7.0341644287109375,-11.04736328125,-3.7841796875,9.1094970703125
1.2462499,-3.4787750244140625,-5.56173038482666,7.005434036254883,-11.9171142578125,-2.532958984375,11.29150390625
1.2487499,-3.550601005554199,-5.600037574768066,7.0317702293396,-12.786865234375,0.18310546875,12.0391845703125
1.2512499,-3.60566782951355,-5.633556365966797,7.105990409851074,-12.4359130859375,1.220703125,12.39013671875
1.2537498999999999,-3.600879430770874,-5.655104637145996,7.228095054626465,-11.41357421875,0.8697509765625,13.1072998046875
1.2562499,-3.6104562282562256,-5.681440830230713,7.311892032623291,-10.6353759765625,1.46484375,14.16015625
1.2587499,-3.600879430770874,-5.693411827087402,7.3669586181640625,-10.68115234375,3.1280517578125,15.106201171875
1.2612499,-3.5745432376861572,-5.679046630859375,7.362170219421387,-10.31494140625,4.3792724609375,15.3350830078125
1.2637498999999999,-3.531447410583496,-5.674258232116699,7.33583402633667,-9.6588134765625,4.08935546875,16.5252685546875
1.2662499,-3.4332852363586426,-5.631162166595459,7.319074630737305,-8.9569091796875,1.800537109375,16.8304443359375
1.2687499,-3.332728862762451,-5.566518783569336,7.331045627593994,-9.3841552734375,2.227783203125,16.8914794921875
1.2712499,-3.181894063949585,-5.468356609344482,7.354987621307373,-11.04736328125,4.3792724609375,17.15087890625
1.2737498999999999,-3.0550012588500977,-5.355829238891602,7.393294811248779,-12.3291015625,4.9285888671875,18.2342529296875
1.2762499,-2.9496564865112305,-5.228936672210693,7.433996200561523,-12.39013671875,3.72314453125,19.012451171875
1.2787499,-2.8778305053710938,-5.116408824920654,7.46033239364624,-12.542724609375,3.6163330078125,18.37158203125
1.2812499,-2.8419175148010254,-5.015852451324463,7.47230339050293,-13.2904052734375,4.2724609375,18.0206298828125
1.2837498999999999,-2.8155810832977295,-4.891354084014893,7.465120792388916,-13.9312744140625,2.349853515625,18.3563232421875
1.2862498999999998,-2.7964274883270264,-4.788403511047363,7.436390399932861,-14.2974853515625,-0.5950927734375,18.6004638671875
1.2887499,-2.7748796939849854,-4.668693542480469,7.424419403076172,-16.4947509765625,-1.4495849609375,17.913818359375
1.2912499,-2.7964274883270264,-4.54419469833374,7.41484260559082,-18.8140869140625,-2.8533935546875,17.0135498046875
1.2937499,-2.96162748336792,-4.412513732910156,7.433996200561523,-21.1639404296875,-3.6163330078125,17.7001953125
1.2962498999999998,-3.2154128551483154,-4.259284973144531,7.46033239364624,-26.1077880859375,-2.1209716796875,17.9595947265625
1.2987499,-3.5625722408294678,-4.125209331512451,7.484274387359619,-29.8309326171875,-3.0059814453125,17.425537109375
1.3012499,-3.8810009956359863,-4.01268196105957,7.501033782958984,-31.6162109375,-5.2337646484375,17.1966552734375
1.3037499,-4.079719543457031,-3.9647979736328125,7.50582218170166,-31.3568115234375,-6.9122314453125,16.4337158203125
1.3062498999999999,-4.046200752258301,-3.9839515686035156,7.522581577301025,-30.3802490234375,-6.8511962890625,14.8162841796875
1.3087499,-3.845088005065918,-4.089296340942383,7.5968017578125,-30.548095703125,-6.0272216796875,13.1683349609375
1.3112499,-3.5434184074401855,-4.268861770629883,7.718906402587891,-31.31103515625,-5.1422119140625,12.481689453125
1.3137499,-3.2800562381744385,-4.513070106506348,7.843404769897461,-31.6619873046875,-4.8980712890625,11.6119384765625
1.3162498999999999,-3.095702886581421,-4.793191909790039,7.934384346008301,-30.2581787109375,-5.157470703125,10.6658935546875
1.3187499,-3.0334534645080566,-5.078101634979248,7.965508937835693,-28.961181640625,-6.103515625,10.80322265625
1.3212499,-3.0142998695373535,-5.34625244140625,7.989450931549072,-27.4200439453125,-6.622314453125,11.0626220703125
1.3237499,-3.0095114707946777,-5.580883979797363,8.003816604614258,-26.336669921875,-6.9732666015625,10.0860595703125
1.3262498999999999,-3.00711727142334,-5.767632007598877,8.042123794555664,-24.810791015625,-7.2784423828125,9.307861328125
1.3287499,-3.043030261993408,-5.906495571136475,8.042123794555664,-22.918701171875,-7.1258544921875,9.1094970703125
1.3312499,-3.1028854846954346,-6.00226354598999,8.027758598327637,-20.20263671875,-5.889892578125,8.6517333984375
1.3337499,-3.2082302570343018,-6.054935932159424,8.037335395812988,-18.8751220703125,-5.2337646484375,9.4146728515625
1.3362498999999999,-3.3016040325164795,-6.081272125244141,8.101978302001953,-18.9971923828125,-6.89697265625,10.80322265625
1.3387499,-3.3710360527038574,-6.098031520843506,8.22887134552002,-18.2037353515625,-9.674072265625,11.3525390625
1.3412499,-3.383007049560547,-6.09324312210083,8.394071578979492,-15.838623046875,-10.1318359375,10.5133056640625
1.3437499,-3.339911460876465,-6.0597243309021,8.537723541259766,-13.1072998046875,-7.32421875,9.6588134765625
1.3462498999999999,-3.3039982318878174,-6.004657745361328,8.681375503540039,-10.223388671875,-5.67626953125,9.7808837890625
1.3487498999999998,-3.270479440689087,-5.937620162963867,8.81784439086914,-7.75146484375,-5.55419921875,9.7808837890625
1.3512499,-3.31118106842041,-5.870582580566406,8.935160636901855,-5.9051513671875,-5.0506591796875,9.552001953125
1.3537499,-3.4093432426452637,-5.825092792510986,9.002198219299316,-3.9215087890625,-3.204345703125,9.9029541015625
1.3562499,-3.5889084339141846,-5.772420406341553,9.033323287963867,-2.960205078125,-0.8697509765625,10.6048583984375
1.3587498999999998,-3.7828385829925537,-5.674258232116699,9.023746490478516,-3.0059814453125,-0.335693359375,11.5966796875
1.3612499,-3.9695863723754883,-5.540182590484619,9.05487060546875,-3.4332275390625,-1.6632080078125,12.7410888671875
1.3637499,-4.132391929626465,-5.374982833862305,9.08838939666748,-3.11279296875,-2.3956298828125,14.22119140625
1.3662499,-4.185064792633057,-5.197812080383301,9.14345645904541,-1.3275146484375,-1.9073486328125,14.09912109375
1.3687498999999999,-4.199429988861084,-5.039794445037842,9.208099365234375,0.1220703125,0.335693359375,13.7481689453125
1.3712499,-4.134786128997803,-4.884171485900879,9.30386734008789,1.190185546875,1.7852783203125,14.0228271484375
1.3737499,-4.048594951629639,-4.7405195236206055,9.428366661071777,2.44140625,2.4566650390625,14.190673828125
1.3762499,-3.950432777404785,-4.630385875701904,9.528923034667969,3.7841796875,3.448486328125,13.9312744140625
1.3787498999999999,-3.885789394378662,-4.594472885131836,9.593565940856934,6.3629150390625,5.5999755859375,14.3585205078125
1.3812499,-3.861847400665283,-4.642356872558594,9.619902610778809,9.3841552734375,7.0037841796875,15.19775390625
1.3837499,-3.8355112075805664,-4.7620673179626465,9.610325813293457,12.7105712890625,5.8441162109375,15.106201171875
1.3862499,-3.8570590019226074,-4.922478675842285,9.634267807006836,14.9993896484375,5.3253173828125,16.082763671875
1.3887498999999999,-3.8331170082092285,-5.058948040008545,9.62947940826416,15.411376953125,7.354736328125,16.7999267578125
1.3912499,-3.8762125968933105,-5.185841083526611,9.59596061706543,16.9677734375,9.490966796875,16.632080078125
1.3937499,-3.9600095748901367,-5.240907669067383,9.481039047241211,18.3868408203125,10.9710693359375,16.4642333984375
1.3962499,-4.110844135284424,-5.20978307723999,9.32302188873291,19.287109375,10.55908203125,16.7236328125
1.3987498999999999,-4.285621166229248,-5.054159641265869,9.133879661560059,18.585205078125,8.148193359375,17.2576904296875
1.4012499,-4.398148536682129,-4.764461517333984,8.96389102935791,16.998291015625,6.2713623046875,17.547607421875
1.4037499,-4.412513732910156,-4.388571739196777,8.851364135742188,14.4500732421875,5.1727294921875,17.6239013671875
1.4062499,-4.309563159942627,-4.0078935623168945,8.829815864562988,12.26806640625,5.8746337890625,17.608642578125
1.4087498999999999,-4.082113742828369,-3.73016619682312,8.892065048217773,9.27734375,6.4697265625,17.120361328125
1.4112498999999998,-3.7469255924224854,-3.60566782951355,9.045293807983398,6.7291259765625,4.7607421875,17.0440673828125
1.4137499,-3.2824504375457764,-3.6607344150543213,9.20091724395752,5.126953125,2.50244140625,17.578125
1.4162499,-2.7461493015289307,-3.8762125968933105,9.378087997436523,1.8157958984375,1.8157958984375,17.6849365234375
1.4187499,-2.2026655673980713,-4.141968727111816,9.39245319366455,-1.9378662109375,4.1046142578125,16.66259765625
1.4212498999999998,-1.7764976024627686,-4.345476150512695,9.32302188873291,-4.1046142578125,5.3558349609375,15.4266357421875
1.4237499,-1.558625340461731,-4.417302131652832,9.074024200439453,-4.45556640625,4.0435791015625,14.5111083984375
1.4262499,-1.5298948287963867,-4.333505153656006,8.777143478393555,-4.974365234375,1.3580322265625,14.0380859375
1.4287499,-1.6663644313812256,-4.158728122711182,8.473079681396484,-5.5389404296875,-1.1749267578125,13.1378173828125
1.4312498999999999,-1.867477297782898,-4.019864559173584,8.238448143005371,-5.767822265625,-2.960205078125,12.0086669921875
1.4337499,-2.097320795059204,-3.9456443786621094,8.087613105773926,-6.3934326171875,-3.173828125,10.92529296875
1.4362499,-2.3558945655822754,-3.9695863723754883,7.9631147384643555,-7.2784423828125,-4.058837890625,10.1776123046875
1.4387499,-2.655169725418091,-4.041412353515625,7.826645374298096,-7.99560546875,-4.94384765625,10.07080078125
1.4412498999999999,-3.0095114707946777,-4.106055736541748,7.666234016418457,-8.5601806640625,-5.2032470703125,9.918212890625
1.4437499,-3.397372245788574,-4.134786128997803,7.467514991760254,-10.650634765625,-5.7525634765625,9.368896484375
1.4462499,-3.7900211811065674,-4.101267337799072,7.249642848968506,-13.0157470703125,-7.32421875,8.5601806640625
1.4487499,-4.137180328369141,-4.003105163574219,7.017405033111572,-15.167236328125,-9.6588134765625,7.9193115234375
1.4512498999999999,-4.393360137939453,-3.866635799407959,6.794744491577148,-16.387939453125,-11.71875,6.8511962890625
1.4537499,-4.529829502105713,-3.711012601852417,6.605602264404297,-15.93017578125,-13.7176513671875,5.9356689453125
1.4562499,-4.54419469833374,-3.5745432376861572,6.473921298980713,-15.3961181640625,-15.3045654296875,4.302978515625
1.4587499,-4.460397720336914,-3.490746021270752,6.4164605140686035,-14.739990234375,-16.5863037109375,2.2125244140625
1.4612498999999999,-4.321534156799316,-3.4739866256713867,6.385335922241211,-13.6260986328125,-17.4102783203125,0.2899169921875
1.4637499,-4.185064792633057,-3.529053211212158,6.370970726013184,-12.63427734375,-18.00537109375,-1.2054443359375
1.4662499,-4.079719543457031,-3.6343982219696045,6.354211330413818,-12.0849609375,-18.6004638671875,-2.4261474609375
1.4687499,-4.0294413566589355,-3.773261785507202,6.3302693367004395,-11.8560791015625,-19.561767578125,-3.4332275390625
1.4712498999999999,-4.01268196105957,-3.9264907836914062,6.311115741729736,-11.5966796875,-20.4925537109375,-4.0283203125
1.4737498999999998,-4.005499362945557,-4.086902141571045,6.282385349273682,-11.077880859375,-21.42333984375,-4.3487548828125
1.4762499,-3.993528366088867,-4.2329487800598145,6.258443355560303,-10.0555419921875,-21.881103515625,-4.39453125
1.4787499,-3.9480385780334473,-4.357447147369385,6.246472358703613,-9.1400146484375,-21.8048095703125,-4.608154296875
1.4812499,-3.8810009956359863,-4.443638324737549,6.253654956817627,-7.9345703125,-22.247314453125,-4.7607421875
1.4837498999999998,-3.773261785507202,-4.489128112792969,6.279991149902344,-6.500244140625,-22.8271484375,-4.7149658203125
1.4862499,-3.6391866207122803,-4.486733913421631,6.313509941101074,-5.5999755859375,-22.5677490234375,-4.852294921875
1.4887499,-3.507505416870117,-4.460397720336914,6.349422931671143,-4.94384765625,-21.1029052734375,-5.126953125
1.4912499,-3.397372245788574,-4.417302131652832,6.3949127197265625,-3.814697265625,-19.8211669921875,-5.218505859375
1.4937498999999999,-3.3231520652770996,-4.3861775398254395,6.493074893951416,-2.62451171875,-19.256591796875,-5.0048828125
1.4962499,-3.2752678394317627,-4.381389141082764,6.636727333068848,-1.7547607421875,-18.9361572265625,-4.8675537109375
1.4987499,-3.248931646347046,-4.405331134796143,6.8162922859191895,-0.762939453125,-18.2342529296875,-4.638671875
1.5012499,-3.19865345954895,-4.443638324737549,7.01979923248291,0.823974609375,-17.913818359375,-4.82177734375
1.5037498999999999,-3.136404275894165,-4.486733913421631,7.1921820640563965,2.3651123046875,-18.280029296875,-4.791259765625
1.5062499,-3.0861260890960693,-4.5154643058776855,7.354987621307373,3.5858154296875,-17.9595947265625,-4.1961669921875
1.5087499,-3.0526070594787598,-4.522646903991699,7.5201873779296875,2.9449462890625,-15.8233642578125,-3.90625
1.5112499,-3.0550012588500977,-4.532223701477051,7.69735860824585,1.312255859375,-14.2974853515625,-3.23486328125
1.5137498999999999,-3.093308687210083,-4.541800498962402,7.929595947265625,2.01416015625,-15.68603515625,-2.8533935546875
1.5162499,-3.071760892868042,-4.522646903991699,8.202534675598145,3.47900390625,-14.8773193359375,-3.143310546875
1.5187499,-3.093308687210083,-4.546588897705078,8.470685958862305,1.9989013671875,-11.077880859375,-4.1046142578125
1.5212499,-3.028665065765381,-4.596867084503174,8.631096839904785,1.0986328125,-6.9427490234375,-5.9051513671875
1.5237498999999999,-3.07415509223938,-4.637568473815918,8.688557624816895,5.3253173828125,-7.3699951171875,-5.035400390625
1.5262499,-3.184288263320923,-4.666299343109131,8.482656478881836,7.080078125,-8.3160400390625,-3.5400390625
1.5287499,-3.622427225112915,-4.546588897705078,7.9631147384643555,9.9334716796875,-2.227783203125,-3.7994384765625
1.5312499,-4.170699596405029,-4.343081951141357,7.400477409362793,9.6282958984375,12.8326416015625,-1.8463134765625
1.5337498999999999,-4.795586109161377,-4.060565948486328,7.161057472229004,12.725830078125,11.444091796875,-0.152587890625
1.5362499,-5.116408824920654,-3.8594532012939453,7.393294811248779,12.8021240234375,-0.1068115234375,1.3580322265625
1.5387499,-4.999093055725098,-3.845088005065918,8.226476669311523,9.979248046875,-0.4119873046875,2.685546875
1.5412499,-4.517858505249023,-4.0294413566589355,9.232041358947754,11.3983154296875,8.4686279296875,3.1890869140625
1.5437499,-3.9480385780334473,-4.376600742340088,9.971850395202637,17.822265625,14.4195556640625,4.150390625
1.5462498999999998,-3.466804027557373,-4.817133903503418,10.251971244812012,22.6593017578125,15.960693359375,5.43212890625
1.5487499,-3.1962592601776123,-5.245696067810059,10.101137161254883,24.5819091796875,16.29638671875,5.8746337890625
1.5512499,-3.0837318897247314,-5.588066577911377,9.715670585632324,25.115966796875,14.70947265625,6.4849853515625
1.5537499,-2.937685489654541,-5.803544998168945,9.313444137573242,22.52197265625,13.153076171875,7.1868896484375
1.5562498999999999,-2.801215887069702,-5.856217384338379,9.006986618041992,21.514892578125,10.55908203125,8.1787109375
1.5587499,-2.580949544906616,-5.705382823944092,8.877699851989746,19.6533203125,9.70458984375,9.063720703125
1.5612499,-2.33913516998291,-5.434837818145752,8.83939266204834,18.218994140625,10.9710693359375,8.941650390625
1.5637499,-2.1045033931732178,-5.097255229949951,8.844181060791016,19.3634033203125,9.429931640625,9.7808837890625
1.5662498999999999,-1.9129672050476074,-4.795586109161377,8.83939266204834,19.6990966796875,8.8958740234375,9.9639892578125
1.5687499,-1.7549498081207275,-4.584896087646484,8.777143478393555,19.95849609375,9.82666015625,9.002685546875
1.5712499,-1.6974890232086182,-4.4508209228515625,8.69095230102539,19.4091796875,10.2691650390625,7.8887939453125
1.5737499,-1.6376339197158813,-4.393360137939453,8.561665534973145,17.7764892578125,8.636474609375,6.7901611328125
1.5762498999999999,-1.6304513216018677,-4.350264549255371,8.418013572692871,16.4031982421875,6.3323974609375,5.401611328125
1.5787499,-1.5969325304031372,-4.2951979637146,8.26239013671875,14.5721435546875,5.401611328125,3.997802734375
1.5812499,-1.5634137392044067,-4.220977783203125,8.097189903259277,12.1307373046875,5.7373046875,2.9754638671875
1.5837499,-1.5490485429763794,-4.106055736541748,7.922413349151611,9.9639892578125,5.5084228515625,1.9989013671875
1.5862498999999999,-1.5538369417190552,-3.9671921730041504,7.747636795043945,8.2855224609375,4.8675537109375,0.6256103515625
1.5887499,-1.5873557329177856,-3.8283286094665527,7.599195957183838,6.3018798828125,3.6773681640625,-0.54931640625
1.5912499,-1.6352397203445435,-3.7038300037384033,7.496245384216309,3.662109375,2.38037109375,-2.2430419921875
1.5937499,-1.678335428237915,-3.6343982219696045,7.438784599304199,1.2664794921875,2.044677734375,-4.150390625
1.5962498999999999,-1.764526605606079,-3.622427225112915,7.383718013763428,-0.0762939453125,0.9765625,-4.8675537109375
1.5987499,-1.843535304069519,-3.6535518169403076,7.33583402633667,-0.762939453125,0.6866455078125,-5.8135986328125
1.6012499,-1.9321208000183105,-3.732560396194458,7.264008045196533,-1.678466796875,-0.5645751953125,-7.1868896484375
1.6037499,-2.056619167327881,-3.825934410095215,7.206547260284424,-1.0833740234375,-3.3721923828125,-7.4462890625
1.6062499,-2.1523873805999756,-3.9264907836914062,7.223306655883789,-2.2430419921875,-2.1514892578125,-7.781982421875
1.6087498999999998,-2.2625205516815186,-4.02465295791626,7.311892032623291,-5.2337646484375,-1.40380859375,-8.453369140625
1.6112499,-2.3511061668395996,-4.120420932769775,7.484274387359619,-5.9661865234375,-2.4261474609375,-8.7432861328125
1.6137499,-2.3535003662109375,-4.2329487800598145,7.706935405731201,-5.9967041015625,-3.2806396484375,-9.246826171875
1.6162499,-2.3271639347076416,-4.369418144226074,7.893682956695557,-4.638671875,-5.1727294921875,-9.796142578125
1.6187498999999999,-2.3247697353363037,-4.541800498962402,8.037335395812988,-2.655029296875,-4.913330078125,-10.7269287109375
1.6212499,-2.365471363067627,-4.709394931793213,8.111555099487305,-1.9683837890625,-2.3040771484375,-11.8560791015625
1.6237499,-2.5498247146606445,-4.8602294921875,8.11634349822998,-2.5787353515625,-2.9754638671875,-12.1612548828125
1.6262499,-2.8155810832977295,-4.927267074584961,8.04691219329834,-2.0599365234375,-3.6468505859375,-11.90185546875
1.6287498999999999,-3.1316158771514893,-4.891354084014893,7.953537940979004,-3.6163330078125,-0.5950927734375,-11.566162109375
1.6312499,-3.442862033843994,-4.790797710418701,7.850587368011475,-4.547119140625,0.3204345703125,-11.322021484375
1.6337499,-3.643975019454956,-4.663905143737793,7.838616371154785,-5.0506591796875,-0.91552734375,-10.6658935546875
1.6362499,-3.7038300037384033,-4.599261283874512,7.936778545379639,-5.1116943359375,-2.593994140625,-10.2081298828125
1.6387498999999999,-3.600879430770874,-4.639962673187256,8.121131896972656,-4.638671875,-2.0751953125,-10.6964111328125
1.6412499,-3.3949780464172363,-4.776432514190674,8.336610794067383,-3.35693359375,-1.03759765625,-11.53564453125
1.6437499,-3.1962592601776123,-4.963180065155029,8.480262756347656,-2.0294189453125,-0.701904296875,-11.9476318359375
1.6462499,-3.066972494125366,-5.118803024291992,8.53293514251709,-1.373291015625,0,-12.542724609375
1.6487498999999999,-3.0789434909820557,-5.219359874725342,8.47547435760498,-1.495361328125,0.9613037109375,-13.153076171875
1.6512499,-3.181894063949585,-5.243301868438721,8.346187591552734,-1.708984375,1.373291015625,-13.18359375
1.6537499,-3.3255462646484375,-5.195417881011963,8.195352554321289,-2.6092529296875,1.15966796875,-11.90185546875
1.6562499,-3.4141316413879395,-5.123591423034668,8.075642585754395,-4.1351318359375,-0.1068115234375,-11.4593505859375
1.6587498999999999,-3.4620156288146973,-5.056553840637207,7.934384346008301,-5.31005859375,0.1983642578125,-10.80322265625
1.6612499,-3.442862033843994,-4.991910457611084,7.82185697555542,-8.6517333984375,3.72314453125,-8.6822509765625
1.6637499,-3.3063924312591553,-4.9799394607543945,7.706935405731201,-8.6822509765625,2.197265625,-7.537841796875
1.6662499,-3.0885202884674072,-4.991910457611084,7.556100368499756,-6.2255859375,-0.91552734375,-6.65283203125
1.6687499,-2.849100112915039,-5.006275653839111,7.438784599304199,-4.2572021484375,-0.48828125,-6.561279296875
1.6712498999999998,-2.7317841053009033,-4.977545261383057,7.326257228851318,-4.94384765625,4.45556640625,-7.7972412109375
1.6737499,-2.913743495941162,-4.853046894073486,7.232883453369141,-10.6201171875,8.7738037109375,-9.4146728515625
1.6762499,-3.399766445159912,-4.60165548324585,7.254431247711182,-15.7928466796875,7.0648193359375,-10.284423828125
1.6787499,-4.05817174911499,-4.247313976287842,7.343016624450684,-21.5911865234375,3.5552978515625,-10.894775390625
1.6812498999999999,-4.692635536193848,-3.8546648025512695,7.565677165985107,-26.519775390625,1.556396484375,-12.0849609375
1.6837499,-5.03021764755249,-3.4596214294433594,7.829039573669434,-31.219482421875,-0.6866455078125,-14.068603515625
1.6862499,-4.922478675842285,-3.1483752727508545,8.066065788269043,-35.8123779296875,-5.2337646484375,-15.838623046875
1.6887499,-4.448426723480225,-2.959233283996582,8.219294548034668,-37.65869140625,-10.7879638671875,-17.4407958984375
1.6912498999999999,-3.794809579849243,-2.935291290283203,8.255207061767578,-39.4287109375,-6.7138671875,-19.3023681640625
1.6937499,-3.19865345954895,-3.07415509223938,8.269572257995605,-45.1812744140625,0.518798828125,-22.0489501953125
1.6962499,-2.853888511657715,-3.35667085647583,8.269572257995605,-49.530029296875,-0.79345703125,-24.688720703125
1.6987499,-2.7533318996429443,-3.7229835987091064,8.322244644165039,-52.30712890625,-5.126953125,-25.93994140625
1.7012498999999999,-2.849100112915039,-4.132391929626465,8.343792915344238,-54.5806884765625,-4.6844482421875,-27.3895263671875
1.7037499,-3.07415509223938,-4.541800498962402,8.343792915344238,-55.694580078125,-1.40380859375,-27.5726318359375
1.7062499,-3.375824451446533,-4.93923807144165,8.29830265045166,-54.9774169921875,-0.06103515625,-27.4810791015625
1.7087499,-3.6559460163116455,-5.307945251464844,8.276755332946777,-53.22265625,0.2899169921875,-27.03857421875
1.7112498999999999,-3.818751811981201,-5.631162166595459,8.307879447937012,-52.6275634765625,0.8087158203125,-27.0843505859375
1.7137499,-3.8331170082092285,-5.947196960449219,8.35336971282959,-50.811767578125,-0.3662109375,-26.947021484375
1.7162499,-3.691859006881714,-6.2392897605896,8.398859977722168,-47.5616455078125,-1.983642578125,-26.275634765625
1.7187499,-3.469198226928711,-6.50025749206543,8.434772491455078,-43.6248779296875,-1.77001953125,-25.4669189453125
1.7212498999999999,-3.2393548488616943,-6.737283706665039,8.396465301513672,-39.3829345703125,-2.410888671875,-24.5208740234375
1.7237499,-3.0573954582214355,-6.933608055114746,8.336610794067383,-33.4625244140625,-4.364013671875,-23.8037109375
1.7262499,-2.9328970909118652,-7.067683219909668,8.26239013671875,-26.5960693359375,-4.486083984375,-22.705078125
1.7287499,-2.87064790725708,-7.12035608291626,8.202534675598145,-20.263671875,-4.150390625,-21.3775634765625
1.7312499,-2.8658595085144043,-7.084442615509033,8.188169479370117,-14.3890380859375,-4.9591064453125,-19.622802734375
1.7337498999999998,-2.9089550971984863,-6.959944248199463,8.214506149291992,-10.009765625,-4.730224609375,-18.1884765625
1.7362499,-2.9975404739379883,-6.773196697235107,8.250418663024902,-6.195068359375,-4.913330078125,-17.27294921875
1.7387499,-3.1220390796661377,-6.531382083892822,8.283937454223633,-2.74658203125,-5.2032470703125,-16.082763671875
1.7412499,-3.2800562381744385,-6.251260757446289,8.312667846679688,-1.15966796875,-4.6539306640625,-14.95361328125
1.7437498999999999,-3.421314239501953,-5.9304375648498535,8.327033042907715,-0.4730224609375,-4.669189453125,-13.85498046875
1.7462499,-3.536235809326172,-5.60722017288208,8.324639320373535,0.8087158203125,-6.8359375,-12.9852294921875
1.7487499,-3.5410242080688477,-5.295974254608154,8.336610794067383,3.1280517578125,-9.429931640625,-11.7034912109375
1.7512499,-3.4380736351013184,-5.056553840637207,8.341399192810059,4.7607421875,-10.0860595703125,-11.8865966796875
1.7537498999999999,-3.24414324760437,-4.879383087158203,8.391676902770996,4.669189453125,-8.7738037109375,-12.7105712890625
1.7562499,-3.045424461364746,-4.745307922363281,8.451532363891602,3.4332275390625,-6.500244140625,-13.5955810546875
1.7587499,-2.9041666984558105,-4.63517427444458,8.497021675109863,2.50244140625,-5.8441162109375,-14.7705078125
1.7612499,-2.8131868839263916,-4.51067590713501,8.530540466308594,2.0904541015625,-6.3323974609375,-15.93017578125
1.7637498999999999,-2.7748796939849854,-4.357447147369385,8.497021675109863,1.190185546875,-7.354736328125,-17.0440673828125
1.7662499,-2.7509377002716064,-4.223371982574463,8.427590370178223,-0.1678466796875,-8.5906982421875,-17.852783203125
1.7687499,-2.7030537128448486,-4.106055736541748,8.336610794067383,-1.52587890625,-9.613037109375,-19.2108154296875
1.7712499,-2.6623523235321045,-4.043806552886963,8.243236541748047,-3.265380859375,-9.6588134765625,-20.904541015625
1.7737498999999999,-2.6360161304473877,-4.043806552886963,8.183381080627441,-5.9051513671875,-9.58251953125,-22.369384765625
1.7762499,-2.650381326675415,-4.101267337799072,8.195352554321289,-7.2784423828125,-9.6435546875,-23.6968994140625
1.7787499,-2.715024709701538,-4.2090067863464355,8.257601737976074,-8.85009765625,-9.8724365234375,-25.08544921875
1.7812499,-2.8179752826690674,-4.345476150512695,8.365341186523438,-10.25390625,-10.92529296875,-26.2451171875
1.7837498999999999,-2.9233202934265137,-4.484339714050293,8.463502883911133,-11.6119384765625,-11.3677978515625,-27.1759033203125
1.7862499,-3.021482467651367,-4.60165548324585,8.528146743774414,-12.8173828125,-11.3677978515625,-27.7252197265625
1.7887499,-3.112462282180786,-4.699818134307861,8.528146743774414,-13.397216796875,-11.6424560546875,-28.13720703125
1.7912499,-3.1962592601776123,-4.764461517333984,8.528146743774414,-14.1754150390625,-11.8408203125,-28.076171875
1.7937499,-3.251325845718384,-4.807557106018066,8.528146743774414,-16.3421630859375,-12.75634765625,-29.144287109375
1.7962498999999998,-3.265691041946411,-4.843470096588135,8.53293514251709,-17.7459716796875,-14.129638671875,-30.181884765625
1.7987499,-3.205836057662964,-4.865017890930176,8.547300338745117,-18.0206298828125,-15.1214599609375,-30.2886962890625
1.8012499,-3.098097085952759,-4.910507678985596,8.508993148803711,-18.12744140625,-15.7318115234375,-30.5633544921875
1.8037499,-3.023876667022705,-4.989516258239746,8.451532363891602,-17.8070068359375,-15.5029296875,-30.6854248046875
1.8062498999999999,-3.026270866394043,-5.114014625549316,8.439560890197754,-18.585205078125,-13.519287109375,-30.5023193359375
1.8087499,-3.1100680828094482,-5.2911858558654785,8.446743965148926,-19.989013671875,-13.36669921875,-31.463623046875
1.8112499,-3.222595453262329,-5.477933406829834,8.461109161376953,-19.8822021484375,-14.83154296875,-31.9366455078125
1.8137499,-3.2824504375457764,-5.623979568481445,8.453926086425781,-17.1356201171875,-16.8914794921875,-31.768798828125
1.8162498999999999,-3.248931646347046,-5.710171222686768,8.372523307800293,-14.0533447265625,-17.4407958984375,-31.524658203125
1.8187499,-3.1004912853240967,-5.74129581451416,8.24084186553955,-12.786865234375,-17.0440673828125,-32.4249267578125
1.8212499,-2.9305028915405273,-5.729324817657471,8.087613105773926,-11.0015869140625,-17.5628662109375,-32.89794921875
1.8237499,-2.75812029838562,-5.7125654220581055,7.9631147384643555,-8.8653564453125,-17.6239013671875,-33.4625244140625
1.8262498999999999,-2.626439332962036,-5.693411827087402,7.876923561096191,-7.9345703125,-16.8609619140625,-34.5458984375
1.8287499,-2.5115175247192383,-5.674258232116699,7.857769966125488,-6.622314453125,-17.303466796875,-35.1104736328125
1.8312499,-2.4396915435791016,-5.664681434631348,7.876923561096191,-4.3487548828125,-19.256591796875,-34.8358154296875
1.8337499,-2.3535003662109375,-5.647922039031982,7.915230751037598,-2.899169921875,-19.5770263671875,-35.0799560546875
1.8362498999999999,-2.319981336593628,-5.612008571624756,7.891288757324219,-3.4637451171875,-19.04296875,-36.5447998046875
1.8387499,-2.3056161403656006,-5.52821159362793,7.781155586242676,-4.82177734375,-19.073486328125,-37.2314453125
1.8412499,-2.2194249629974365,-5.442020416259766,7.6782050132751465,-7.38525390625,-20.08056640625,-37.994384765625
1.8437499,-2.0805611610412598,-5.351040840148926,7.572859764099121,-7.99560546875,-24.627685546875,-38.5284423828125
1.8462498999999999,-1.8770540952682495,-5.305551052093506,7.55131196975708,-7.3394775390625,-25.87890625,-38.7420654296875
1.8487499,-1.7118542194366455,-5.303156852722168,7.659051418304443,-9.185791015625,-20.782470703125,-39.2303466796875
1.8512499,-1.6424223184585571,-5.348646640777588,7.8529815673828125,-11.04736328125,-18.85986328125,-40.313720703125
1.8537499,-1.656787633895874,-5.410895824432373,8.121131896972656,-13.1378173828125,-20.0653076171875,-40.3594970703125
1.8562499,-1.6759412288665771,-5.509057998657227,8.437167167663574,-15.7012939453125,-22.308349609375,-39.5660400390625
1.8587498999999998,-1.5849615335464478,-5.5976433753967285,8.722076416015625,-17.0135498046875,-24.0325927734375,-39.0777587890625
1.8612499,-1.3934253454208374,-5.676652431488037,8.93037223815918,-18.646240234375,-25.4974365234375,-38.9862060546875
1.8637499,-1.1659762859344482,-5.726930618286133,9.050082206726074,-21.636962890625,-25.08544921875,-39.337158203125
1.8662499,-1.0223240852355957,-5.765237808227539,9.133879661560059,-26.092529296875,-23.25439453125,-39.9169921875
1.8687498999999999,-1.0869675874710083,-5.774814605712891,9.188945770263672,-31.8450927734375,-21.1639404296875,-41.3055419921875
1.8712499,-1.3407529592514038,-5.748478412628174,9.29189682006836,-38.2843017578125,-18.585205078125,-42.4957275390625
1.8737499,-1.6280571222305298,-5.6670756340026855,9.418789863586426,-43.6248779296875,-18.890380859375,-43.7774658203125
1.8762499,-1.8986018896102905,-5.568912982940674,9.552865028381348,-45.3948974609375,-23.6663818359375,-45.4864501953125
1.8787498999999999,-2.1284453868865967,-5.47075080871582,9.634267807006836,-44.37255859375,-22.5067138671875,-46.539306640625
1.8812499,-2.322375535964966,-5.446808815002441,9.691728591918945,-47.42431640625,-14.678955078125,-49.01123046875
1.8837499,-2.5929205417633057,-5.544970989227295,9.703699111938477,-49.468994140625,-11.4288330078125,-51.1627197265625
1.8862499,-2.9041666984558105,-5.770026206970215,9.66539192199707,-50.1861572265625,-11.627197265625,-52.1392822265625
1.8887498999999999,-3.162740468978882,-6.074089527130127,9.603142738342285,-51.0406494140625,-10.772705078125,-52.91748046875
1.8912499,-3.3279404640197754,-6.387730121612549,9.461885452270508,-52.0782470703125,-10.8184814453125,-53.2379150390625
1.8937499,-3.318363666534424,-6.619967937469482,9.248801231384277,-54.3060302734375,-11.810302734375,-53.4210205078125
1.8962499,-3.1292216777801514,-6.71334171295166,8.978256225585938,-57.4951171875,-12.3443603515625,-53.9703369140625
1.8987498999999999,-2.762908697128296,-6.655880928039551,8.667010307312012,-59.8907470703125,-12.969970703125,-54.99267578125
1.9012499,-2.3056161403656006,-6.457161903381348,8.355764389038086,-62.3016357421875,-14.5111083984375,-56.09130859375
1.9037499,-1.8818424940109253,-6.172252178192139,8.044517517089844,-63.8885498046875,-16.143798828125,-57.0831298828125
1.9062499,-1.50355863571167,-5.793968200683594,7.771578788757324,-66.0552978515625,-17.1966552734375,-59.112548828125
1.9087498999999999,-1.2617442607879639,-5.384559631347656,7.575253963470459,-69.39697265625,-18.06640625,-61.0809326171875
1.9112499,-1.1228805780410767,-5.015852451324463,7.448361396789551,-69.5648193359375,-18.12744140625,-63.6138916015625
1.9137499,-1.094150185585022,-4.7405195236206055,7.393294811248779,-69.580078125,-17.822265625,-66.2078857421875
1.9162499,-1.1779472827911377,-4.616020679473877,7.429207801818848,-70.0836181640625,-17.242431640625,-68.3746337890625
1.9187499,-1.3072341680526733,-4.639962673187256,7.556100368499756,-71.1669921875,-16.7388916015625,-70.892333984375
1.9212498999999998,-1.41257905960083,-4.790797710418701,7.7763671875,-73.1353759765625,-17.8680419921875,-73.4100341796875
1.9237499,-1.4484920501708984,-5.032611846923828,8.08282470703125,-73.3642578125,-20.172119140625,-75.164794921875
1.9262499,-1.400607943534851,-5.3342814445495605,8.429984092712402,-74.2645263671875,-19.95849609375,-76.9500732421875
1.9287499,-1.292868971824646,-5.6670756340026855,8.753201484680176,-75.4241943359375,-19.3939208984375,-78.4759521484375
1.9312498999999999,-1.1875240802764893,-5.995080947875977,9.038111686706543,-75.4547119140625,-20.477294921875,-79.3304443359375
1.9337499,-1.0989385843276978,-6.289567947387695,9.246406555175781,-75.408935546875,-21.4080810546875,-80.413818359375
1.9362499,-1.0678139925003052,-6.524199485778809,9.385271072387695,-75.0885009765625,-21.331787109375,-81.5277099609375
1.9387499,-1.0869675874710083,-6.71334171295166,9.488221168518066,-74.798583984375,-21.4385986328125,-81.878662109375
1.9412498999999999,-1.1803414821624756,-6.864176273345947,9.579200744628906,-74.0203857421875,-22.796630859375,-81.817626953125
1.9437499,-1.2689268589019775,-6.998251438140869,9.6989107131958,-73.54736328125,-24.0325927734375,-82.3822021484375
1.9462499,-1.3670891523361206,-7.132327079772949,9.832986831665039,-72.75390625,-25.0396728515625,-82.977294921875
1.9487499,-1.455674648284912,-7.271190643310547,9.928754806518555,-71.9451904296875,-25.238037109375,-83.1298828125
1.9512498999999999,-1.5418659448623657,-7.398083209991455,9.995792388916016,-71.35009765625,-24.7802734375,-83.3282470703125
1.9537499,-1.6304513216018677,-7.503427982330322,9.995792388916016,-70.2362060546875,-25.3143310546875,-83.4197998046875
1.9562499,-1.7046716213226318,-7.556100368499756,9.976638793945312,-69.2596435546875,-26.18408203125,-83.6181640625
1.9587499,-1.7405846118927002,-7.558494567871094,9.907206535339355,-68.42041015625,-26.67236328125,-83.9080810546875
1.9612498999999999,-1.7501614093780518,-7.513004779815674,9.758766174316406,-67.7032470703125,-27.3590087890625,-84.3048095703125
1.9637499,-1.6927006244659424,-7.412448406219482,9.579200744628906,-67.535400390625,-28.4576416015625,-84.686279296875
1.9662499,-1.647210717201233,-7.285555839538574,9.349357604980469,-66.9403076171875,-28.167724609375,-85.1287841796875
1.9687499,-1.5897499322891235,-7.139509677886963,9.165003776550293,-66.5283203125,-27.099609375,-85.5560302734375
1.9712498999999999,-1.5514427423477173,-7.007828235626221,9.033323287963867,-67.9168701171875,-27.03857421875,-85.784912109375
1.9737499,-1.4939818382263184,-6.950367450714111,8.927978515625,-69.3206787109375,-26.6265869140625,-86.2579345703125
1.9762499,-1.1994950771331787,-7.127538681030273,8.81784439086914,-68.634033203125,-29.1290283203125,-89.0350341796875
1.9787499,-1.1994950771331787,-7.127538681030273,8.81784439086914,-68.634033203125,-29.1290283203125,-89.0350341796875
1.9812499,-0.7589619159698486,-7.637503623962402,8.743624687194824,-69.793701171875,-28.9154052734375,-93.0633544921875
1.9837499,-0.7589619159698486,-7.637503623962402,8.743624687194824,-69.793701171875,-28.9154052734375,-93.0633544921875
1.9862499,-0.5003881454467773,-8.152256965637207,8.860940933227539,-70.8465576171875,-29.6173095703125,-95.3826904296875
1.9887499,-0.5003881454467773,-8.152256965637207,8.860940933227539,-70.8465576171875,-29.6173095703125,-95.3826904296875
1.9912499,-0.790086567401886,-8.327033042907715,9.102754592895508,-71.96044921875,-26.8096923828125,-98.8922119140625
1.9937498999999999,-0.790086567401886,-8.327033042907715,9.102754592895508,-71.96044921875,-26.8096923828125,-98.8922119140625
1.9962499,-1.6112977266311646,-8.178592681884766,9.081207275390625,-72.509765625,-24.1241455078125,-101.165771484375
1.9987499,-1.6112977266311646,-8.178592681884766,9.081207275390625,-72.509765625,-24.1241455078125,-101.165771484375
2.0012499,-2.0183119773864746,-8.22887134552002,8.899248123168945,-76.7364501953125,-23.284912109375,-102.0965576171875
2.0037499,-2.0183119773864746,-8.22887134552002,8.899248123168945,-76.7364501953125,-23.284912109375,-102.0965576171875
2.0062499,-1.2856862545013428,-8.734047889709473,9.028534889221191,-73.8067626953125,-28.8238525390625,-105.560302734375
2.0087498999999998,-1.2856862545013428,-8.734047889709473,9.028534889221191,-73.8067626953125,-28.8238525390625,-105.560302734375
2.0112499,-0.49320554733276367,-9.373299598693848,9.375694274902344,-73.3795166015625,-24.017333984375,-109.80224609375
2.0137499,-0.49320554733276367,-9.373299598693848,9.375694274902344,-73.3795166015625,-24.017333984375,-109.80224609375
2.0162499,-0.5386953949928284,-9.624691009521484,9.749189376831055,-71.4874267578125,-28.86962890625,-112.9913330078125
2.0187499,-0.5386953949928284,-9.624691009521484,9.749189376831055,-71.4874267578125,-28.86962890625,-112.9913330078125
2.0212499,-0.727837324142456,-9.387664794921875,10.036493301391602,-70.12939453125,-30.975341796875,-117.3095703125
2.0237499,-0.727837324142456,-9.387664794921875,10.036493301391602,-70.12939453125,-30.975341796875,-117.3095703125
2.0262499,-0.40940847992897034,-9.162610054016113,9.93354320526123,-69.671630859375,-36.0565185546875,-121.002197265625
2.0287498999999998,-0.40940847992897034,-9.162610054016113,9.93354320526123,-69.671630859375,-36.0565185546875,-121.002197265625
2.0312499,0.2777273952960968,-9.246406555175781,9.564835548400879,-72.8759765625,-40.618896484375,-125.4425048828125
2.0337499,0.2777273952960968,-9.246406555175781,9.564835548400879,-72.8759765625,-40.618896484375,-125.4425048828125
2.0362499,0.5746083855628967,-9.425971984863281,9.337387084960938,-81.35986328125,-41.9769287109375,-131.1187744140625
2.0387499,0.5746083855628967,-9.425971984863281,9.337387084960938,-81.35986328125,-41.9769287109375,-131.1187744140625
2.0412499,0.31603461503982544,-9.344569206237793,9.421183586120605,-87.615966796875,-46.142578125,-134.70458984375
2.0437499,0.31603461503982544,-9.344569206237793,9.421183586120605,-87.615966796875,-46.142578125,-134.70458984375
2.0462499,0.10295066982507706,-9.059659004211426,9.653421401977539,-91.00341796875,-49.1790771484375,-140.6707763671875
2.0487499,0.10295066982507706,-9.059659004211426,9.653421401977539,-91.00341796875,-49.1790771484375,-140.6707763671875
2.0512498999999997,0.21787235140800476,-8.9064302444458,9.792284965515137,-96.771240234375,-50.6744384765625,-146.087646484375
2.0537499,0.21787235140800476,-8.9064302444458,9.792284965515137,-96.771240234375,-50.6744384765625,-146.087646484375
2.0562499,0.4668693244457245,-9.095572471618652,9.730035781860352,-104.00390625,-50.3997802734375,-151.3519287109375
2.0587499,0.4668693244457245,-9.095572471618652,9.730035781860352,-104.00390625,-50.3997802734375,-151.3519287109375
2.0612499,0.6392518281936646,-9.5408935546875,9.509769439697266,-110.5499267578125,-51.3916015625,-154.5257568359375
2.0637499,0.6392518281936646,-9.5408935546875,9.509769439697266,-110.5499267578125,-51.3916015625,-154.5257568359375
2.0662499,0.7398083209991455,-9.871294021606445,9.20091724395752,-116.1041259765625,-51.6510009765625,-157.71484375
2.0687499,0.7398083209991455,-9.871294021606445,9.20091724395752,-116.1041259765625,-51.6510009765625,-157.71484375
2.0712498999999998,0.8259995579719543,-9.93354320526123,8.9064302444458,-119.9951171875,-52.276611328125,-160.6903076171875
2.0737499,0.8259995579719543,-9.93354320526123,8.9064302444458,-119.9951171875,-52.276611328125,-160.6903076171875
2.0762499,0.9217676520347595,-9.84495735168457,8.700529098510742,-123.626708984375,-52.7496337890625,-164.24560546875
2.0787499,0.9217676520347595,-9.84495735168457,8.700529098510742,-123.626708984375,-52.7496337890625,-164.24560546875
2.0812499,1.0797849893569946,-9.646238327026367,8.578424453735352,-126.5869140625,-53.9093017578125,-168.182373046875
2.0837499,1.0797849893569946,-9.646238327026367,8.578424453735352,-126.5869140625,-53.9093017578125,-168.182373046875
2.0862499,1.2952631711959839,-9.41400146484375,8.554482460021973,-128.631591796875,-54.62646484375,-171.539306640625
2.0887499,1.2952631711959839,-9.41400146484375,8.554482460021973,-128.631591796875,-54.62646484375,-171.539306640625
2.0912498999999998,1.501164436340332,-9.287108421325684,8.556877136230469,-129.974365234375,-55.17578125,-175.5523681640625
2.0937499,1.501164436340332,-9.287108421325684,8.556877136230469,-129.974365234375,-55.17578125,-175.5523681640625
2.0962499,1.6759412288665771,-9.258378028869629,8.44195556640625,-131.3323974609375,-55.755615234375,-178.3447265625
2.0987499,1.6759412288665771,-9.258378028869629,8.44195556640625,-131.3323974609375,-55.755615234375,-178.3447265625
2.1012499,1.8291701078414917,-9.186552047729492,8.185775756835938,-132.8277587890625,-56.610107421875,-180.755615234375
2.1037499,1.8291701078414917,-9.186552047729492,8.185775756835938,-132.8277587890625,-56.610107421875,-180.755615234375
2.1062499,2.0159177780151367,-9.062053680419922,7.915230751037598,-133.392333984375,-57.4798583984375,-183.04443359375
2.1087499,2.0159177780151367,-9.062053680419922,7.915230751037598,-133.392333984375,-57.4798583984375,-183.04443359375
2.1112499,2.233790159225464,-9.040505409240723,7.68538761138916,-131.4849853515625,-58.2427978515625,-185.943603515625
2.1137498999999997,2.233790159225464,-9.040505409240723,7.68538761138916,-131.4849853515625,-58.2427978515625,-185.943603515625
2.1162499,2.4013843536376953,-9.17936897277832,7.46033239364624,-127.9144287109375,-58.2733154296875,-187.7899169921875
2.1187499,2.4013843536376953,-9.17936897277832,7.46033239364624,-127.9144287109375,-58.2733154296875,-187.7899169921875
2.1212499,2.5474305152893066,-9.306262016296387,7.158663272857666,-124.45068359375,-58.8531494140625,-188.7359619140625
2.1237499,2.5474305152893066,-9.306262016296387,7.158663272857666,-124.45068359375,-58.8531494140625,-188.7359619140625
2.1262499,2.7222073078155518,-9.299078941345215,6.7492547035217285,-123.3367919921875,-58.7615966796875,-188.6138916015625
2.1287499,2.7222073078155518,-9.299078941345215,6.7492547035217285,-123.3367919921875,-58.7615966796875,-188.6138916015625
2.1312499,2.8993782997131348,-9.141061782836914,6.361393928527832,-124.237060546875,-59.3719482421875,-187.8509521484375
2.1337498999999998,2.8993782997131348,-9.141061782836914,6.361393928527832,-124.237060546875,-59.3719482421875,-187.8509521484375
2.1362499,3.0550012588500977,-8.848969459533691,6.016628742218018,-126.0223388671875,-59.173583984375,-186.920166015625
2.1387499,3.0550012588500977,-8.848969459533691,6.016628742218018,-126.0223388671875,-59.173583984375,-186.920166015625
2.1412499,3.160346269607544,-8.49941635131836,5.585672378540039,-127.74658203125,-58.7310791015625,-187.01171875
2.1437499,3.160346269607544,-8.49941635131836,5.585672378540039,-127.74658203125,-58.7310791015625,-187.01171875
2.1462499,3.2106244564056396,-8.061277389526367,5.094861030578613,-130.37109375,-58.7921142578125,-187.774658203125
2.1487499,3.2106244564056396,-8.061277389526367,5.094861030578613,-130.37109375,-58.7921142578125,-187.774658203125
2.1512499,3.2776620388031006,-7.546523571014404,4.60165548324585,-135.8184814453125,-56.3812255859375,-191.497802734375
2.1537498999999998,3.2776620388031006,-7.546523571014404,4.60165548324585,-135.8184814453125,-56.3812255859375,-191.497802734375
2.1562499,3.4955344200134277,-7.141903877258301,4.048594951629639,-139.5263671875,-55.023193359375,-193.78662109375
2.1587499,3.6559460163116455,-7.050923824310303,3.7445313930511475,-141.265869140625,-53.9398193359375,-195.2667236328125
2.1612499,3.8283286094665527,-7.0557122230529785,3.450044631958008,-143.24951171875,-52.5360107421875,-196.3043212890625
2.1637499,3.9624037742614746,-7.144298076629639,3.184288263320923,-144.9737548828125,-50.9033203125,-197.0367431640625
2.1662499,4.036623954772949,-7.304709434509277,2.959233283996582,-147.125244140625,-49.560546875,-197.723388671875
2.1687499,4.039018154144287,-7.501033782958984,2.7964274883270264,-149.1851806640625,-48.736572265625,-197.7996826171875
2.1712499,3.9600095748901367,-7.682993412017822,2.691082715988159,-150.87890625,-48.2177734375,-197.8912353515625
2.1737499,3.821146011352539,-7.8098859786987305,2.628833532333374,-152.801513671875,-47.698974609375,-198.18115234375
2.1762499,3.6320040225982666,-7.838616371154785,2.612074136734009,-154.5562744140625,-47.027587890625,-198.394775390625
2.1787499,3.464409828186035,-7.740454196929932,2.6240451335906982,-157.135009765625,-46.112060546875,-199.9664306640625
2.1812499,3.35667085647583,-7.5417351722717285,2.626439332962036,-161.529541015625,-43.8079833984375,-201.4617919921875
2.1837499,3.3686418533325195,-7.275979042053223,2.6144683361053467,-164.8101806640625,-43.0450439453125,-202.0111083984375
2.1862499,3.529053211212158,-6.998251438140869,2.5306711196899414,-166.1529541015625,-43.0450439453125,-203.79638671875
2.1887499,3.7924153804779053,-6.756437301635742,2.3965959548950195,-169.036865234375,-40.8172607421875,-205.291748046875
2.1912499,4.0964789390563965,-6.57926607131958,2.2242133617401123,-172.7142333984375,-38.0706787109375,-206.5887451171875
2.1937499,4.381389141082764,-6.473921298980713,2.0614075660705566,-175.59814453125,-36.0870361328125,-207.58056640625
2.1962498999999998,4.580107688903809,-6.44279670715332,1.922544002532959,-178.28369140625,-34.4390869140625,-208.7554931640625
2.1987499,4.680664539337158,-6.469132900238037,1.843535304069519,-181.3507080078125,-32.6690673828125,-209.8846435546875
2.2012499,4.69024133682251,-6.528987884521484,1.8195933103561401,-183.929443359375,-30.7769775390625,-211.090087890625
2.2037499,4.623203277587891,-6.598419666290283,1.8171991109848022,-186.767578125,-29.0374755859375,-212.4176025390625
2.2062499,4.546588897705078,-6.658275127410889,1.8291701078414917,-189.483642578125,-27.9998779296875,-213.7451171875
2.2087499,4.4508209228515625,-6.67982292175293,1.8291701078414917,-191.6961669921875,-26.7486572265625,-215.14892578125
2.2112499,4.398148536682129,-6.670246124267578,1.7621324062347412,-195.220947265625,-26.092529296875,-216.583251953125
2.2137499,4.388571739196777,-6.610390663146973,1.6496049165725708,-198.30322265625,-24.90234375,-218.292236328125
2.2162498999999998,4.458003520965576,-6.517016887664795,1.4676456451416016,-201.3397216796875,-23.6663818359375,-220.1690673828125
2.2187499,4.594472885131836,-6.399701118469238,1.2497732639312744,-203.8116455078125,-22.0947265625,-221.00830078125
2.2212499,4.778826713562012,-6.299144744873047,1.0534487962722778,-205.4290771484375,-19.683837890625,-221.343994140625
2.2237499,4.977545261383057,-6.270414352416992,0.9026140570640564,-205.9173583984375,-17.02880859375,-221.6033935546875
2.2262499,5.137956619262695,-6.311115741729736,0.8140285611152649,-205.047607421875,-14.6942138671875,-222.015380859375
2.2287499,5.233725070953369,-6.426037311553955,0.7709329724311829,-204.498291015625,-12.3748779296875,-221.8170166015625
2.2312499,5.288791656494141,-6.584054470062256,0.7493851184844971,-204.6661376953125,-9.58251953125,-221.1456298828125
2.2337499,5.284003257751465,-6.751648902893066,0.7709329724311829,-202.8045654296875,-8.1939697265625,-219.7113037109375
2.2362499,5.22175407409668,-6.92881965637207,0.7733271718025208,-201.5228271484375,-5.218505859375,-217.8497314453125
2.2387499,5.188235282897949,-7.091625213623047,0.7661445140838623,-202.1942138671875,-1.64794921875,-216.4764404296875
2.2412499,5.236119270324707,-7.242460250854492,0.8020575642585754,-200.653076171875,-1.0986328125,-213.8519287109375
2.2437499,5.427655220031738,-7.383718013763428,0.8667010068893433,-196.1822509765625,-3.265380859375,-210.75439453125
2.2462499,5.7556610107421875,-7.532158374786377,0.9193734526634216,-193.511962890625,-0.9002685546875,-209.075927734375
2.2487499,6.1052141189575195,-7.704541206359863,0.9840168952941895,-190.8416748046875,3.7841796875,-207.5653076171875
2.2512499,6.390124320983887,-7.862558364868164,0.9983820915222168,-185.394287109375,4.180908203125,-204.9560546875
2.2537499,6.512228488922119,-7.994239330291748,0.9481038451194763,-180.6182861328125,5.0811767578125,-201.4312744140625
2.2562499,6.5265936851501465,-8.092401504516602,0.9457096457481384,-175.3692626953125,7.01904296875,-197.32666015625
2.2587498999999998,6.430825710296631,-8.17380428314209,1.0007762908935547,-169.5404052734375,8.48388671875,-192.626953125
2.2612499,6.251260757446289,-8.267178535461426,1.1013327836990356,-164.0777587890625,10.7421875,-187.7288818359375
2.2637499,6.045359134674072,-8.377311706542969,1.2545616626739502,-158.0657958984375,12.725830078125,-182.647705078125
2.2662499,5.827486991882324,-8.497021675109863,1.4269442558288574,-151.6876220703125,13.3819580078125,-177.0782470703125
2.2687499,5.643133640289307,-8.614337921142578,1.6208745241165161,-145.20263671875,14.404296875,-171.81396484375
2.2712499,5.5114521980285645,-8.71489429473877,1.8076223134994507,-139.2364501953125,15.5792236328125,-167.0074462890625
2.2737499,5.449203014373779,-8.779537200927734,2.0183119773864746,-133.6517333984375,15.6707763671875,-161.9415283203125
2.2762499,5.420472621917725,-8.791508674621582,2.164358377456665,-128.60107421875,16.0675048828125,-157.0587158203125
2.2787498999999998,5.427655220031738,-8.75080680847168,2.296039342880249,-123.71826171875,16.4031982421875,-152.496337890625
2.2812499,5.432443618774414,-8.65982723236084,2.4013843536376953,-118.011474609375,16.448974609375,-147.979736328125
2.2837499,5.427655220031738,-8.528146743774414,2.5115175247192383,-112.97607421875,16.998291015625,-143.798828125
2.2862499,5.396530628204346,-8.336610794067383,2.626439332962036,-107.97119140625,17.1966552734375,-139.83154296875
2.2887499,5.353435039520264,-8.106766700744629,2.7222073078155518,-103.4088134765625,17.1966552734375,-136.444091796875
2.2912499,5.298368453979492,-7.833827972412109,2.7557260990142822,-98.4039306640625,17.4407958984375,-132.7972412109375
2.2937499,5.2672438621521,-7.544129371643066,2.734178304672241,-93.1854248046875,17.4713134765625,-129.913330078125
2.2962499,5.250484466552734,-7.261613845825195,2.6384103298187256,-88.4246826171875,17.578125,-126.7547607421875
2.2987499,5.257667064666748,-7.010222434997559,2.499546527862549,-84.04541015625,17.822265625,-124.3133544921875
2.3012499,5.2672438621521,-6.799532890319824,2.3511061668395996,-78.460693359375,18.12744140625,-121.917724609375
2.3037499,5.303156852722168,-6.643909931182861,2.209848165512085,-73.7457275390625,18.0511474609375,-119.3389892578125
2.3062499,5.348646640777588,-6.521805286407471,2.0877439975738525,-70.098876953125,17.9443359375,-116.4398193359375
2.3087499,5.39174222946167,-6.402095317840576,1.9823989868164062,-66.558837890625,17.608642578125,-113.677978515625
2.3112499,5.47075080871582,-6.282385349273682,1.886630892753601,-64.4378662109375,16.9830322265625,-111.4654541015625
2.3137499,5.501875400543213,-6.143521785736084,1.7956513166427612,-62.713623046875,17.2271728515625,-109.1461181640625
2.3162499,5.525817394256592,-6.016628742218018,1.6950948238372803,-60.638427734375,17.913818359375,-107.36083984375
2.3187499,5.501875400543213,-5.916072368621826,1.6160861253738403,-58.990478515625,17.9901123046875,-104.766845703125
2.3212498999999998,5.434837818145752,-5.837063789367676,1.5394717454910278,-57.0831298828125,17.6239013671875,-102.23388671875
2.3237499,5.322310447692871,-5.767632007598877,1.4676456451416016,-55.938720703125,17.2576904296875,-100.2044677734375
2.3262499,5.202600479125977,-5.669469833374023,1.400607943534851,-55.0689697265625,16.66259765625,-98.3123779296875
2.3287499,5.1116204261779785,-5.509057998657227,1.3335703611373901,-54.412841796875,15.19775390625,-96.5728759765625
2.3312499,5.080495834350586,-5.298368453979492,1.2449848651885986,-53.64990234375,13.5498046875,-95.123291015625
2.3337499,5.142745018005371,-5.032611846923828,1.1492167711257935,-53.7872314453125,13.031005859375,-94.4061279296875
2.3362499,5.272032260894775,-4.747702121734619,1.0773907899856567,-54.168701171875,12.7105712890625,-93.719482421875
2.3387499,5.415684223175049,-4.4723687171936035,1.01753568649292,-54.901123046875,12.7105712890625,-93.1549072265625
2.3412498999999998,5.5760955810546875,-4.240131378173828,1.0199298858642578,-55.5267333984375,12.6495361328125,-92.254638671875
2.3437499,5.717353820800781,-4.060565948486328,1.091755986213684,-55.5572509765625,12.1307373046875,-91.094970703125
2.3462499,5.846640586853027,-3.957615375518799,1.2186486721038818,-56.0760498046875,11.5966796875,-90.576171875
2.3487499,5.96874475479126,-3.9217023849487305,1.3838485479354858,-57.2662353515625,11.4288330078125,-91.1102294921875
2.3512499,6.076483726501465,-3.9384617805480957,1.5418659448623657,-58.0291748046875,10.6201171875,-90.850830078125
2.3537499,6.157886981964111,-3.976768970489502,1.659181833267212,-59.02099609375,9.5977783203125,-89.9505615234375
2.3562499,6.212953567504883,-4.005499362945557,1.7286136150360107,-60.72998046875,9.1094970703125,-89.599609375
2.3587499,6.246472358703613,-4.003105163574219,1.7477672100067139,-63.323974609375,8.36181640625,-89.508056640625
2.3612499,6.248866558074951,-3.9432501792907715,1.7381904125213623,-66.070556640625,7.8582763671875,-88.68408203125
2.3637499,6.251260757446289,-3.8522706031799316,1.721431016921997,-68.2525634765625,6.988525390625,-88.0279541015625
2.3662499,6.260837554931641,-3.732560396194458,1.702277421951294,-70.6787109375,5.6610107421875,-87.493896484375
2.3687499,6.303933143615723,-3.6343982219696045,1.7046716213226318,-73.394775390625,4.791259765625,-87.2039794921875
2.3712499,6.366182327270508,-3.552995204925537,1.7046716213226318,-75.1190185546875,4.5623779296875,-86.6546630859375
2.3737499,6.445190906524658,-3.5170822143554688,1.6974890232086182,-76.3092041015625,4.241943359375,-86.1358642578125
2.3762499,6.531382083892822,-3.531447410583496,1.678335428237915,-78.1097412109375,4.0283203125,-85.75439453125
2.3787499,6.598419666290283,-3.5865142345428467,1.6352397203445435,-80.047607421875,3.9215087890625,-84.53369140625
2.3812499,6.677428722381592,-3.6846764087677,1.5873557329177856,-81.1309814453125,3.35693359375,-83.55712890625
2.3837498999999998,6.744466304779053,-3.804386615753174,1.5203180313110352,-82.0770263671875,2.6092529296875,-82.3974609375
2.3862499,6.809109687805176,-3.9240965843200684,1.4628572463989258,-83.5418701171875,2.7618408203125,-81.23779296875
2.3887499,6.845022678375244,-4.027047157287598,1.3910311460494995,-84.6405029296875,2.7008056640625,-79.7882080078125
2.3912499,6.864176273345947,-4.106055736541748,1.314416766166687,-85.2203369140625,1.678466796875,-78.30810546875
2.3937499,6.868964672088623,-4.144362926483154,1.2258312702178955,-85.26611328125,0.5035400390625,-76.84326171875
2.3962499,6.89530086517334,-4.141968727111816,1.1540051698684692,-86.2274169921875,-0.3509521484375,-75.6378173828125
2.3987499,6.926425457000732,-4.108449935913086,1.0893617868423462,-87.3565673828125,-0.8544921875,-74.615478515625
2.4012499,6.983886241912842,-4.048594951629639,1.0678139925003052,-88.043212890625,-1.5106201171875,-73.9593505859375
2.4037498999999998,7.029376029968262,-4.0078935623168945,1.0845733880996704,-88.2110595703125,-2.3040771484375,-73.1964111328125
2.4062499,7.070077419281006,-3.950432777404785,1.1348515748977661,-89.1265869140625,-3.0364990234375,-72.662353515625
2.4087499,7.086836814880371,-3.9264907836914062,1.2114660739898682,-90.240478515625,-3.570556640625,-72.479248046875
2.4112499,7.079654216766357,-3.88818359375,1.290474772453308,-89.9658203125,-4.0740966796875,-72.1588134765625
2.4137499,7.062894821166992,-3.869029998779297,1.3742717504501343,-89.2181396484375,-4.486083984375,-71.9757080078125
2.4162499,7.046135425567627,-3.8738183975219727,1.4508862495422363,-88.714599609375,-4.7149658203125,-71.8231201171875
2.4187499,7.038952827453613,-3.907337188720703,1.5131354331970215,-87.7532958984375,-4.8675537109375,-71.8231201171875
2.4212499,7.053318023681641,-3.974374771118164,1.5322890281677246,-86.85302734375,-5.4473876953125,-71.6094970703125
2.4237499,7.094019412994385,-4.07014274597168,1.4939818382263184,-84.9761962890625,-5.828857421875,-71.136474609375
2.4262499,7.15387487411499,-4.168305397033691,1.400607943534851,-82.8857421875,-5.5084228515625,-70.281982421875
2.4287499,7.196970462799072,-4.271255970001221,1.256955862045288,-81.4056396484375,-5.035400390625,-69.1680908203125
2.4312499,7.247248649597168,-4.400542736053467,1.0965443849563599,-79.8187255859375,-5.584716796875,-68.084716796875
2.4337499,7.2783732414245605,-4.546588897705078,0.9600749015808105,-77.392578125,-6.4697265625,-66.83349609375
2.4362499,7.285555839538574,-4.683058738708496,0.8259995579719543,-75.25634765625,-6.866455078125,-64.788818359375
2.4387499,7.319074630737305,-4.8267107009887695,0.7709329724311829,-73.9288330078125,-6.866455078125,-62.835693359375
2.4412499,7.319074630737305,-4.934449672698975,0.727837324142456,-72.509765625,-7.3394775390625,-60.72998046875
2.4437499,7.326257228851318,-5.023035049438477,0.7589619159698486,-69.6868896484375,-8.1329345703125,-58.7310791015625
2.4462498999999998,7.230489253997803,-5.123591423034668,0.7541735172271729,-67.0166015625,-7.965087890625,-56.6864013671875
2.4487499,7.082048416137695,-5.212177276611328,0.7972691655158997,-65.2618408203125,-6.927490234375,-54.9163818359375
2.4512499,6.89530086517334,-5.295974254608154,0.849941611289978,-63.4307861328125,-6.0577392578125,-51.81884765625
2.4537499,6.763619899749756,-5.348646640777588,0.9696516990661621,-59.4024658203125,-9.4757080078125,-48.828125
2.4562499,6.7923502922058105,-5.360617637634277,1.1204863786697388,-57.2662353515625,-10.31494140625,-47.4090576171875
2.4587499,6.983886241912842,-5.339069843292236,1.2713210582733154,-55.633544921875,-9.1094970703125,-47.088623046875
2.4612499,7.283161640167236,-5.298368453979492,1.335964560508728,-53.0853271484375,-8.72802734375,-46.4019775390625
2.4637499,7.575253963470459,-5.264849662780762,1.3407529592514038,-49.3316650390625,-8.7127685546875,-45.379638671875
2.4662498999999998,7.7883381843566895,-5.233725070953369,1.2737152576446533,-46.1273193359375,-8.453369140625,-44.7235107421875
2.4687499,7.85537576675415,-5.216965675354004,1.161187767982483,-45.501708984375,-8.48388671875,-43.76220703125
2.4712499,7.807491779327393,-5.197812080383301,1.0271124839782715,-43.6859130859375,-9.1400146484375,-42.6177978515625
2.4737499,7.659051418304443,-5.161899089813232,0.8738836050033569,-40.6341552734375,-10.3607177734375,-41.2139892578125
2.4762499,7.486668586730957,-5.161899089813232,0.6823474764823914,-38.3758544921875,-10.9710693359375,-39.825439453125
2.4787499,7.343016624450684,-5.135562419891357,0.5123591423034668,-35.675048828125,-11.383056640625,-38.6505126953125
2.4812499,7.237671852111816,-5.135562419891357,0.38067805767059326,-33.0657958984375,-10.009765625,-36.7584228515625
2.4837499,7.15387487411499,-5.149928092956543,0.2585737705230713,-31.4178466796875,-8.48388671875,-35.2325439453125
2.4862499,7.082048416137695,-5.1810526847839355,0.22026655077934265,-29.60205078125,-7.9803466796875,-33.9508056640625
2.4887499,7.048529624938965,-5.245696067810059,0.17717093229293823,-26.6571044921875,-9.94873046875,-32.8369140625
2.4912499,7.06528902053833,-5.319916248321533,0.17477671802043915,-23.834228515625,-11.5966796875,-31.2957763671875
2.4937499,7.182605266571045,-5.3582234382629395,0.15562310814857483,-21.3470458984375,-10.8795166015625,-30.6396484375
2.4962499,7.311892032623291,-5.3582234382629395,0.10534487664699554,-19.2718505859375,-10.284423828125,-29.47998046875
2.4987499,7.469909191131592,-5.307945251464844,0.05027823522686958,-16.7236328125,-10.498046875,-28.411865234375
2.5012499,7.565677165985107,-5.219359874725342,-0.035913024097681046,-14.34326171875,-10.8184814453125,-27.6031494140625
2.5037499,7.623138427734375,-5.1116204261779785,-0.11013327538967133,-12.8021240234375,-10.7269287109375,-25.9857177734375
2.5062499,7.632715225219727,-4.994304656982422,-0.1628057211637497,-10.894775390625,-10.467529296875,-24.35302734375
2.5087498999999998,7.587224960327148,-4.900930881500244,-0.17956513166427612,-9.2010498046875,-9.7503662109375,-22.7203369140625
2.5112499,7.515398979187012,-4.862623691558838,-0.1604115068912506,-7.5531005859375,-9.735107421875,-21.0723876953125
2.5137499,7.443572998046875,-4.891354084014893,-0.10055647045373917,-6.134033203125,-10.31494140625,-19.22607421875
2.5162499,7.402871608734131,-4.970362663269043,-0.026336219161748886,-4.669189453125,-10.528564453125,-17.6849365234375
2.5187499,7.417236804962158,-5.04218864440918,0.043095629662275314,-3.2806396484375,-10.6048583984375,-16.3726806640625
2.5212499,7.481880187988281,-5.073313236236572,0.08619125932455063,-2.38037109375,-10.2996826171875,-14.9383544921875
2.5237499,7.587224960327148,-5.04218864440918,0.090979665517807,-1.15966796875,-10.4522705078125,-13.1988525390625
2.5262499,7.69735860824585,-4.965574264526367,0.0454898327589035,-0.4119873046875,-10.0860595703125,-11.71875
2.5287498999999998,7.8098859786987305,-4.879383087158203,-0.031124621629714966,-0.030517578125,-9.246826171875,-10.6048583984375
2.5312499,7.884106159210205,-4.81473970413208,-0.1412578970193863,0.7781982421875,-8.6822509765625,-8.9874267578125
