# Time (seconds),Accel_X,Accel_Y,Accel_Z,Gyro_X,Gyro_Y,Gyro_Z
0.0099999,9.136273384094238,-3.5051112174987793,1.5610195398330688,32.77587890625,-0.8087158203125,20.32470703125
0.029999900000000003,9.418789863586426,-3.3279404640197754,1.8531121015548706,28.80859375,-4.21142578125,17.7459716796875
0.0499999,9.610325813293457,-3.134010076522827,2.1380221843719482,18.7225341796875,-6.04248046875,11.4288330078125
0.0699999,9.684545516967773,-2.980781078338623,2.4181437492370605,5.1422119140625,-6.9732666015625,3.021240234375
0.08999990000000001,9.653421401977539,-2.9257144927978516,2.7006595134735107,-4.730224609375,-7.354736328125,-5.9356689453125
0.10999990000000001,9.53849983215332,-2.9520506858825684,3.002328872680664,-5.92041015625,-5.6610107421875,-11.71875
0.1299999,9.366117477416992,-3.0526070594787598,3.3063924312591553,1.8463134765625,-2.0599365234375,-12.939453125
0.14999990000000002,9.155426979064941,-3.162740468978882,3.5889084339141846,13.7481689453125,0.0457763671875,-10.101318359375
0.1699999,8.932766914367676,-3.2178070545196533,3.7684733867645264,21.484375,-0.0457763671875,-4.913330078125
0.1899999,8.736441612243652,-3.203441858291626,3.8331170082092285,19.0887451171875,0.2899169921875,-1.251220703125
0.20999990000000002,8.5903959274292,-3.1435868740081787,3.758896589279175,10.284423828125,1.5869140625,0.030517578125
0.2299999,8.528146743774414,-3.0621838569641113,3.6104562282562256,2.777099609375,1.190185546875,1.251220703125
0.2499999,8.554482460021973,-3.0190882682800293,3.4093432426452637,-0.9613037109375,-0.579833984375,2.3040771484375
0.2699999,8.65743350982666,-3.0119056701660156,3.2106244564056396,-2.86865234375,-2.685546875,1.0528564453125
0.28999990000000003,8.832210540771484,-3.0382418632507324,3.0573954582214355,-3.1890869140625,-3.7689208984375,-3.41796875
0.3099999,9.050082206726074,-3.093308687210083,2.9951462745666504,-1.068115234375,-3.1890869140625,-9.521484375
0.3299999,9.263166427612305,-3.1890766620635986,3.0095114707946777,1.03759765625,0.9918212890625,-14.404296875
0.34999990000000003,9.404424667358398,-3.28963303565979,3.047818660736084,2.685546875,6.2255859375,-14.5721435546875
0.3699999,9.454702377319336,-3.3518824577331543,3.0119056701660156,5.9356689453125,7.354736328125,-10.8642578125
0.3899999,9.41400146484375,-3.3446998596191406,2.8634653091430664,10.9405517578125,2.5787353515625,-8.4381103515625
0.40999990000000003,9.32541561126709,-3.246537446975708,2.5953147411346436,13.12255859375,-3.753662109375,-6.011962890625
0.4299999,9.220070838928223,-3.1052796840667725,2.293645143508911,9.3841552734375,-7.720947265625,-2.9754638671875
0.4499999,9.121908187866211,-2.9688100814819336,2.0446481704711914,0.67138671875,-9.246826171875,-1.1749267578125
0.4699999,9.002198219299316,-2.911349296569824,1.9129672050476074,-7.476806640625,-8.026123046875,-1.8463134765625
0.4899999,8.846575736999512,-2.9472622871398926,1.8938134908676147,-11.5509033203125,-5.0811767578125,-2.7313232421875
0.5099999,8.671798706054688,-3.0813376903533936,1.965639591217041,-12.1002197265625,-2.3040771484375,-2.5787353515625
0.5299999,8.523358345031738,-3.2848446369171143,2.0661959648132324,-9.9029541015625,0.244140625,-2.4871826171875
0.5499999,8.44195556640625,-3.5003228187561035,2.1475989818573,-3.9520263671875,1.739501953125,-1.617431640625
0.5699999,8.463502883911133,-3.667917013168335,2.190694570541382,3.3111572265625,1.4801025390625,-0.152587890625
0.5899998999999999,8.580819129943848,-3.7469255924224854,2.1763293743133545,8.6212158203125,-0.06103515625,0.1678466796875
0.6099998999999999,8.755595207214355,-3.732560396194458,2.126051187515259,9.002685546875,-1.6937255859375,-0.6866455078125
0.6299999,8.942343711853027,-3.648763418197632,2.075772762298584,4.5928955078125,-2.8228759765625,-2.13623046875
0.6499999,9.100360870361328,-3.5482068061828613,2.0398597717285156,-0.67138671875,-2.9296875,-3.692626953125
0.6699999,9.198522567749023,-3.466804027557373,2.0422539710998535,-4.08935546875,-2.44140625,-5.0811767578125
0.6899999,9.220070838928223,-3.428496837615967,2.0853497982025146,-4.3487548828125,-2.3651123046875,-5.6304931640625
0.7099999,9.172186851501465,-3.421314239501953,2.142810583114624,-1.3427734375,-3.021240234375,-5.18798828125
0.7299998999999999,9.0859956741333,-3.406949043273926,2.2194249629974365,4.0740966796875,-4.364013671875,-4.1046142578125
0.7499998999999999,8.995016098022461,-3.380612850189209,2.276885747909546,8.4381103515625,-5.5389404296875,-3.4027099609375
0.7699999,8.93037223815918,-3.3063924312591553,2.315192937850952,9.1552734375,-6.378173828125,-2.4871826171875
0.7899999,8.899248123168945,-3.203441858291626,2.3032219409942627,6.04248046875,-6.927490234375,-1.0528564453125
0.8099999,8.89685344696045,-3.098097085952759,2.2361843585968018,1.0986328125,-7.171630859375,0.1373291015625
0.8299999,8.916007041931152,-3.0142998695373535,2.1547815799713135,-4.69970703125,-7.1868896484375,1.312255859375
0.8499998999999999,8.937555313110352,-2.9927520751953125,2.054224967956543,-7.2021484375,-6.3018798828125,1.3580322265625
0.8699998999999999,8.96149730682373,-3.028665065765381,2.0015525817871094,-4.5928955078125,-5.8746337890625,1.861572265625
0.8899999,8.973467826843262,-3.1028854846954346,1.9704279899597168,-1.007080078125,-5.2490234375,2.471923828125
0.9099999,8.96389102935791,-3.2082302570343018,1.9608511924743652,1.8157958984375,-4.302978515625,0.7171630859375
0.9299999,8.937555313110352,-3.292027235031128,1.9728221893310547,3.8604736328125,-3.570556640625,-0.79345703125
0.9499999,8.916007041931152,-3.335123062133789,1.9919757843017578,4.302978515625,-2.0751953125,-1.2054443359375
0.9699998999999999,8.911218643188477,-3.335123062133789,2.011129379272461,3.936767578125,0.152587890625,-1.8463134765625
0.9899998999999999,8.939949035644531,-3.272873640060425,2.049436569213867,3.631591796875,1.4801025390625,-1.068115234375
1.0099999,8.990227699279785,-3.1866824626922607,2.0901381969451904,3.35693359375,2.471923828125,0
1.0299999,9.035717010498047,-3.1076738834381104,2.1356279850006104,4.0130615234375,3.5400390625,0.8392333984375
1.0499999,9.066842079162598,-3.045424461364746,2.1930887699127197,5.31005859375,3.204345703125,2.3345947265625
1.0699999,9.081207275390625,-3.023876667022705,2.2601263523101807,5.523681640625,1.8157958984375,3.3111572265625
1.0899999,9.0859956741333,-3.028665065765381,2.3247697353363037,4.08935546875,0.3814697265625,3.692626953125
1.1099999,9.093177795410156,-3.047818660736084,2.382230758666992,2.8076171875,-1.3580322265625,4.2877197265625
1.1299999,9.10993766784668,-3.069366693496704,2.4133553504943848,1.0833740234375,-3.4332275390625,4.1351318359375
1.1499999,9.131484985351562,-3.093308687210083,2.4013843536376953,-1.6632080078125,-4.9591064453125,2.7923583984375
1.1699998999999999,9.148244857788086,-3.1292216777801514,2.3558945655822754,-4.180908203125,-5.7525634765625,0.8544921875
1.1899998999999999,9.157821655273438,-3.181894063949585,2.2912509441375732,-4.669189453125,-5.2947998046875,-0.67138671875
1.2099999,9.162610054016113,-3.248931646347046,2.2361843585968018,-2.74658203125,-4.1046142578125,-1.52587890625
1.2299999,9.150638580322266,-3.3231520652770996,2.1930887699127197,0.3662109375,-3.1585693359375,-2.38037109375
1.2499999,9.121908187866211,-3.378218650817871,2.1715409755706787,3.2501220703125,-3.0364990234375,-2.6702880859375
1.2699999,9.090784072875977,-3.3925838470458984,2.161964178085327,4.2266845703125,-3.2806396484375,-2.655029296875
1.2899999,9.062053680419922,-3.3662476539611816,2.1523873805999756,3.265380859375,-3.3111572265625,-3.875732421875
1.3099999,9.050082206726074,-3.3039982318878174,2.1523873805999756,1.007080078125,-3.4637451171875,-4.9896240234375
1.3299999,9.050082206726074,-3.2321722507476807,2.1475989818573,-0.885009765625,-4.2724609375,-4.82177734375
1.3499999,9.059659004211426,-3.1747114658355713,2.1356279850006104,-1.129150390625,-5.3558349609375,-4.5928955078125
1.3699999,9.074024200439453,-3.136404275894165,2.1284453868865967,-0.7781982421875,-6.378173828125,-4.425048828125
1.3899999,9.095572471618652,-3.112462282180786,2.1164743900299072,-0.823974609375,-6.561279296875,-4.3487548828125
1.4099999,9.126696586608887,-3.098097085952759,2.1092917919158936,-0.244140625,-6.4239501953125,-4.8980712890625
1.4299998999999999,9.157821655273438,-3.066972494125366,2.0925323963165283,0.762939453125,-6.6680908203125,-5.340576171875
1.4499999,9.184157371520996,-3.0334534645080566,2.0638017654418945,-0.30517578125,-6.988525390625,-5.92041015625
1.4699999,9.20091724395752,-2.9975404739379883,2.0207061767578125,-2.288818359375,-7.01904296875,-6.8206787109375
1.4899999,9.2033109664917,-2.9688100814819336,1.9776105880737305,-2.50244140625,-6.53076171875,-6.927490234375
1.5099999,9.20091724395752,-2.9472622871398926,1.946485996246338,-0.9002685546875,-6.011962890625,-6.317138671875
1.5299999,9.184157371520996,-2.9328970909118652,1.9105730056762695,1.0986328125,-5.3863525390625,-6.2255859375
1.5499999,9.150638580322266,-2.896984100341797,1.8770540952682495,1.64794921875,-5.2032470703125,-5.889892578125
1.5699999,9.100360870361328,-2.846705913543701,1.8315643072128296,-0.18310546875,-4.94384765625,-5.645751953125
1.5899999,9.038111686706543,-2.7916390895843506,1.7764976024627686,-1.0986328125,-3.7994384765625,-6.0272216796875
1.6099999,8.987833023071289,-2.736572504043579,1.7166426181793213,-0.030517578125,-2.9144287109375,-4.69970703125
1.6299999,8.96149730682373,-2.6791117191314697,1.659181833267212,-0.579833984375,-2.3651123046875,-1.739501953125
1.6499999,8.96389102935791,-2.63362193107605,1.5969325304031372,-2.197265625,-1.129150390625,0.3662109375
1.6699999,8.995016098022461,-2.5905263423919678,1.5394717454910278,-2.899169921875,0.3509521484375,2.777099609375
1.6899998999999999,9.042900085449219,-2.561795711517334,1.4987702369689941,-3.41796875,1.8157958984375,5.2337646484375
1.7099999,9.090784072875977,-2.604891538619995,1.4963760375976562,-2.838134765625,5.79833984375,5.92041015625
1.7299999,9.066842079162598,-2.7006595134735107,1.5322890281677246,0.9765625,7.32421875,5.4779052734375
1.7499999,9.033323287963867,-2.827552318572998,1.6065093278884888,6.04248046875,8.514404296875,5.9661865234375
1.7699999,8.995016098022461,-2.956839084625244,1.6974890232086182,10.68115234375,10.894775390625,7.8125
1.7899999,8.98543930053711,-3.047818660736084,1.7908629179000854,12.420654296875,13.336181640625,9.1705322265625
1.8099999,8.987833023071289,-3.066972494125366,1.8746598958969116,9.6282958984375,13.5650634765625,9.8114013671875
1.8299999,9.009381294250488,-3.004723072052002,1.9249382019042969,2.9296875,12.054443359375,9.6282958984375
1.8499999,9.033323287963867,-2.911349296569824,1.9632453918457031,-7.3394775390625,10.711669921875,8.4228515625
1.8699999,9.07641887664795,-2.8586769104003906,2.032677173614502,-15.3961181640625,10.1165771484375,6.591796875
1.8899999,9.131484985351562,-2.8826189041137695,2.142810583114624,-15.44189453125,9.70458984375,6.5765380859375
1.9099999,9.186552047729492,-2.9879636764526367,2.274491548538208,-10.25390625,9.4451904296875,8.1634521484375
1.9299998999999999,9.227252960205078,-3.1483752727508545,2.389413356781006,-4.2572021484375,8.880615234375,7.9498291015625
1.9499999,9.23682975769043,-3.2800562381744385,2.451662540435791,-0.0457763671875,7.171630859375,6.9122314453125
1.9699999,9.220070838928223,-3.3686418533325195,2.456450939178467,0.30517578125,5.8135986328125,5.035400390625
1.9899999,9.17697525024414,-3.4189200401306152,2.4229321479797363,-1.251220703125,4.8980712890625,2.6092529296875
2.0099999,9.133879661560059,-3.4332852363586426,2.38462495803833,-2.777099609375,4.241943359375,1.9989013671875
2.0299999,9.095572471618652,-3.4404678344726562,2.3558945655822754,-2.99072265625,3.8909912109375,1.708984375
2.0499999,9.059659004211426,-3.442862033843994,2.3367409706115723,-1.6937255859375,3.7841796875,1.190185546875
2.0699999,9.026140213012695,-3.445256233215332,2.322375535964966,0.518798828125,3.1280517578125,1.2359619140625
2.0899999,8.999804496765137,-3.4308910369873047,2.3056161403656006,1.89208984375,2.2125244140625,1.922607421875
2.1099999,8.98543930053711,-3.40216064453125,2.300827741622925,1.0986328125,2.044677734375,2.13623046875
2.1299999,8.990227699279785,-3.375824451446533,2.3032219409942627,0.8544921875,2.6702880859375,0.91552734375
2.1499999,9.011775016784668,-3.337517261505127,2.3247697353363037,2.166748046875,3.143310546875,0.8087158203125
2.1699999,9.033323287963867,-3.3207578659057617,2.343923568725586,3.90625,3.143310546875,1.1138916015625
2.1899999,9.047688484191895,-3.31118106842041,2.3798365592956543,4.82177734375,1.8768310546875,1.373291015625
2.2099999,9.05247688293457,-3.294421434402466,2.406172752380371,5.18798828125,0.579833984375,1.2664794921875
2.2299999,9.050082206726074,-3.2800562381744385,2.434903144836426,4.0435791015625,-0.244140625,0.640869140625
2.2499999,9.042900085449219,-3.268085241317749,2.4588451385498047,1.3275146484375,-1.0986328125,0.1068115234375
2.2699999,9.026140213012695,-3.268085241317749,2.473210334777832,0.091552734375,-2.13623046875,-0.762939453125
2.2899999,9.006986618041992,-3.2776620388031006,2.473210334777832,-0.274658203125,-2.6702880859375,-1.2359619140625
2.3099999,8.990227699279785,-3.2848446369171143,2.456450939178467,-0.30517578125,-2.410888671875,-0.7781982421875
2.3299999,8.973467826843262,-3.2800562381744385,2.4181437492370605,-0.213623046875,-1.922607421875,-0.30517578125
2.3499999,8.959102630615234,-3.270479440689087,2.363077163696289,-0.2288818359375,-1.8463134765625,-0.1983642578125
2.3699999,8.949525833129883,-3.251325845718384,2.300827741622925,-0.2593994140625,-1.7852783203125,0.3662109375
2.3899999,8.937555313110352,-3.2369606494903564,2.250549554824829,-0.7171630859375,-1.1749267578125,0.9613037109375
2.4099999,8.93037223815918,-3.2393548488616943,2.2146365642547607,-1.1444091796875,-0.6866455078125,1.5106201171875
2.4299999,8.920795440673828,-3.246537446975708,2.205059766769409,-1.46484375,-0.6866455078125,2.3040771484375
2.4499999,8.908824920654297,-3.268085241317749,2.212242364883423,-1.15966796875,-0.4119873046875,2.74658203125
2.4699999,8.901641845703125,-3.308786630630493,2.233790159225464,0.54931640625,0.0457763671875,2.8228759765625
2.4899999,8.908824920654297,-3.335123062133789,2.2625205516815186,1.9683837890625,0.3662109375,3.5247802734375
2.5099999,8.927978515625,-3.3662476539611816,2.2912509441375732,2.593994140625,0.732421875,2.8533935546875
2.5299999,8.956708908081055,-3.3686418533325195,2.31758713722229,2.86865234375,0.8392333984375,2.25830078125
2.5499999,8.987833023071289,-3.3518824577331543,2.3271639347076416,3.0059814453125,0.762939453125,2.105712890625
2.5699999,9.004592895507812,-3.335123062133789,2.322375535964966,3.5400390625,0.1983642578125,1.7852783203125
2.5899999,9.014169692993164,-3.313575267791748,2.31758713722229,3.6773681640625,-0.518798828125,2.3040771484375
2.6099999,9.011775016784668,-3.3039982318878174,2.3080103397369385,2.7313232421875,-0.5645751953125,2.6702880859375
2.6299999,8.999804496765137,-3.2968156337738037,2.298433542251587,1.52587890625,-0.5340576171875,2.471923828125
2.6499999,8.990227699279785,-3.2992098331451416,2.2888567447662354,0.335693359375,-0.885009765625,2.197265625
2.6699999,8.968679428100586,-3.315969467163086,2.27209734916687,0.0457763671875,-0.8392333984375,1.5869140625
2.6899999,8.944737434387207,-3.3446998596191406,2.250549554824829,1.40380859375,-0.5035400390625,1.7242431640625
2.7099999,8.920795440673828,-3.3734302520751953,2.2242133617401123,2.9296875,-0.2899169921875,2.471923828125
2.7299999,8.901641845703125,-3.3854012489318848,2.183511972427368,2.2125244140625,0.5340576171875,3.143310546875
2.7499999,8.89445972442627,-3.378218650817871,2.1523873805999756,-0.7171630859375,1.9378662109375,3.0517578125
2.7699999,8.887276649475098,-3.3638534545898438,2.126051187515259,-2.7313232421875,3.7689208984375,3.021240234375
2.7899999,8.860940933227539,-3.3423056602478027,2.1092917919158936,-1.953125,4.8828125,4.08935546875
2.8099999,8.793902397155762,-3.335123062133789,2.078166961669922,-1.28173828125,5.37109375,5.157470703125
2.8299999,8.674192428588867,-3.3255462646484375,2.0183119773864746,-3.631591796875,6.8817138671875,6.8359375
2.8499999,8.489839553833008,-3.3063924312591553,1.9177556037902832,-7.537841796875,9.58251953125,10.2386474609375
2.8699999,8.224082946777344,-3.2561142444610596,1.7956513166427612,-10.68115234375,13.24462890625,16.448974609375
2.8899999,7.848193168640137,-3.155557870864868,1.656787633895874,-12.3748779296875,17.8680419921875,26.580810546875
2.9099999,7.295132637023926,-3.047818660736084,1.4939818382263184,-12.7105712890625,23.193359375,42.327880859375
2.9299999,6.555324077606201,-2.96162748336792,1.2617442607879639,-10.68115234375,27.008056640625,67.5811767578125
2.9499999,5.583278179168701,-2.9472622871398926,0.9648633003234863,-10.772705078125,29.205322265625,98.6785888671875
2.9699999,4.414907932281494,-3.1028854846954346,0.4884171485900879,-22.6287841796875,32.4249267578125,126.190185546875
2.9899999,3.2609026432037354,-3.3686418533325195,-0.1604115068912506,-47.2259521484375,34.271240234375,150.6195068359375
3.0099999,2.274491548538208,-3.8067808151245117,-1.0342950820922852,-90.2099609375,39.12353515625,172.454833984375
3.0299999,1.647210717201233,-4.474762916564941,-2.1092917919158936,-150.4669189453125,51.9561767578125,193.7408447265625
3.0499999,1.436521053314209,-5.616796970367432,-3.3207578659057617,-205.99365234375,66.802978515625,218.8568115234375
3.0699999,1.6352397203445435,-7.424419403076172,-4.637568473815918,-228.8665771484375,77.1484375,249.4354248046875
3.0899999,2.2673089504241943,-10.000580787658691,-5.947196960449219,-228.5919189453125,83.404541015625,281.005859375
3.1099999,3.4356794357299805,-13.299790382385254,-7.103596210479736,-220.1385498046875,88.043212890625,295.654296875
3.1299999,5.279214859008789,-16.919822692871094,-7.860164165496826,-220.88623046875,93.1243896484375,285.5987548828125
3.1499999,7.881711959838867,-20.592529296875,-7.999027729034424,-264.2974853515625,104.5684814453125,248.260498046875
3.1699999,11.0300874710083,-24.17664909362793,-7.182605266571045,-357.1929931640625,119.6136474609375,186.9049072265625
3.1899999,14.49210262298584,-27.655424118041992,-5.185841083526611,-445.159912109375,131.500244140625,109.0850830078125
3.2099999,18.04030990600586,-30.722396850585938,-1.656787633895874,-446.1822509765625,116.9586181640625,16.845703125
3.2299999,21.588516235351562,-32.970550537109375,3.689464807510376,-349.42626953125,42.8314208984375,-97.5494384765625
3.2499999,24.514230728149414,-33.88274383544922,10.879252433776855,-243.896484375,-73.79150390625,-232.2540283203125
3.2699999,26.089616775512695,-33.387142181396484,18.854337692260742,-209.3353271484375,-183.9447021484375,-373.0010986328125
3.2899999,25.129541397094727,-32.24989700317383,26.285940170288086,-195.6024169921875,-283.0810546875,-500
3.3099999,20.71463394165039,-31.246726989746094,31.27545738220215,-116.6839599609375,-373.870849609375,-500
3.3299999000000002,12.799402236938477,-30.6098690032959,32.240318298339844,-51.7425537109375,-436.2640380859375,-500
3.3499999,1.4269442558288574,-30.32974624633789,28.8453426361084,-97.412109375,-443.756103515625,-500
3.3699999,-12.356474876403809,-28.30425262451172,21.830331802368164,-178.375244140625,-350.5401611328125,-488.2965087890625
3.3899999,-26.690561294555664,-23.867795944213867,12.813767433166504,-169.7235107421875,-149.627685546875,-337.1124267578125
3.4099999,-38.09893035888672,-17.420211791992188,3.3877954483032227,-44.2657470703125,79.9102783203125,-239.7918701171875
3.4299999,-44.752418518066406,-9.720458984375,-5.097255229949951,150.848388671875,204.2236328125,-99.7314453125
3.4499999,-44.623130798339844,-2.7916390895843506,-11.939884185791016,256.1798095703125,207.6568603515625,40.618896484375
3.4699999,-38.687904357910156,1.7717092037200928,-16.742652893066406,210.0067138671875,162.9486083984375,97.47314453125
3.4899999,-28.900407791137695,3.7181951999664307,-19.062633514404297,93.26171875,117.2027587890625,133.026123046875
3.5099999,-17.470489501953125,2.741360902786255,-18.78730010986328,15.716552734375,100.09765625,160.5072021484375
3.5299999,-6.528987884521484,-0.6703764796257019,-16.350004196166992,35.888671875,100.8453369140625,161.43798828125
3.5499999,2.2146365642547607,-5.446808815002441,-12.650961875915527,119.1253662109375,107.8643798828125,146.1944580078125
3.5699999,8.109161376953125,-10.002974510192871,-8.89445972442627,190.1702880859375,122.5433349609375,113.800048828125
3.5899999,11.15697956085205,-13.03403377532959,-5.851428985595703,214.4775390625,139.495849609375,61.1572265625
3.6099999,12.131420135498047,-13.907917976379395,-3.974374771118164,195.9228515625,155.76171875,4.608154296875
3.6299999,11.712434768676758,-12.871228218078613,-3.157952070236206,165.58837890625,163.8946533203125,-33.0352783203125
3.6499999,10.503362655639648,-10.72602367401123,-3.0885202884674072,151.79443359375,156.524658203125,-42.3126220703125
3.6699999,8.927978515625,-8.24084186553955,-3.3255462646484375,146.7742919921875,144.7296142578125,-37.9486083984375
3.6899999,7.42681360244751,-5.999869346618652,-3.4380736351013184,138.12255859375,142.974853515625,-43.27392578125
3.7099999,6.3733649253845215,-4.309563159942627,-3.251325845718384,134.2620849609375,150.81787109375,-58.380126953125
3.7299999,5.774814605712891,-3.335123062133789,-2.6575639247894287,143.0206298828125,155.3955078125,-67.5811767578125
3.7499999,5.623979568481445,-3.0621838569641113,-1.7956513166427612,150.93994140625,153.0609130859375,-64.910888671875
3.7699999,5.7341132164001465,-3.315969467163086,-0.9193734526634216,157.40966796875,146.697998046875,-63.5528564453125
3.7899999,6.007051944732666,-3.7229835987091064,-0.06224924325942993,159.0728759765625,137.786865234375,-70.770263671875
3.8099999,6.471527099609375,-4.098873138427734,0.5985504388809204,147.247314453125,130.7220458984375,-80.74951171875
3.8299999000000002,7.070077419281006,-4.32871675491333,1.0079588890075684,130.7373046875,121.8719482421875,-82.5347900390625
3.8499999,7.927201747894287,-4.390965938568115,1.115697979927063,116.180419921875,107.421875,-77.8656005859375
3.8699999,8.96389102935791,-4.333505153656006,1.039083480834961,99.30419921875,88.531494140625,-79.2388916015625
3.8899999,10.158597946166992,-4.223371982574463,0.9002198576927185,81.5887451171875,70.9381103515625,-84.28955078125
3.9099999,11.314997673034668,-4.1395745277404785,0.8595184087753296,72.4334716796875,58.5784912109375,-82.763671875
3.9299999,12.234370231628418,-4.213795185089111,1.0462661981582642,67.779541015625,50.0030517578125,-75.439453125
3.9499999,12.717999458312988,-4.436455726623535,1.45806884765625,65.91796875,43.5791015625,-68.084716796875
3.9699999,12.713211059570312,-4.72376012802124,1.987187385559082,66.253662109375,33.966064453125,-63.4002685546875
3.9899999,12.222399711608887,-4.963180065155029,2.6001031398773193,63.1561279296875,20.3857421875,-60.3790283203125
4.0099999,11.408370971679688,-4.98472785949707,3.1531636714935303,52.6275634765625,6.77490234375,-56.6253662109375
4.029999900000001,10.414777755737305,-4.776432514190674,3.600879430770874,37.4603271484375,-4.2724609375,-55.694580078125
4.0499999,9.445125579833984,-4.326322555541992,3.8307228088378906,20.5841064453125,-12.51220703125,-54.87060546875
4.069999900000001,8.681375503540039,-3.711012601852417,3.866635799407959,1.8768310546875,-17.4407958984375,-47.393798828125
4.0899999000000005,8.202534675598145,-3.0597896575927734,3.6607344150543213,-14.2059326171875,-18.3563232421875,-36.8804931640625
4.1099999,8.001421928405762,-2.4875755310058594,3.3231520652770996,-18.829345703125,-16.9219970703125,-28.5186767578125
4.1299999000000005,8.030152320861816,-2.0254945755004883,2.96162748336792,-11.8865966796875,-13.7481689453125,-21.8505859375
4.1499999,8.178592681884766,-1.7501614093780518,2.671929121017456,2.5634765625,-8.819580078125,-16.6015625
4.1699999000000005,8.33182144165039,-1.6208745241165161,2.451662540435791,17.8985595703125,-3.96728515625,-8.6517333984375
4.1899999,8.437167167663574,-1.6160861253738403,2.3295583724975586,23.5595703125,-1.03759765625,1.77001953125
4.209999900000001,8.487444877624512,-1.721431016921997,2.315192937850952,17.7459716796875,0.4730224609375,7.7362060546875
4.2299999,8.473079681396484,-1.920149803161621,2.3942017555236816,7.0953369140625,2.349853515625,8.8958740234375
4.249999900000001,8.44195556640625,-2.2457611560821533,2.5929205417633057,-1.8310546875,1.983642578125,7.3089599609375
4.2699999,8.465897560119629,-2.650381326675415,2.8874073028564453,-6.8511962890625,-0.79345703125,5.6304931640625
4.289999900000001,8.56645393371582,-3.112462282180786,3.181894063949585,-5.859375,-2.74658203125,3.662109375
4.3099999,8.772355079650879,-3.531447410583496,3.3854012489318848,0.9002685546875,-3.41796875,2.8228759765625
4.329999900000001,9.05487060546875,-3.7924153804779053,3.4596214294433594,6.4697265625,-4.4097900390625,4.94384765625
4.3499999,9.320627212524414,-3.8762125968933105,3.332728862762451,7.1563720703125,-6.0882568359375,7.14111328125
4.369999900000001,9.509769439697266,-3.7900211811065674,3.0813376903533936,6.866455078125,-9.0789794921875,7.5836181640625
4.3899999,9.5624418258667,-3.5913026332855225,2.7557260990142822,5.5084228515625,-12.0697021484375,8.148193359375
4.409999900000001,9.50498104095459,-3.359065055847168,2.4899697303771973,1.5106201171875,-14.09912109375,7.50732421875
4.4299999,9.339780807495117,-3.1675288677215576,2.3558945655822754,-3.3721923828125,-13.214111328125,5.859375
4.449999900000001,9.107542991638184,-3.0573954582214355,2.3487119674682617,-3.8299560546875,-9.9639892578125,5.2642822265625
4.4699999,8.848969459533691,-3.0095114707946777,2.4899697303771973,0.9002685546875,-7.6904296875,6.34765625
4.489999900000001,8.588001251220703,-3.0310592651367188,2.6839001178741455,4.241943359375,-5.5389404296875,6.9732666015625
4.5099999,8.343792915344238,-3.112462282180786,2.8586769104003906,6.2408447265625,-3.5400390625,5.9661865234375
4.529999900000001,8.166622161865234,-3.2130186557769775,2.9688100814819336,7.01904296875,-3.6468505859375,5.8441162109375
4.5499999,8.10437297821045,-3.332728862762451,3.004723072052002,5.462646484375,-4.3182373046875,5.0048828125
4.569999900000001,8.164227485656738,-3.4404678344726562,2.980781078338623,3.5552978515625,-3.2501220703125,2.4871826171875
4.5899999000000005,8.336610794067383,-3.507505416870117,2.9017724990844727,3.0364990234375,-1.556396484375,1.1444091796875
4.609999900000001,8.56645393371582,-3.536235809326172,2.827552318572998,0.2288818359375,-1.2359619140625,1.007080078125
4.6299999000000005,8.793902397155762,-3.552995204925537,2.7724854946136475,-3.0670166015625,-0.396728515625,0.5035400390625
4.6499999,8.968679428100586,-3.5745432376861572,2.7700912952423096,-3.0364990234375,1.8157958984375,0.6103515625
4.6699999000000005,9.066842079162598,-3.6080620288848877,2.806004285812378,-1.7242431640625,2.8839111328125,1.4495849609375
4.6899999,9.074024200439453,-3.6343982219696045,2.82515811920166,-1.03759765625,0.579833984375,1.2969970703125
4.709999900000001,9.02135181427002,-3.6320040225982666,2.7988216876983643,-2.99072265625,-3.7078857421875,0.8087158203125
4.7299999,8.937555313110352,-3.6080620288848877,2.7222073078155518,-5.706787109375,-6.378173828125,0.6561279296875
4.749999900000001,8.87051773071289,-3.5482068061828613,2.6384103298187256,-5.0048828125,-7.2174072265625,1.1138916015625
4.7699999,8.815450668334961,-3.471592426300049,2.583343744277954,-2.99072265625,-7.354736328125,1.678466796875
4.789999900000001,8.772355079650879,-3.3901896476745605,2.5953147411346436,-2.349853515625,-6.40869140625,0.2593994140625
4.8099999,8.729259490966797,-3.308786630630493,2.6408045291900635,-0.91552734375,-4.08935546875,-2.01416015625
4.829999900000001,8.69334602355957,-3.2393548488616943,2.7054479122161865,3.47900390625,-1.28173828125,-2.7618408203125
4.8499999,8.683769226074219,-3.1890766620635986,2.7437551021575928,6.5765380859375,-0.152587890625,-2.1514892578125
4.869999900000001,8.705317497253418,-3.162740468978882,2.738966703414917,6.378173828125,-0.213623046875,-1.0528564453125
4.8899999,8.746018409729004,-3.1651346683502197,2.6839001178741455,5.8135986328125,0.1220703125,0.3204345703125
4.909999900000001,8.813055992126465,-3.1914708614349365,2.628833532333374,4.852294921875,0.091552734375,1.1138916015625
4.9299999,8.887276649475098,-3.246537446975708,2.604891538619995,2.0904541015625,0.4425048828125,0.1373291015625
4.949999900000001,8.951920509338379,-3.308786630630493,2.63362193107605,0.9002685546875,1.2359619140625,-1.190185546875
4.9699999,8.990227699279785,-3.35667085647583,2.7054479122161865,3.0364990234375,1.03759765625,-1.3275146484375
4.989999900000001,8.999804496765137,-3.3901896476745605,2.782062292098999,4.0130615234375,-0.4730224609375,-1.5411376953125
5.0099999,8.973467826843262,-3.40216064453125,2.8562827110290527,2.288818359375,-2.166748046875,-2.3040771484375
5.029999900000001,8.925583839416504,-3.40216064453125,2.892195701599121,0.9002685546875,-2.716064453125,-2.777099609375
5.0499999,8.863334655761719,-3.3949780464172363,2.892195701599121,2.01416015625,-2.685546875,-2.99072265625
5.069999900000001,8.791508674621582,-3.3949780464172363,2.849100112915039,3.0517578125,-3.23486328125,-3.2806396484375
5.0899999000000005,8.734047889709473,-3.3949780464172363,2.765302896499634,2.0294189453125,-3.173828125,-2.9144287109375
5.109999900000001,8.698134422302246,-3.383007049560547,2.676717519760132,0.1678466796875,-0.8544921875,-2.3040771484375
5.1299999000000005,8.688557624816895,-3.3734302520751953,2.6001031398773193,-1.3427734375,3.47900390625,-3.2196044921875
5.1499999,8.698134422302246,-3.35667085647583,2.5522189140319824,-0.9002685546875,6.195068359375,-4.5166015625
5.1699999000000005,8.700529098510742,-3.3446998596191406,2.5234885215759277,-0.0152587890625,6.6070556640625,-4.2724609375
5.1899999,8.683769226074219,-3.335123062133789,2.5115175247192383,-0.4425048828125,6.3629150390625,-2.5482177734375
5.209999900000001,8.664615631103516,-3.315969467163086,2.518700122833252,-1.495361328125,6.28662109375,0.4730224609375
5.2299999,8.655038833618164,-3.2752678394317627,2.5546131134033203,-3.8909912109375,5.67626953125,3.3721923828125
5.249999900000001,8.669404029846191,-3.224989652633667,2.6384103298187256,-6.8206787109375,4.8828125,4.57763671875
5.2699999,8.707711219787598,-3.177105665206909,2.738966703414917,-8.6669921875,4.33349609375,5.06591796875
5.289999900000001,8.760383605957031,-3.1531636714935303,2.849100112915039,-7.32421875,3.6773681640625,4.852294921875
5.3099999,8.827422142028809,-3.1507694721221924,2.9544448852539062,-3.1890869140625,2.593994140625,4.119873046875
5.329999900000001,8.884882926940918,-3.1651346683502197,3.00711727142334,2.44140625,1.8768310546875,3.0059814453125
5.3499999,8.947132110595703,-3.1866824626922607,3.028665065765381,5.4931640625,1.03759765625,2.38037109375
5.369999900000001,9.006986618041992,-3.179499864578247,3.0119056701660156,3.570556640625,0.3662109375,1.953125
5.3899999,9.047688484191895,-3.179499864578247,2.978386878967285,1.2969970703125,0.0457763671875,0.152587890625
5.409999900000001,9.074024200439453,-3.177105665206909,2.940079689025879,2.655029296875,-0.579833984375,0.1220703125
5.4299999,9.078812599182129,-3.19865345954895,2.911349296569824,6.011962890625,-2.197265625,1.556396484375
5.449999900000001,9.045293807983398,-3.246537446975708,2.8850131034851074,8.056640625,-3.35693359375,2.197265625
5.4699999,8.995016098022461,-3.292027235031128,2.853888511657715,7.14111328125,-3.448486328125,1.983642578125
5.489999900000001,8.944737434387207,-3.3255462646484375,2.8419175148010254,4.058837890625,-3.3111572265625,1.3885498046875
5.5099999,8.892065048217773,-3.35667085647583,2.8419175148010254,1.708984375,-2.593994140625,0.3509521484375
5.529999900000001,8.832210540771484,-3.3901896476745605,2.8562827110290527,4.7149658203125,-1.5106201171875,0.2593994140625
5.5499999,8.78432559967041,-3.397372245788574,2.873042106628418,9.9029541015625,-1.6326904296875,1.495361328125
5.569999900000001,8.741230010986328,-3.3877954483032227,2.8778305053710938,9.246826171875,-1.6326904296875,1.739501953125
5.5899999000000005,8.705317497253418,-3.3446998596191406,2.851494312286377,3.753662109375,-0.4119873046875,1.64794921875
5.609999900000001,8.678980827331543,-3.2992098331451416,2.7916390895843506,-0.579833984375,0.6256103515625,2.410888671875
5.6299999000000005,8.65743350982666,-3.287238836288452,2.736572504043579,-3.204345703125,1.0833740234375,3.3111572265625
5.6499999,8.607154846191406,-3.3423056602478027,2.6671407222747803,-4.21142578125,2.532958984375,3.8909912109375
5.6699999000000005,8.528146743774414,-3.445256233215332,2.609679937362671,-1.3427734375,4.1961669921875,4.852294921875
5.6899999,8.415618896484375,-3.5458126068115234,2.5546131134033203,0.8087158203125,5.828857421875,6.4544677734375
5.709999900000001,8.267178535461426,-3.6128504276275635,2.497152328491211,-1.708984375,9.490966796875,6.65283203125
5.7299999,8.063671112060547,-3.620033025741577,2.4444799423217773,-7.4005126953125,15.045166015625,7.3394775390625
5.749999900000001,7.769184589385986,-3.56017804145813,2.387019157409668,-11.474609375,21.3165283203125,12.4664306640625
5.7699999,7.3238630294799805,-3.4739866256713867,2.3367409706115723,-10.589599609375,28.2745361328125,22.918701171875
5.789999900000001,6.67982292175293,-3.4117374420166016,2.27209734916687,-6.6375732421875,36.9415283203125,41.015625
5.8099999,5.8203043937683105,-3.3686418533325195,2.142810583114624,-2.62451171875,47.3785400390625,66.925048828125
5.829999900000001,4.750096321105957,-3.423708438873291,1.845929503440857,-6.866455078125,58.2427978515625,92.1783447265625
5.8499999,3.536235809326172,-3.5889084339141846,1.3096283674240112,-28.1524658203125,68.7713623046875,114.2730712890625
5.869999900000001,2.3487119674682617,-3.9408559799194336,0.4812345504760742,-69.9005126953125,80.841064453125,137.6495361328125
5.8899999,1.357512354850769,-4.548983097076416,-0.5291185975074768,-124.267578125,97.65625,163.3758544921875
5.909999900000001,0.7015010714530945,-5.5976433753967285,-1.5897499322891235,-177.3834228515625,119.598388671875,184.844970703125
5.9299999,0.4572925269603729,-7.163451671600342,-2.4588451385498047,-208.892822265625,144.34814453125,202.7587890625
5.949999900000001,0.6105214357376099,-9.397241592407227,-3.0095114707946777,-211.669921875,170.7763671875,224.0447998046875
5.9699999,1.1875240802764893,-12.210428237915039,-3.1316158771514893,-202.2552490234375,197.0977783203125,253.875732421875
5.989999900000001,2.166752576828003,-15.377957344055176,-2.896984100341797,-197.4029541015625,215.5609130859375,275.2227783203125
6.0099999,3.550601005554199,-18.65322494506836,-2.2697031497955322,-216.552734375,216.0491943359375,268.3868408203125
6.029999900000001,5.272032260894775,-21.8614559173584,-1.213860273361206,-277.496337890625,202.1942138671875,235.7025146484375
6.0499999,7.33583402633667,-24.89969825744629,0.16519992053508759,-357.2540283203125,184.9517822265625,180.908203125
6.069999900000001,9.703699111938477,-27.76316261291504,1.8962076902389526,-435.9283447265625,163.6962890625,110.1531982421875
6.0899999000000005,12.260706901550293,-30.353689193725586,4.072536945343018,-480.95703125,136.5814208984375,29.4189453125
6.109999900000001,15.006855964660645,-32.33369445800781,6.830657482147217,-432.0831298828125,92.193603515625,-54.5654296875
6.1299999000000005,17.604564666748047,-32.98731231689453,10.345345497131348,-291.8853759765625,11.1846923828125,-136.566162109375
6.149999900000001,19.68512725830078,-32.03681182861328,14.724340438842773,-205.230712890625,-97.3052978515625,-230.072021484375
6.1699999000000005,20.700267791748047,-29.673736572265625,19.711462020874023,-235.137939453125,-195.73974609375,-330.3375244140625
6.1899999,19.960458755493164,-26.580427169799805,24.519020080566406,-250.9307861328125,-276.153564453125,-424.8199462890625
6.209999900000001,16.931795120239258,-23.920469284057617,28.337770462036133,-176.7730712890625,-359.0545654296875,-500
6.2299999,11.422736167907715,-22.34747886657715,30.20524787902832,-103.69873046875,-430.6793212890625,-500
6.249999900000001,3.1938650608062744,-21.978771209716797,29.362489700317383,-102.3101806640625,-457.672119140625,-500
6.2699999,-7.73087739944458,-21.57175636291504,25.3905086517334,-137.908935546875,-407.440185546875,-493.10302734375
6.289999900000001,-20.559009552001953,-19.419370651245117,18.935741424560547,-145.9197998046875,-264.2364501953125,-358.6883544921875
6.3099999,-32.32651138305664,-15.538369178771973,10.673351287841797,-61.6455078125,-58.10546875,-273.98681640625
6.329999900000001,-41.05577087402344,-10.06043529510498,1.4532804489135742,107.879638671875,113.6627197265625,-172.454833984375
6.3499999,-43.969512939453125,-4.280832767486572,-7.015010833740234,243.804931640625,161.224365234375,-34.912109375
6.369999900000001,-40.79719543457031,-0.22505496442317963,-14.089877128601074,239.6392822265625,136.1846923828125,44.3572998046875
6.3899999,-33.10702133178711,1.6543933153152466,-18.60773468017578,141.29638671875,90.972900390625,94.4671630859375
6.409999900000001,-22.938846588134766,1.1779472827911377,-20.17833137512207,40.557861328125,62.103271484375,144.989013671875
6.4299999,-12.33253288269043,-1.5442601442337036,-19.07221031188965,16.05224609375,55.755615234375,152.8472900390625
6.449999900000001,-3.157952070236206,-5.655104637145996,-16.005237579345703,62.6983642578125,60.9283447265625,128.5858154296875
6.4699999,3.5266590118408203,-10.010157585144043,-12.157755851745605,130.950927734375,69.9615478515625,103.3477783203125
6.489999900000001,7.4770917892456055,-13.402741432189941,-8.604761123657227,163.6505126953125,77.94189453125,77.4078369140625
6.5099999,9.023746490478516,-15.057134628295898,-5.985504150390625,148.712158203125,83.038330078125,35.6903076171875
6.529999900000001,8.96149730682373,-14.784195899963379,-4.481945514678955,109.5123291015625,92.6055908203125,-14.2059326171875
6.5499999,8.094796180725098,-13.199234008789062,-3.9193081855773926,83.92333984375,107.3760986328125,-56.976318359375
6.569999900000001,6.9455790519714355,-11.075576782226562,-3.734954595565796,92.3309326171875,113.983154296875,-72.601318359375
6.5899999000000005,5.841852188110352,-9.035717010498047,-3.6535518169403076,110.382080078125,114.4256591796875,-67.230224609375
6.609999900000001,4.967968463897705,-7.3669586181640625,-3.4332852363586426,130.43212890625,120.17822265625,-69.8699951171875
6.6299999000000005,4.378994941711426,-6.042964935302734,-3.028665065765381,151.30615234375,133.636474609375,-85.0372314453125
6.649999900000001,4.094084739685059,-5.073313236236572,-2.5234885215759277,169.1131591796875,150.1007080078125,-97.930908203125
6.6699999000000005,4.084507942199707,-4.503493309020996,-2.073378562927246,182.8155517578125,158.7066650390625,-100.09765625
6.6899999,4.299986362457275,-4.292803764343262,-1.7717092037200928,186.5997314453125,157.28759765625,-97.503662109375
6.709999900000001,4.812345504760742,-4.304774761199951,-1.5538369417190552,173.004150390625,154.083251953125,-103.668212890625
6.7299999,5.621585369110107,-4.565742492675781,-1.3120225667953491,147.88818359375,156.3568115234375,-122.4822998046875
6.749999900000001,6.63433313369751,-4.932055473327637,-0.993593692779541,133.8653564453125,155.1055908203125,-132.049560546875
6.7699999,7.762001991271973,-5.39174222946167,-0.6607996821403503,135.2996826171875,141.1285400390625,-123.0316162109375
6.789999900000001,8.83939266204834,-5.758055210113525,-0.3758896589279175,134.979248046875,117.401123046875,-112.213134765625
6.8099999,9.742006301879883,-5.920860767364502,-0.05506663769483566,117.950439453125,95.123291015625,-111.2823486328125
6.829999900000001,10.390835762023926,-5.880159378051758,0.3064578175544739,94.329833984375,83.709716796875,-115.6768798828125
6.8499999,10.78348445892334,-5.643133640289307,0.8164227604866028,76.690673828125,77.4688720703125,-114.1357421875
6.869999900000001,10.955866813659668,-5.396530628204346,1.4293384552001953,60.2264404296875,66.3299560546875,-105.3924560546875
6.8899999,10.90798282623291,-5.123591423034668,1.9823989868164062,45.0897216796875,49.3927001953125,-91.0491943359375
6.909999900000001,10.704475402832031,-4.8267107009887695,2.4157495498657227,30.70068359375,32.257080078125,-77.1636962890625
6.9299999,10.398017883300781,-4.522646903991699,2.7700912952423096,13.8702392578125,18.5546875,-69.976806640625
6.949999900000001,10.005369186401367,-4.252102375030518,3.0095114707946777,-1.1749267578125,10.6964111328125,-68.8629150390625
6.9699999,9.610325813293457,-3.9887399673461914,3.1890766620635986,-4.5013427734375,5.340576171875,-67.2607421875
6.989999900000001,9.17697525024414,-3.7421371936798096,3.2848446369171143,-0.0762939453125,-1.953125,-64.14794921875
7.0099999,8.760383605957031,-3.44765043258667,3.2345664501190186,4.3792724609375,-10.833740234375,-57.0220947265625
7.029999900000001,8.374917984008789,-3.0166940689086914,3.0526070594787598,2.0294189453125,-18.707275390625,-44.464111328125
7.0499999,8.10437297821045,-2.477998733520508,2.7964274883270264,-7.4310302734375,-21.42333984375,-32.4249267578125
7.069999900000001,8.037335395812988,-1.9057846069335938,2.5713725090026855,-18.85986328125,-16.326904296875,-23.37646484375
7.0899999000000005,8.149862289428711,-1.4628572463989258,2.4372973442077637,-25.1007080078125,-5.0048828125,-14.556884765625
7.109999900000001,8.40843677520752,-1.2880805730819702,2.47560453414917,-20.233154296875,6.6680908203125,-6.0577392578125
7.1299999000000005,8.686163902282715,-1.4269442558288574,2.674323320388794,-2.9296875,12.725830078125,3.2501220703125
7.149999900000001,8.899248123168945,-1.8339585065841675,2.920926094055176,20.782470703125,12.3748779296875,9.5672607421875
7.1699999000000005,9.038111686706543,-2.3535003662109375,3.1723172664642334,35.82763671875,7.1258544921875,11.2152099609375
7.1899999,9.138668060302734,-2.832340717315674,3.31118106842041,33.660888671875,0.8544921875,8.7738037109375
7.209999900000001,9.272743225097656,-3.1914708614349365,3.313575267791748,21.0113525390625,-5.06591796875,3.4637451171875
7.2299999,9.452308654785156,-3.4141316413879395,3.220201253890991,8.3465576171875,-9.063720703125,-1.03759765625
7.249999900000001,9.643844604492188,-3.5266590118408203,3.07415509223938,5.8441162109375,-11.2762451171875,-2.1514892578125
7.2699999,9.732429504394531,-3.624821424484253,2.9281086921691895,14.1754150390625,-13.97705078125,-1.0223388671875
7.289999900000001,9.655815124511719,-3.667917013168335,2.762908697128296,23.590087890625,-17.7764892578125,2.6092529296875
7.3099999,9.404424667358398,-3.6511576175689697,2.6216509342193604,24.0020751953125,-20.7366943359375,4.6844482421875
7.329999900000001,9.035717010498047,-3.579331636428833,2.5043349266052246,14.4805908203125,-18.890380859375,3.326416015625
7.3499999,8.643068313598633,-3.485957622528076,2.456450939178467,4.1046142578125,-12.451171875,2.9449462890625
7.369999900000001,8.327033042907715,-3.3877954483032227,2.5115175247192383,1.9683837890625,-6.1187744140625,5.9356689453125
7.3899999,8.097189903259277,-3.3446998596191406,2.6431987285614014,7.6141357421875,-1.312255859375,7.26318359375
7.409999900000001,7.972691535949707,-3.3255462646484375,2.80361008644104,14.251708984375,3.1585693359375,8.1939697265625
7.4299999,7.934384346008301,-3.3255462646484375,2.9281086921691895,16.510009765625,6.439208984375,10.2691650390625
7.449999900000001,7.970297336578369,-3.3446998596191406,2.9975404739379883,15.106201171875,7.14111328125,11.1541748046875
7.4699999,8.070854187011719,-3.3925838470458984,3.028665065765381,14.1754150390625,5.4168701171875,10.9100341796875
7.489999900000001,8.224082946777344,-3.4572272300720215,3.0190882682800293,14.0838623046875,4.058837890625,11.9781494140625
7.5099999,8.413225173950195,-3.488351821899414,2.96162748336792,10.528564453125,3.1280517578125,12.0849609375
7.529999900000001,8.616731643676758,-3.49314022064209,2.892195701599121,1.7852783203125,2.50244140625,9.9029541015625
7.5499999,8.801085472106934,-3.5051112174987793,2.8203697204589844,-6.1187744140625,3.814697265625,6.8817138671875
7.569999900000001,8.935160636901855,-3.5434184074401855,2.7964274883270264,-4.364013671875,6.439208984375,4.4708251953125
7.5899999000000005,9.006986618041992,-3.598485231399536,2.8395233154296875,4.08935546875,8.1024169921875,3.5247802734375
7.609999900000001,9.002198219299316,-3.6607344150543213,2.935291290283203,10.5133056640625,8.636474609375,2.50244140625
7.6299999000000005,8.944737434387207,-3.6583402156829834,3.0358476638793945,12.4359130859375,8.148193359375,1.1749267578125
7.649999900000001,8.858546257019043,-3.600879430770874,3.1268274784088135,9.9029541015625,7.4462890625,0.3662109375
7.6699999000000005,8.78432559967041,-3.5194764137268066,3.2082302570343018,4.69970703125,7.1563720703125,-0.2899169921875
7.6899999,8.731653213500977,-3.4380736351013184,3.268085241317749,0.7171630859375,6.683349609375,-0.2288818359375
7.709999900000001,8.681375503540039,-3.397372245788574,3.315969467163086,0.0152587890625,5.340576171875,0.5950927734375
7.7299999,8.635885238647461,-3.397372245788574,3.3279404640197754,1.3427734375,3.5247802734375,1.03759765625
7.749999900000001,8.614337921142578,-3.3949780464172363,3.3446998596191406,1.678466796875,1.7242431640625,0.5950927734375
7.7699999,8.604761123657227,-3.3877954483032227,3.313575267791748,1.03759765625,1.9683837890625,-0.885009765625
7.789999900000001,8.633491516113281,-3.35667085647583,3.2824504375457764,2.166748046875,2.6702880859375,-1.1749267578125
7.8099999,8.669404029846191,-3.294421434402466,3.2297780513763428,3.9520263671875,3.173828125,0.2288818359375
7.829999900000001,8.686163902282715,-3.24414324760437,3.177105665206909,3.9520263671875,4.425048828125,0.885009765625
7.8499999,8.664615631103516,-3.19865345954895,3.1244332790374756,3.2501220703125,5.9967041015625,1.2664794921875
7.869999900000001,8.60236644744873,-3.1699230670928955,3.0765492916107178,1.2054443359375,7.4615478515625,2.4261474609375
7.8899999,8.489839553833008,-3.157952070236206,3.0310592651367188,-1.15966796875,9.3994140625,3.7384033203125
7.909999900000001,8.324639320373535,-3.179499864578247,2.9759926795959473,-1.64794921875,11.90185546875,5.218505859375
7.9299999,8.106766700744629,-3.2178070545196533,2.9065608978271484,-0.335693359375,14.739990234375,8.270263671875
7.949999900000001,7.817068576812744,-3.2537200450897217,2.8107926845550537,1.9073486328125,18.2952880859375,12.87841796875
7.9699999,7.462726593017578,-3.270479440689087,2.669534921646118,2.74658203125,23.0712890625,20.5535888671875
7.989999900000001,7.038952827453613,-3.2297780513763428,2.473210334777832,-1.129150390625,30.3955078125,32.4554443359375
8.0099999,6.528987884521484,-3.2082302570343018,2.2002713680267334,-10.5133056640625,40.4815673828125,46.630859375
8.0299999,5.894524574279785,-3.272873640060425,1.8722656965255737,-21.636962890625,51.239013671875,62.56103515625
8.049999900000001,5.125985622406006,-3.5434184074401855,1.5083470344543457,-31.9366455078125,61.34033203125,80.352783203125
8.069999900000001,4.292803764343262,-4.022258758544922,1.1563993692398071,-40.5426025390625,71.563720703125,102.5238037109375
8.0899999,3.490746021270752,-4.692635536193848,0.8403648138046265,-51.9256591796875,83.587646484375,127.2125244140625
8.1099999,2.7964274883270264,-5.504269599914551,0.586579442024231,-69.9005126953125,97.16796875,147.796630859375
8.129999900000001,2.2864625453948975,-6.4595561027526855,0.3998316824436188,-93.6431884765625,110.41259765625,164.4744873046875
8.149999900000001,1.920149803161621,-7.623138427734375,0.2849099934101105,-118.71337890625,124.237060546875,180.389404296875
8.1699999,1.723825216293335,-9.02135181427002,0.2968810200691223,-143.5699462890625,138.8397216796875,196.3348388671875
8.1899999,1.7166426181793213,-10.699687004089355,0.44771572947502136,-163.2080078125,152.2064208984375,208.404541015625
8.2099999,2.0015525817871094,-12.607866287231445,0.8355764150619507,-175.4150390625,162.933349609375,215.2252197265625
8.229999900000001,2.5546131134033203,-14.702792167663574,1.5131354331970215,-184.8602294921875,171.1883544921875,213.0584716796875
8.2499999,3.464409828186035,-16.938976287841797,2.4851813316345215,-201.202392578125,174.1943359375,196.7315673828125
8.2699999,4.632780075073242,-19.14643096923828,3.6942532062530518,-235.65673828125,168.121337890625,170.0897216796875
8.2899999,6.081272125244141,-21.253328323364258,4.944026470184326,-293.8079833984375,152.8472900390625,134.0484619140625
8.309999900000001,7.740454196929932,-23.108835220336914,6.057330131530762,-358.0780029296875,125.7781982421875,86.12060546875
8.3299999,9.737217903137207,-24.72013282775879,7.0126166343688965,-399.749755859375,88.8519287109375,29.693603515625
8.3499999,12.126631736755371,-25.720909118652344,7.9846625328063965,-389.312744140625,43.7469482421875,-28.50341796875
8.3699999,14.79616641998291,-25.900474548339844,9.289502143859863,-337.1734619140625,-14.9383544921875,-88.3331298828125
8.389999900000001,17.542316436767578,-24.96912956237793,11.192893028259277,-279.3731689453125,-95.367431640625,-154.2510986328125
8.4099999,19.761741638183594,-22.948423385620117,14.154520034790039,-260.9710693359375,-189.8040771484375,-219.7418212890625
8.4299999,20.803218841552734,-20.499155044555664,18.3515567779541,-269.622802734375,-281.2652587890625,-289.154052734375
8.4499999,19.752164840698242,-18.476055145263672,23.379379272460938,-220.4132080078125,-369.7662353515625,-363.2659912109375
8.469999900000001,16.072275161743164,-17.56625747680664,28.06483268737793,-116.3787841796875,-472.686767578125,-423.2025146484375
8.4899999,9.847352027893066,-17.956512451171875,30.832529067993164,-61.4166259765625,-500,-458.404541015625
8.5099999,1.2497732639312744,-19.407398223876953,30.32974624633789,-110.5499267578125,-500,-473.08349609375
8.5299999,-20.06340980529785,-19.833566665649414,18.77772331237793,-133.0413818359375,-315.3076171875,-330.87158203125
8.549999900000001,-29.154193878173828,-17.338808059692383,9.761159896850586,-18.5394287109375,-90.5303955078125,-272.64404296875
8.569999900000001,-35.46291732788086,-13.48653793334961,0.31124621629714966,147.27783203125,82.0770263671875,-206.787109375
8.5899999,-36.97844696044922,-8.848969459533691,-7.800309181213379,278.3355712890625,125.6103515625,-107.2540283203125
8.6099999,-34.134132385253906,-5.374982833862305,-13.350069046020508,228.8665771484375,101.25732421875,-55.3741455078125
8.629999900000001,-28.18693733215332,-3.2561142444610596,-15.907075881958008,71.014404296875,86.7156982421875,-22.5677490234375
8.649999900000001,-20.324378967285156,-2.7485435009002686,-15.660472869873047,-0.762939453125,71.0296630859375,22.003173828125
8.6699999,-12.09311294555664,-3.823540210723877,-13.496114730834961,26.55029296875,46.783447265625,56.3812255859375
8.6899999,-4.967968463897705,-5.8873419761657715,-10.615890502929688,79.0863037109375,39.703369140625,68.7255859375
8.709999900000001,0.21547815203666687,-8.097189903259277,-7.879317760467529,112.0147705078125,54.3975830078125,69.4427490234375
8.729999900000001,3.1483752727508545,-9.813833236694336,-5.846640586853027,107.97119140625,73.4405517578125,58.135986328125
8.7499999,4.015076160430908,-10.900800704956055,-4.776432514190674,82.794189453125,85.99853515625,29.5257568359375
8.7699999,3.5170822143554688,-11.26950740814209,-4.508281707763672,59.7076416015625,95.6573486328125,7.537841796875
8.7899999,2.365471363067627,-11.137825965881348,-4.663905143737793,52.032470703125,107.8948974609375,-1.922607421875
8.809999900000001,1.1563993692398071,-10.709263801574707,-4.843470096588135,62.896728515625,117.523193359375,-4.5166015625
8.8299999,0.363918662071228,-10.02452278137207,-4.7836151123046875,76.324462890625,119.6441650390625,-5.584716796875
8.8499999,0.1173158809542656,-9.332598686218262,-4.467580318450928,79.193115234375,122.1923828125,-18.280029296875
8.8699999,0.4644751250743866,-8.671798706054688,-3.928884983062744,73.4100341796875,129.45556640625,-28.8543701171875
8.889999900000001,1.2210428714752197,-8.180987358093262,-3.2632968425750732,66.4520263671875,136.6729736328125,-32.012939453125
8.9099999,2.1380221843719482,-7.850587368011475,-2.5546131134033203,62.591552734375,138.4124755859375,-37.4755859375
8.9299999,3.043030261993408,-7.587224960327148,-1.920149803161621,60.211181640625,135.406494140625,-49.31640625
8.9499999,3.797203779220581,-7.38132381439209,-1.4101848602294922,57.2662353515625,131.622314453125,-63.7969970703125
8.969999900000001,4.331110954284668,-7.16584587097168,-1.0079588890075684,53.2073974609375,129.7149658203125,-75.98876953125
8.9899999,4.69024133682251,-7.015010833740234,-0.7829039692878723,47.637939453125,131.89697265625,-90.545654296875
9.0099999,4.99669885635376,-6.868964672088623,-0.667982280254364,45.6085205078125,131.9580078125,-100.982666015625
9.0299999,5.327098846435547,-6.701370716094971,-0.6560112833976746,51.2237548828125,127.6702880859375,-103.57666015625
9.049999900000001,5.738901615142822,-6.445190906524658,-0.6655880808830261,60.5926513671875,123.7030029296875,-104.0191650390625
9.069999900000001,6.251260757446289,-6.157886981964111,-0.6344634294509888,64.4989013671875,121.9482421875,-104.67529296875
9.0899999,6.861782073974609,-5.817910194396973,-0.507570743560791,61.3555908203125,119.62890625,-104.1259765625
9.1099999,7.4770917892456055,-5.5329999923706055,-0.22505496442317963,58.807373046875,116.76025390625,-106.414794921875
9.129999900000001,8.08043098449707,-5.367800235748291,0.1867477297782898,63.4765625,113.22021484375,-109.344482421875
9.149999900000001,8.571242332458496,-5.298368453979492,0.730231523513794,72.0062255859375,106.26220703125,-106.0028076171875
9.1699999,8.99740982055664,-5.257667064666748,1.3694833517074585,76.873779296875,98.2666015625,-100.76904296875
9.1899999,9.275136947631836,-5.197812080383301,1.9943699836730957,70.1751708984375,89.111328125,-98.9227294921875
9.209999900000001,9.488221168518066,-5.097255229949951,2.580949544906616,57.31201171875,76.904296875,-98.0377197265625
9.229999900000001,9.586383819580078,-4.948814868927002,3.064578056335449,52.7496337890625,61.5234375,-93.6737060546875
9.2499999,9.636661529541016,-4.817133903503418,3.397372245788574,53.375244140625,46.966552734375,-85.723876953125
9.2699999,9.653421401977539,-4.702212333679199,3.5721490383148193,49.5147705078125,35.736083984375,-75.1495361328125
9.2899999,9.703699111938477,-4.541800498962402,3.5673606395721436,40.2984619140625,27.8778076171875,-63.9801025390625
9.309999900000001,9.749189376831055,-4.367023944854736,3.4189200401306152,28.6102294921875,24.1241455078125,-55.908203125
9.3299999,9.744400978088379,-4.163516521453857,3.1890766620635986,19.317626953125,24.47509765625,-47.8515625
9.3499999,9.569623947143555,-3.998316764831543,2.964021682739258,15.1519775390625,27.64892578125,-37.322998046875
9.3699999,9.17936897277832,-3.861847400665283,2.8107926845550537,17.486572265625,31.7840576171875,-26.06201171875
9.389999900000001,8.655038833618164,-3.7421371936798096,2.7772738933563232,24.10888671875,34.4085693359375,-14.46533203125
9.4099999,8.101978302001953,-3.598485231399536,2.827552318572998,29.72412109375,35.6903076171875,-4.180908203125
9.4299999,7.706935405731201,-3.4117374420166016,2.9735984802246094,30.8380126953125,33.63037109375,2.2125244140625
9.4499999,7.594407558441162,-3.179499864578247,3.162740468978882,29.876708984375,28.1829833984375,5.2032470703125
9.469999900000001,7.711723804473877,-2.9688100814819336,3.3446998596191406,27.130126953125,21.5606689453125,7.7056884765625
9.4899999,8.066065788269043,-2.8586769104003906,3.5697548389434814,18.1732177734375,14.4500732421875,9.3536376953125
9.5099999,8.544905662536621,-2.87064790725708,3.8139634132385254,8.5906982421875,8.758544921875,10.8642578125
9.5299999,8.987833023071289,-3.1100680828094482,4.10366153717041,9.765625,5.55419921875,10.162353515625
9.549999900000001,9.334992408752441,-3.579331636428833,4.448426723480225,25.1617431640625,0.4730224609375,9.5672607421875
9.569999900000001,9.500192642211914,-4.173093795776367,4.797980308532715,49.6978759765625,-9.3536376953125,11.0321044921875
9.5899999,9.476250648498535,-4.776432514190674,5.049371242523193,69.0765380859375,-20.599365234375,8.8348388671875
9.6099999,9.339780807495117,-5.195417881011963,5.085284233093262,66.619873046875,-29.2816162109375,2.01416015625
9.629999900000001,9.184157371520996,-5.284003257751465,4.908113479614258,45.196533203125,-34.3475341796875,-6.4544677734375
9.649999900000001,9.002198219299316,-5.128379821777344,4.469974517822266,20.93505859375,-36.2701416015625,-14.8162841796875
9.6699999,8.83939266204834,-4.821922302246094,3.928884983062744,7.32421875,-36.6973876953125,-19.287109375
9.6899999,8.69095230102539,-4.522646903991699,3.423708438873291,7.8582763671875,-35.919189453125,-20.111083984375
9.709999900000001,8.501810073852539,-4.292803764343262,3.0119056701660156,16.7694091796875,-31.9366455078125,-18.49365234375
9.729999900000001,8.317456245422363,-4.1180267333984375,2.7222073078155518,23.5443115234375,-27.6031494140625,-15.869140625
9.7499999,8.147468566894531,-3.936067581176758,2.5689783096313477,19.927978515625,-24.383544921875,-12.9852294921875
9.7699999,7.996633529663086,-3.7660791873931885,2.492363929748535,10.9100341796875,-20.3704833984375,-11.4288330078125
9.7899999,7.893682956695557,-3.622427225112915,2.4803929328918457,5.2947998046875,-16.54052734375,-9.490966796875
9.809999900000001,7.872135162353516,-3.552995204925537,2.5689783096313477,0.396728515625,-13.763427734375,-7.171630859375
9.8299999,7.915230751037598,-3.5721490383148193,2.719813108444214,-5.401611328125,-10.101318359375,-6.7138671875
9.8499999,8.022970199584961,-3.667917013168335,2.918531894683838,-4.4708251953125,-6.16455078125,-7.293701171875
9.8699999,8.176198959350586,-3.7684733867645264,3.1244332790374756,3.3111572265625,-4.3792724609375,-7.0037841796875
9.889999900000001,8.346187591552734,-3.8283286094665527,3.3016040325164795,8.30078125,-4.302978515625,-7.1258544921875
9.9099999,8.513781547546387,-3.7876269817352295,3.40216064453125,6.0577392578125,-4.6539306640625,-8.514404296875
9.9299999,8.662221908569336,-3.6774938106536865,3.423708438873291,3.0059814453125,-5.9967041015625,-9.9334716796875
9.9499999,8.786720275878906,-3.4787750244140625,3.378218650817871,1.64794921875,-8.0718994140625,-8.6212158203125
9.969999900000001,8.858546257019043,-3.308786630630493,3.265691041946411,-2.50244140625,-9.490966796875,-7.4462890625
9.9899999,8.899248123168945,-3.162740468978882,3.162740468978882,-10.223388671875,-9.735107421875,-7.080078125
10.0099999,8.892065048217773,-3.095702886581421,3.0885202884674072,-14.6636962890625,-8.331298828125,-7.843017578125
10.0299999,8.87051773071289,-3.1028854846954346,3.0885202884674072,-11.77978515625,-6.744384765625,-8.6822509765625
10.049999900000001,8.827422142028809,-3.141192674636841,3.1435868740081787,-5.06591796875,-5.7373046875,-7.659912109375
10.069999900000001,8.738836288452148,-3.1675288677215576,3.179499864578247,1.8157958984375,-5.5694580078125,-6.805419921875
10.0899999,8.616731643676758,-3.1699230670928955,3.203441858291626,3.5400390625,-6.04248046875,-6.7291259765625
10.1099999,8.49941635131836,-3.1220390796661377,3.1866824626922607,2.13623046875,-6.4239501953125,-5.9661865234375
10.129999900000001,8.4108304977417,-3.0358476638793945,3.157952070236206,0.0152587890625,-5.7373046875,-4.8065185546875
10.149999900000001,8.379706382751465,-2.942473888397217,3.090914487838745,-4.0130615234375,-3.7689208984375,-4.638671875
10.1699999,8.379706382751465,-2.832340717315674,2.9520506858825684,-9.185791015625,-1.8768310546875,-4.3182373046875
10.1899999,8.367734909057617,-2.784456491470337,2.7317841053009033,-14.0838623046875,0.6866455078125,-3.11279296875
10.209999900000001,8.358158111572266,-2.8179752826690674,2.542642116546631,-15.6707763671875,4.6539306640625,-0.152587890625
10.229999900000001,8.362946510314941,-2.9305028915405273,2.470816135406494,-10.9405517578125,11.627197265625,3.387451171875
10.2499999,8.382100105285645,-3.0573954582214355,2.559401512145996,-0.1678466796875,19.1192626953125,6.2103271484375
10.2699999,8.396465301513672,-3.1244332790374756,2.7748796939849854,9.46044921875,23.37646484375,7.965087890625
10.2899999,8.374917984008789,-3.1076738834381104,3.023876667022705,12.9241943359375,23.223876953125,8.087158203125
10.309999900000001,8.310274124145508,-3.023876667022705,3.205836057662964,9.9639892578125,21.78955078125,7.9345703125
10.3299999,8.236053466796875,-2.935291290283203,3.337517261505127,2.4261474609375,20.3704833984375,7.50732421875
10.3499999,8.202534675598145,-2.8874073028564453,3.4356794357299805,-5.340576171875,19.989013671875,7.2479248046875
10.3699999,8.221688270568848,-2.911349296569824,3.555389642715454,-6.6680908203125,19.866943359375,6.77490234375
10.389999900000001,8.271966934204102,-2.9975404739379883,3.711012601852417,1.7852783203125,19.775390625,6.805419921875
10.4099999,8.348581314086914,-3.1220390796661377,3.907337188720703,14.8162841796875,19.256591796875,7.87353515625
10.4299999,8.44434928894043,-3.203441858291626,4.10366153717041,24.59716796875,18.49365234375,8.36181640625
10.4499999,8.537723541259766,-3.2154128551483154,4.247313976287842,24.9176025390625,17.5628662109375,6.4849853515625
10.469999900000001,8.638279914855957,-3.134010076522827,4.331110954284668,16.754150390625,15.838623046875,4.5013427734375
10.4899999,8.734047889709473,-3.026270866394043,4.359841346740723,5.859375,13.580322265625,3.631591796875
10.5099999,8.798690795898438,-2.964021682739258,4.383783340454102,1.6937255859375,10.6353759765625,2.899169921875
10.5299999,8.829815864562988,-2.980781078338623,4.41969633102417,4.4403076171875,7.7056884765625,3.387451171875
10.549999900000001,8.820239067077637,-3.0765492916107178,4.479551315307617,7.537841796875,5.035400390625,3.41796875
10.569999900000001,8.765172004699707,-3.201047658920288,4.54419469833374,9.21630859375,2.3040771484375,1.40380859375
10.5899999,8.688557624816895,-3.3016040325164795,4.5825018882751465,7.781982421875,0.42724609375,-0.54931640625
10.6099999,8.592789649963379,-3.359065055847168,4.577713489532471,4.5318603515625,-0.54931640625,-2.044677734375
10.629999900000001,8.501810073852539,-3.3638534545898438,4.5394062995910645,3.570556640625,-1.5106201171875,-2.99072265625
10.649999900000001,8.413225173950195,-3.3207578659057617,4.4508209228515625,2.3193359375,-2.0599365234375,-3.2806396484375
10.6699999,8.341399192810059,-3.2776620388031006,4.357447147369385,-0.640869140625,-2.2735595703125,-3.2196044921875
10.6899999,8.29590892791748,-3.227383852005005,4.268861770629883,0.06103515625,-2.38037109375,-2.9296875
10.709999900000001,8.281543731689453,-3.1890766620635986,4.211400985717773,2.685546875,-1.7547607421875,-2.838134765625
10.729999900000001,8.293514251708984,-3.1435868740081787,4.180276393890381,3.9215087890625,-0.7781982421875,-2.3193359375
10.7499999,8.33182144165039,-3.0813376903533936,4.168305397033691,2.471923828125,-0.640869140625,-1.6937255859375
10.7699999,8.377311706542969,-3.021482467651367,4.1611223220825195,0.3814697265625,-0.732421875,-2.716064453125
10.7899999,8.415618896484375,-2.978386878967285,4.151545524597168,0.7171630859375,-0.4425048828125,-3.570556640625
10.809999900000001,8.446743965148926,-2.9759926795959473,4.146757125854492,3.6468505859375,-0.5035400390625,-2.8076171875
10.8299999,8.465897560119629,-2.9951462745666504,4.151545524597168,5.2490234375,-0.6866455078125,-1.3275146484375
10.8499999,8.480262756347656,-3.0190882682800293,4.165910720825195,4.0283203125,-0.091552734375,-1.0223388671875
10.8699999,8.492233276367188,-3.023876667022705,4.182670593261719,2.9296875,0.244140625,-1.617431640625
10.889999900000001,8.51138687133789,-3.004723072052002,4.201824188232422,2.62451171875,-0.3814697265625,-1.8157958984375
10.9099999,8.530540466308594,-2.9712042808532715,4.20421838760376,0.5645751953125,-1.220703125,-1.9989013671875
10.9299999,8.530540466308594,-2.9472622871398926,4.197035789489746,-2.105712890625,-1.28173828125,-2.3651123046875
10.9499999,8.51138687133789,-2.9472622871398926,4.180276393890381,0.1373291015625,-1.4190673828125,-1.8768310546875
10.969999900000001,8.47547435760498,-2.96162748336792,4.1611223220825195,7.110595703125,-1.617431640625,-0.5035400390625
10.9899999,8.418013572692871,-2.978386878967285,4.129997730255127,9.521484375,-1.0528564453125,-0.396728515625
11.0099999,8.343792915344238,-2.9759926795959473,4.07014274597168,4.21142578125,0.274658203125,-1.251220703125
11.0299999,8.250418663024902,-2.956839084625244,3.9839515686035156,-2.899169921875,2.0751953125,-1.220703125
11.049999900000001,8.135497093200684,-2.96162748336792,3.866635799407959,-6.866455078125,4.241943359375,-0.54931640625
11.069999900000001,7.99184513092041,-3.0095114707946777,3.77565598487854,-7.2021484375,7.598876953125,0.54931640625
11.0899999,7.814674377441406,-3.098097085952759,3.6822822093963623,-4.913330078125,12.420654296875,2.9296875
11.1099999,7.5968017578125,-3.184288263320923,3.622427225112915,-4.45556640625,17.88330078125,6.378173828125
11.129999900000001,7.309497833251953,-3.2369606494903564,3.5458126068115234,-7.781982421875,24.200439453125,10.3759765625
11.149999900000001,6.962338447570801,-3.227383852005005,3.4165258407592773,-12.0697021484375,31.1126708984375,17.2271728515625
11.1699999,6.564900875091553,-3.1938650608062744,3.1962592601776123,-19.0582275390625,38.1927490234375,27.2064208984375
11.1899999,6.107608318328857,-3.2106244564056396,2.892195701599121,-35.919189453125,47.821044921875,36.7431640625
11.209999900000001,5.585672378540039,-3.404554843902588,2.5091233253479004,-58.197021484375,59.9822998046875,45.379638671875
11.229999900000001,4.975151062011719,-3.804386615753174,2.1164743900299072,-78.857421875,72.9827880859375,59.1888427734375
11.2499999,4.307168960571289,-4.4508209228515625,1.7549498081207275,-94.1314697265625,85.113525390625,78.79638671875
11.2699999,3.6822822093963623,-5.240907669067383,1.4652514457702637,-103.0120849609375,95.123291015625,105.46875
11.2899999,3.201047658920288,-6.088454723358154,1.2521674633026123,-115.41748046875,104.888916015625,135.6658935546875
11.309999900000001,2.9233202934265137,-6.988674640655518,1.0749965906143188,-143.8446044921875,116.8060302734375,162.9180908203125
11.3299999,2.846705913543701,-7.996633529663086,0.9696516990661621,-188.1866455078125,130.859375,186.7218017578125
11.3499999,2.9065608978271484,-9.277531623840332,0.9002198576927185,-235.107421875,144.6075439453125,206.390380859375
11.3699999,3.069366693496704,-10.893617630004883,0.8978256583213806,-263.36669921875,154.693603515625,219.78759765625
11.389999900000001,3.3279404640197754,-12.85207462310791,1.048660397529602,-277.2979736328125,160.4461669921875,225.067138671875
11.4099999,3.7277719974517822,-15.06910514831543,1.280897855758667,-293.1671142578125,165.2984619140625,216.73583984375
11.4299999,4.326322555541992,-17.37232780456543,1.6400281190872192,-319.5343017578125,166.534423828125,195.6634521484375
11.4499999,5.224148273468018,-19.718645095825195,2.123656988143921,-356.1248779296875,160.8734130859375,166.9158935546875
11.469999900000001,6.461950302124023,-21.978771209716797,2.7269957065582275,-386.9171142578125,147.064208984375,127.410888671875
11.4899999,8.147468566894531,-24.219743728637695,3.533841609954834,-400.8331298828125,126.89208984375,66.7877197265625
11.5099999,10.393229484558105,-26.321853637695312,4.750096321105957,-385.009765625,101.9287109375,-8.0108642578125
11.5299999,13.136984825134277,-27.966670989990234,6.473921298980713,-321.7926025390625,64.727783203125,-90.240478515625
11.549999900000001,16.268600463867188,-28.79027557373047,8.741230010986328,-220.001220703125,-0.9613037109375,-186.431884765625
11.569999900000001,19.07221031188965,-28.347347259521484,11.580753326416016,-152.008056640625,-96.160888671875,-285.2783203125
11.5899999,20.640413284301758,-26.874914169311523,14.903905868530273,-163.0706787109375,-196.990966796875,-373.4283447265625
11.6099999,20.142419815063477,-24.90448570251465,18.47365951538086,-206.329345703125,-288.3148193359375,-448.333740234375
11.629999900000001,17.034744262695312,-23.56612777709961,21.86863899230957,-214.1876220703125,-365.1123046875,-500
11.649999900000001,11.35809326171875,-23.142353057861328,23.975536346435547,-162.3077392578125,-424.9420166015625,-500
11.6699999,3.4787750244140625,-23.503877639770508,23.963563919067383,-129.3792724609375,-454.559326171875,-500
11.6899999,-6.92881965637207,-23.709779739379883,21.167137145996094,-141.3726806640625,-420.4559326171875,-500
11.709999900000001,-18.918981552124023,-21.301212310791016,15.7107515335083,-158.5845947265625,-291.2445068359375,-353.515625
11.729999900000001,-29.316999435424805,-16.6420955657959,8.801085472106934,-98.9532470703125,-100.3265380859375,-224.1363525390625
11.7499999,-37.19392395019531,-10.84094524383545,1.4460978507995605,9.3841552734375,89.90478515625,-174.896240234375
11.7699999,-39.456443786621094,-4.932055473327637,-5.173870086669922,159.3017578125,190.093994140625,-58.9447021484375
11.7899999,-36.88746643066406,-1.1516109704971313,-10.5344877243042,223.602294921875,205.810546875,22.430419921875
11.809999900000001,-30.91153907775879,0.5147533416748047,-14.180856704711914,179.595947265625,171.7071533203125,27.40478515625
11.8299999,-22.924480438232422,0.8523358106613159,-15.873557090759277,114.0899658203125,129.2724609375,52.337646484375
11.8499999,-14.290989875793457,-0.11252748221158981,-15.662867546081543,75.6378173828125,113.8458251953125,96.099853515625
11.8699999,-6.212953567504883,-2.188300371170044,-13.922283172607422,72.6776123046875,115.3717041015625,120.2850341796875
11.889999900000001,0.5027823448181152,-4.900930881500244,-11.293449401855469,86.700439453125,116.9586181640625,129.6234130859375
11.9099999,5.310339450836182,-7.750030994415283,-8.446743965148926,105.316162109375,118.1640625,111.7401123046875
11.9299999,8.252813339233398,-9.979032516479492,-5.748478412628174,123.779296875,127.5482177734375,69.9920654296875
11.9499999,9.770736694335938,-11.200075149536133,-3.5458126068115234,130.5694580078125,152.008056640625,27.0233154296875
11.969999900000001,10.211270332336426,-11.312602996826172,-1.98958158493042,130.5084228515625,168.487548828125,1.3275146484375
11.9899999,10.010157585144043,-10.484209060668945,-1.213860273361206,130.218505859375,164.459228515625,-9.2315673828125
12.0099999,9.528923034667969,-9.045293807983398,-1.1061211824417114,131.011962890625,153.25927734375,-24.96337890625
12.0299999,9.066842079162598,-7.354987621307373,-1.359906554222107,124.7711181640625,151.885986328125,-46.81396484375
12.049999900000001,8.786720275878906,-5.75326681137085,-1.6424223184585571,109.1766357421875,160.736083984375,-62.0574951171875
12.069999900000001,8.628703117370605,-4.565742492675781,-1.766920804977417,97.259521484375,171.2646484375,-66.802978515625
12.0899999,8.549694061279297,-3.9240965843200684,-1.8148049116134644,103.8818359375,172.882080078125,-62.9119873046875
12.1099999,8.480262756347656,-3.6822822093963623,-1.7310078144073486,120.208740234375,158.9202880859375,-51.6204833984375
12.129999900000001,8.544905662536621,-3.6750996112823486,-1.5658079385757446,125.5340576171875,143.0511474609375,-43.548583984375
12.149999900000001,8.801085472106934,-3.797203779220581,-1.37906014919281,117.2027587890625,136.7645263671875,-46.3714599609375
12.1699999,9.248801231384277,-4.010287761688232,-1.1204863786697388,100.341796875,133.392333984375,-51.9256591796875
12.1899999,9.77791976928711,-4.376600742340088,-0.8331822156906128,85.235595703125,122.8179931640625,-52.8411865234375
12.209999900000001,10.26394271850586,-4.903325080871582,-0.586579442024231,80.8258056640625,107.696533203125,-53.0853271484375
12.229999900000001,10.649409294128418,-5.509057998657227,-0.36152446269989014,86.8988037109375,88.3941650390625,-55.0384521484375
12.2499999,10.888829231262207,-6.00226354598999,-0.13407529890537262,92.83447265625,65.948486328125,-55.267333984375
12.2699999,11.003750801086426,-6.327875137329102,0.06464344263076782,87.4786376953125,47.5311279296875,-53.863525390625
12.289999900000002,11.025299072265625,-6.3949127197265625,0.30885201692581177,75.4852294921875,32.470703125,-51.6510009765625
12.309999900000001,10.934319496154785,-6.256049156188965,0.5889736413955688,64.8651123046875,17.1661376953125,-50.0946044921875
12.3299999,10.74996566772461,-5.985504150390625,0.9409212470054626,54.0924072265625,3.082275390625,-49.1943359375
12.3499999,10.47702693939209,-5.659893035888672,1.3886369466781616,40.557861328125,-5.6610107421875,-47.0428466796875
12.3699999,10.113107681274414,-5.355829238891602,1.8914192914962769,32.53173828125,-7.720947265625,-44.9981689453125
12.389999900000001,9.648633003234863,-5.035006046295166,2.3726539611816406,31.31103515625,-6.2103271484375,-41.5496826171875
12.4099999,9.11233139038086,-4.707000732421875,2.7772738933563232,33.8592529296875,-4.6234130859375,-38.4674072265625
12.4299999,8.516175270080566,-4.314351558685303,2.999934673309326,40.252685546875,-4.669189453125,-34.9273681640625
12.4499999,7.924807548522949,-3.8977603912353516,3.066972494125366,44.5404052734375,-5.8441162109375,-29.388427734375
12.469999900000001,7.417236804962158,-3.485957622528076,3.028665065765381,38.4063720703125,-5.584716796875,-22.27783203125
12.4899999,7.036558628082275,-3.1675288677215576,2.956839084625244,25.7110595703125,-1.9378662109375,-15.6402587890625
12.5099999,6.813898086547852,-3.021482467651367,2.8874073028564453,20.4010009765625,4.2724609375,-10.4522705078125
12.5299999,6.75883150100708,-3.069366693496704,2.849100112915039,24.3072509765625,9.9029541015625,-3.448486328125
12.549999900000001,6.861782073974609,-3.2537200450897217,2.7988216876983643,30.5633544921875,12.6800537109375,6.1187744140625
12.569999900000001,7.134721279144287,-3.507505416870117,2.719813108444214,36.529541015625,11.566162109375,11.7950439453125
12.5899999,7.582436561584473,-3.708618402481079,2.607285737991333,39.947509765625,7.75146484375,13.6871337890625
12.6099999,8.183381080627441,-3.8163576126098633,2.499546527862549,42.5872802734375,2.4871826171875,14.0228271484375
12.629999900000001,8.904036521911621,-3.823540210723877,2.4468741416931152,41.717529296875,-2.288818359375,12.8326416015625
12.649999900000001,9.617507934570312,-3.7493197917938232,2.473210334777832,35.7666015625,-4.1351318359375,10.284423828125
12.6699999,10.223240852355957,-3.646369218826294,2.5977089405059814,26.1077880859375,-4.8980712890625,6.89697265625
12.6899999,10.556035041809082,-3.581725835800171,2.801215887069702,18.2952880859375,-8.23974609375,1.9989013671875
12.709999900000001,10.556035041809082,-3.600879430770874,3.043030261993408,15.625,-14.0838623046875,-3.23486328125
12.729999900000001,10.216058731079102,-3.7253777980804443,3.287238836288452,15.13671875,-20.111083984375,-8.1024169921875
12.7499999,9.66299819946289,-3.9193081855773926,3.4763808250427246,12.39013671875,-23.6358642578125,-11.8865966796875
12.7699999,9.042900085449219,-4.0749311447143555,3.555389642715454,7.781982421875,-24.4140625,-12.908935546875
12.789999900000002,8.489839553833008,-4.1395745277404785,3.4811692237854004,3.8299560546875,-23.0255126953125,-13.5345458984375
12.809999900000001,8.092401504516602,-4.091690540313721,3.2752678394317627,4.3487548828125,-20.44677734375,-14.739990234375
12.8299999,7.881711959838867,-3.928884983062744,3.0142998695373535,7.9193115234375,-16.6778564453125,-13.092041015625
12.8499999,7.817068576812744,-3.711012601852417,2.7269957065582275,10.7421875,-11.8255615234375,-8.8958740234375
12.8699999,7.85537576675415,-3.4811692237854004,2.4803929328918457,10.894775390625,-8.4686279296875,-5.1116943359375
12.889999900000001,7.943961143493652,-3.2561142444610596,2.2840683460235596,7.568359375,-6.1187744140625,-1.6326904296875
12.9099999,8.066065788269043,-3.07415509223938,2.1499931812286377,3.8299560546875,-3.021240234375,2.2125244140625
12.9299999,8.214506149291992,-2.9664158821105957,2.0877439975738525,2.227783203125,1.0223388671875,5.523681640625
12.9499999,8.38449478149414,-2.942473888397217,2.094926595687866,2.1209716796875,5.523681640625,8.97216796875
12.969999900000001,8.523358345031738,-3.0310592651367188,2.166752576828003,3.7689208984375,8.9263916015625,11.383056640625
12.9899999,8.621520042419434,-3.19865345954895,2.3319525718688965,3.4332275390625,10.4217529296875,12.3138427734375
13.0099999,8.671798706054688,-3.4380736351013184,2.583343744277954,-0.2288818359375,12.359619140625,10.80322265625
13.0299999,8.681375503540039,-3.7014358043670654,2.892195701599121,-0.274658203125,13.763427734375,7.3699951171875
13.049999900000001,8.69334602355957,-3.931279182434082,3.1890766620635986,6.9580078125,11.5966796875,5.43212890625
13.069999900000001,8.707711219787598,-4.05817174911499,3.3949780464172363,14.2364501953125,6.9122314453125,4.9896240234375
13.0899999,8.738836288452148,-4.0749311447143555,3.488351821899414,14.2974853515625,2.2735595703125,3.2501220703125
13.1099999,8.779537200927734,-3.955221176147461,3.4620156288146973,9.6282958984375,0.3662109375,1.6326904296875
13.129999900000001,8.825027465820312,-3.7612907886505127,3.3734302520751953,4.8370361328125,-0.3204345703125,1.03759765625
13.149999900000001,8.853757858276367,-3.5721490383148193,3.248931646347046,0.18310546875,-0.6866455078125,-0.213623046875
13.1699999,8.858546257019043,-3.4596214294433594,3.141192674636841,1.3275146484375,-1.922607421875,-1.0528564453125
13.1899999,8.860940933227539,-3.428496837615967,3.071760892868042,8.48388671875,-2.5482177734375,0.518798828125
13.209999900000001,8.860940933227539,-3.4620156288146973,3.0837318897247314,13.9923095703125,-1.495361328125,1.739501953125
13.229999900000001,8.844181060791016,-3.533841609954834,3.134010076522827,14.739990234375,-0.457763671875,0.244140625
13.2499999,8.798690795898438,-3.5865142345428467,3.1962592601776123,14.0838623046875,-1.03759765625,-2.7313232421875
13.2699999,8.722076416015625,-3.6367924213409424,3.24414324760437,12.6953125,-3.6468505859375,-5.615234375
13.289999900000002,8.65982723236084,-3.6535518169403076,3.2585084438323975,10.31494140625,-5.218505859375,-6.683349609375
13.309999900000001,8.643068313598633,-3.6367924213409424,3.272873640060425,6.89697265625,-4.45556640625,-6.4849853515625
13.3299999,8.65982723236084,-3.6128504276275635,3.2609026432037354,6.9427490234375,-2.5177001953125,-6.591796875
13.3499999,8.688557624816895,-3.5721490383148193,3.224989652633667,11.8255615234375,-3.23486328125,-5.9967041015625
13.3699999,8.695740699768066,-3.5410242080688477,3.1483752727508545,13.427734375,-5.55419921875,-5.584716796875
13.389999900000001,8.695740699768066,-3.514688014984131,3.0573954582214355,10.0555419921875,-6.7596435546875,-6.5765380859375
13.4099999,8.71728801727295,-3.4811692237854004,2.9472622871398926,6.8206787109375,-5.7373046875,-6.9122314453125
13.4299999,8.774748802185059,-3.4117374420166016,2.868253707885742,7.01904296875,-4.913330078125,-5.3863525390625
13.4499999,8.83939266204834,-3.335123062133789,2.801215887069702,6.011962890625,-3.7078857421875,-4.5166015625
13.469999900000001,8.89445972442627,-3.2537200450897217,2.801215887069702,3.4332275390625,-2.1820068359375,-4.45556640625
13.4899999,8.899248123168945,-3.1962592601776123,2.827552318572998,5.2490234375,-0.396728515625,-4.5318603515625
13.5099999,8.853757858276367,-3.157952070236206,2.8826189041137695,8.8653564453125,1.52587890625,-3.5247802734375
13.5299999,8.731653213500977,-3.155557870864868,2.9233202934265137,11.138916015625,2.166748046875,-2.8076171875
13.549999900000001,8.542511940002441,-3.1651346683502197,2.9281086921691895,11.6729736328125,3.7078857421875,-1.6326904296875
13.569999900000001,8.26478385925293,-3.222595453262329,2.9089550971984863,13.9312744140625,7.0037841796875,0.4425048828125
13.5899999,7.876923561096191,-3.3016040325164795,2.8658595085144043,18.9208984375,12.847900390625,7.110595703125
13.6099999,7.364564418792725,-3.3854012489318848,2.7772738933563232,21.97265625,20.6756591796875,19.34814453125
13.629999900000001,6.71334171295166,-3.404554843902588,2.612074136734009,20.56884765625,29.5257568359375,33.87451171875
13.649999900000001,5.884947776794434,-3.3470940589904785,2.3271639347076416,9.765625,40.4052734375,49.0570068359375
13.6699999,4.912901878356934,-3.2609026432037354,1.8938134908676147,-14.2974853515625,54.19921875,65.9942626953125
13.6899999,3.804386615753174,-3.3039982318878174,1.3072341680526733,-46.2493896484375,70.4803466796875,85.8306884765625
13.709999900000001,2.6001031398773193,-3.646369218826294,0.5339069962501526,-78.0792236328125,86.2274169921875,110.0921630859375
13.729999900000001,1.5705963373184204,-4.307168960571289,-0.29209262132644653,-112.701416015625,99.5025634765625,140.045166015625
13.7499999,0.7996633648872375,-5.389348030090332,-1.1420341730117798,-155.7159423828125,116.14990234375,166.229248046875
13.7699999,0.4596867263317108,-6.981492042541504,-1.8076223134994507,-202.5604248046875,138.2598876953125,184.478759765625
13.789999900000002,0.6033388376235962,-9.172186851501465,-2.2194249629974365,-237.030029296875,159.088134765625,204.803466796875
13.809999900000001,1.194706678390503,-12.078747749328613,-2.3127987384796143,-252.7313232421875,176.0711669921875,225.7232666015625
13.8299999,2.2409727573394775,-15.535974502563477,-2.0853497982025146,-265.4266357421875,189.7125244140625,240.0665283203125
13.8499999,3.7181951999664307,-19.20389175415039,-1.580173134803772,-288.970947265625,194.976806640625,236.5264892578125
13.8699999,5.652710437774658,-22.582111358642578,-0.7733271718025208,-326.6754150390625,187.9425048828125,209.8388671875
13.889999900000001,8.11634349822998,-25.438392639160156,0.4141969084739685,-386.2152099609375,176.4984130859375,165.618896484375
13.9099999,11.065999984741211,-27.576416015625,1.9967641830444336,-453.9031982421875,167.1600341796875,115.8599853515625
13.9299999,14.563928604125977,-29.115886688232422,4.412513732910156,-496.368408203125,146.17919921875,56.640625
13.9499999,18.65083122253418,-29.606698989868164,7.936778545379639,-436.5234375,86.9903564453125,-21.240234375
13.969999900000001,22.8335018157959,-28.883649826049805,12.959814071655273,-303.3294677734375,-26.9927978515625,-129.1961669921875
13.9899999,26.19017219543457,-27.210102081298828,19.529502868652344,-230.926513671875,-153.717041015625,-255.1727294921875
14.0099999,27.425580978393555,-24.90448570251465,26.400861740112305,-172.0733642578125,-265.594482421875,-370.4376220703125
14.0299999,25.51021957397461,-23.180660247802734,32.42946243286133,-84.197998046875,-383.4228515625,-469.1925048828125
14.049999900000001,20.037073135375977,-22.634782791137695,35.58262634277344,-21.087646484375,-482.2845458984375,-500
14.069999900000001,11.57357120513916,-22.984336853027344,34.75183868408203,-24.9786376953125,-500,-500
14.0899999,0.3711012601852417,-24.389732360839844,29.795839309692383,-88.4857177734375,-500,-500
14.1099999,-13.093889236450195,-24.17904281616211,21.648372650146484,-153.350830078125,-383.8653564453125,-382.0037841796875
14.129999900000001,-26.30748748779297,-22.328325271606445,11.6430025100708,-106.7352294921875,-161.68212890625,-248.687744140625
14.149999900000001,-37.21546936035156,-18.497602462768555,1.6903064250946045,20.5535888671875,53.558349609375,-225.250244140625
14.1699999,-43.31110763549805,-12.983756065368652,-6.8043212890625,131.500244140625,159.637451171875,-134.735107421875
14.1899999,-43.339839935302734,-7.905653953552246,-13.21599292755127,159.088134765625,172.6531982421875,-44.921875
14.209999900000001,-38.41496658325195,-3.9887399673461914,-17.0012264251709,119.4915771484375,134.8724365234375,14.8773193359375
14.229999900000001,-30.162153244018555,-1.8555063009262085,-18.41619873046875,58.380126953125,94.482421875,68.115234375
14.2499999,-20.262128829956055,-1.723825216293335,-17.822437286376953,22.64404296875,75.1800537109375,112.8082275390625
14.2699999,-10.407594680786133,-3.335123062133789,-15.796942710876465,24.932861328125,71.441650390625,145.8282470703125
14.289999900000002,-1.7836803197860718,-6.098031520843506,-12.835315704345703,29.0069580078125,88.1805419921875,158.721923828125
14.309999900000001,4.821922302246094,-9.251194953918457,-9.502586364746094,32.8216552734375,122.6959228515625,134.033203125
14.3299999,9.117119789123535,-11.93509578704834,-6.335057735443115,62.1337890625,160.3546142578125,85.1593017578125
14.3499999,11.346121788024902,-13.532028198242188,-3.7229835987091064,104.9957275390625,178.0853271484375,41.046142578125
14.3699999,11.985373497009277,-13.64455509185791,-1.9129672050476074,118.6370849609375,167.4652099609375,13.85498046875
14.389999900000001,11.602301597595215,-12.375628471374512,-0.9265560507774353,95.2606201171875,150.909423828125,-15.31982421875
14.4099999,10.769119262695312,-10.108319282531738,-0.6033388376235962,57.9376220703125,147.7203369140625,-47.30224609375
14.4299999,9.916783332824707,-7.548917770385742,-0.6847416758537292,32.65380859375,160.247802734375,-69.0765380859375
14.4499999,9.224859237670898,-5.348646640777588,-0.9552865028381348,47.698974609375,167.7093505859375,-73.05908203125
14.469999900000001,8.650250434875488,-3.7876269817352295,-1.2713210582733154,94.2535400390625,164.3524169921875,-62.1795654296875
14.4899999,8.178592681884766,-2.846705913543701,-1.5442601442337036,129.39453125,161.4837646484375,-53.2684326171875
14.5099999,7.8529815673828125,-2.3702597618103027,-1.7381904125213623,127.5787353515625,159.2559814453125,-54.13818359375
14.5299999,7.702147006988525,-2.1356279850006104,-1.8387469053268433,110.626220703125,150.604248046875,-56.5948486328125
14.549999900000001,7.704541206359863,-2.1475989818573,-1.8602946996688843,92.6361083984375,142.6544189453125,-55.6488037109375
14.569999900000001,7.807491779327393,-2.4181437492370605,-1.778891921043396,76.6143798828125,139.5111083984375,-50.6591796875
14.5899999,7.977479934692383,-2.959233283996582,-1.5969325304031372,70.0836181640625,134.2010498046875,-44.677734375
14.6099999,8.2312650680542,-3.732560396194458,-1.2976573705673218,70.8465576171875,121.734619140625,-42.266845703125
14.629999900000001,8.604761123657227,-4.666299343109131,-0.9313444495201111,72.479248046875,108.94775390625,-42.90771484375
14.649999900000001,9.172186851501465,-5.664681434631348,-0.4908113479614258,75.0274658203125,97.5799560546875,-42.572021484375
14.6699999,9.873687744140625,-6.603208065032959,-0.009576806798577309,77.63671875,85.174560546875,-41.1834716796875
14.6899999,10.577583312988281,-7.362170219421387,0.45489832758903503,74.8138427734375,72.7996826171875,-41.748046875
14.709999900000001,11.101913452148438,-7.826645374298096,0.8379706144332886,64.788818359375,60.882568359375,-45.684814453125
14.729999900000001,11.255142211914062,-7.934384346008301,1.0773907899856567,57.12890625,48.15673828125,-49.9267578125
14.7499999,10.970232009887695,-7.668628215789795,1.2114660739898682,54.4586181640625,35.70556640625,-51.33056640625
14.7699999,10.319009780883789,-7.094019412994385,1.2832920551300049,51.361083984375,27.740478515625,-50.96435546875
14.789999900000002,9.39245319366455,-6.279991149902344,1.3551181554794312,48.1414794921875,25.146484375,-49.6673583984375
14.809999900000001,8.473079681396484,-5.355829238891602,1.4963760375976562,49.6826171875,22.4609375,-47.05810546875
14.8299999,7.723694801330566,-4.4723687171936035,1.702277421951294,61.4166259765625,16.41845703125,-41.0003662109375
14.8499999,7.242460250854492,-3.6750996112823486,1.8602946996688843,77.7435302734375,6.683349609375,-29.11376953125
14.8699999,7.0772600173950195,-3.043030261993408,1.941697597503662,82.8399658203125,-5.92041015625,-17.8680419921875
14.889999900000001,7.1921820640563965,-2.5258827209472656,1.8722656965255737,73.394775390625,-16.6778564453125,-6.6680908203125
14.9099999,7.486668586730957,-2.183511972427368,1.7477672100067139,58.3038330078125,-22.8729248046875,3.4332275390625
14.9299999,7.927201747894287,-2.03507137298584,1.6711528301239014,45.5169677734375,-22.2015380859375,12.6190185546875
14.9499999,8.434772491455078,-2.1475989818573,1.766920804977417,41.6412353515625,-19.0887451171875,16.8914794921875
14.969999900000001,8.949525833129883,-2.47560453414917,2.0877439975738525,47.05810546875,-15.6707763671875,18.6767578125
14.9899999,9.394847869873047,-2.985569477081299,2.6360161304473877,52.520751953125,-9.735107421875,19.3328857421875
15.0099999,9.730035781860352,-3.598485231399536,3.3231520652770996,58.59375,-5.5389404296875,14.3585205078125
15.0299999,9.876082420349121,-4.201824188232422,4.01268196105957,66.83349609375,-8.8348388671875,9.307861328125
15.049999900000001,9.854534149169922,-4.639962673187256,4.534617900848389,68.4661865234375,-16.78466796875,8.0718994140625
15.069999900000001,9.694122314453125,-4.78122091293335,4.790797710418701,55.8013916015625,-23.8800048828125,4.180908203125
15.0899999,9.461885452270508,-4.606443881988525,4.759673118591309,33.6456298828125,-27.252197265625,-4.7454833984375
15.1099999,9.20091724395752,-4.19224739074707,4.517858505249023,16.0064697265625,-28.1524658203125,-12.02392578125
15.129999900000001,8.911218643188477,-3.713406801223755,4.153939723968506,8.4686279296875,-27.9693603515625,-13.7481689453125
15.149999900000001,8.554482460021973,-3.3231520652770996,3.7445313930511475,7.1868896484375,-26.3214111328125,-12.2833251953125
15.1699999,8.14028549194336,-3.047818660736084,3.3518824577331543,5.4779052734375,-22.308349609375,-10.19287109375
15.1899999,7.680599212646484,-2.8778305053710938,3.0095114707946777,4.0740966796875,-17.120361328125,-9.4451904296875
15.209999900000001,7.242460250854492,-2.779668092727661,2.765302896499634,0.8544921875,-11.1846923828125,-7.5531005859375
15.229999900000001,6.919242858886719,-2.7030537128448486,2.631227731704712,-3.692626953125,-4.4708251953125,-1.9989013671875
15.2499999,6.773196697235107,-2.6647465229034424,2.5953147411346436,-6.7596435546875,2.9296875,4.913330078125
15.2699999,6.873753070831299,-2.6360161304473877,2.607285737991333,-8.9569091796875,9.70458984375,12.8631591796875
15.289999900000002,7.247248649597168,-2.647987127304077,2.63362193107605,-9.6435546875,14.0228271484375,19.500732421875
15.309999900000001,7.8745293617248535,-2.717418909072876,2.669534921646118,-7.6751708984375,16.143798828125,23.3001708984375
15.3299999,8.667010307312012,-2.846705913543701,2.7102363109588623,-3.11279296875,18.1121826171875,24.871826171875
15.3499999,9.493009567260742,-3.0526070594787598,2.782062292098999,2.62451171875,17.9443359375,23.0712890625
15.3699999,10.192116737365723,-3.3303346633911133,2.920926094055176,6.1798095703125,14.129638671875,16.937255859375
15.389999900000001,10.589553833007812,-3.6822822093963623,3.1292216777801514,7.32421875,8.7432861328125,8.270263671875
15.4099999,10.302249908447266,-4.438849925994873,3.6296098232269287,9.8419189453125,-4.364013671875,-9.3231201171875
15.4299999,9.768342971801758,-4.692635536193848,3.799597978591919,5.218505859375,-10.772705078125,-14.6636962890625
15.4499999,9.165003776550293,-4.778826713562012,3.8283286094665527,-1.4801025390625,-13.5955810546875,-18.798828125
15.469999900000001,8.635885238647461,-4.683058738708496,3.711012601852417,-4.180908203125,-12.6800537109375,-20.9808349609375
15.4899999,8.245630264282227,-4.4508209228515625,3.4763808250427246,-0.9918212890625,-11.0626220703125,-19.134521484375
15.5099999,7.994239330291748,-4.141968727111816,3.177105665206909,5.035400390625,-10.2691650390625,-14.1143798828125
15.5299999,7.869740962982178,-3.821146011352539,2.894589900970459,8.2244873046875,-8.6212158203125,-8.544921875
15.549999900000001,7.836222171783447,-3.5458126068115234,2.6647465229034424,6.7291259765625,-5.6915283203125,-3.41796875
15.569999900000001,7.862558364868164,-3.359065055847168,2.513911724090576,3.448486328125,-3.5552978515625,0.640869140625
15.5899999,7.927201747894287,-3.292027235031128,2.4205379486083984,-0.6103515625,-2.9449462890625,3.0670166015625
15.6099999,8.034940719604492,-3.335123062133789,2.3965959548950195,-6.5460205078125,-2.655029296875,4.150390625
15.629999900000001,8.195352554321289,-3.49314022064209,2.449268341064453,-11.29150390625,-0.244140625,3.662109375
15.649999900000001,8.403648376464844,-3.706224203109741,2.5785553455352783,-8.0413818359375,2.7313232421875,3.0975341796875
15.6699999,8.611943244934082,-3.928884983062744,2.736572504043579,0.79345703125,2.7618408203125,2.7313232421875
15.6899999,8.779537200927734,-4.0964789390563965,2.8826189041137695,4.5013427734375,0.8544921875,0.701904296875
15.709999900000001,8.87291145324707,-4.182670593261719,2.985569477081299,-1.0986328125,-0.457763671875,-2.5482177734375
15.729999900000001,8.920795440673828,-4.173093795776367,3.0358476638793945,-7.598876953125,0.18310546875,-4.9896240234375
15.7499999,8.916007041931152,-4.113238334655762,3.0621838569641113,-8.4075927734375,-0.091552734375,-6.2255859375
15.7699999,8.875306129455566,-4.017470359802246,3.045424461364746,-5.18798828125,-2.0294189453125,-6.1492919921875
15.789999900000002,8.789113998413086,-3.912125587463379,2.980781078338623,-1.373291015625,-4.2572021484375,-4.9285888671875
15.809999900000001,8.695740699768066,-3.801992416381836,2.8993782997131348,0.823974609375,-6.4239501953125,-2.838134765625
15.8299999,8.62630844116211,-3.670311212539673,2.806004285812378,-0.335693359375,-7.2784423828125,-0.54931640625
15.8499999,8.59997272491455,-3.5482068061828613,2.7293899059295654,-3.7994384765625,-6.4544677734375,-0.5645751953125
15.869999900000002,8.619126319885254,-3.445256233215332,2.691082715988159,-5.645751953125,-5.55419921875,-1.2054443359375
15.889999900000001,8.662221908569336,-3.383007049560547,2.6815059185028076,-3.7078857421875,-4.486083984375,-1.7242431640625
15.9099999,8.702922821044922,-3.3686418533325195,2.7126305103302,1.861572265625,-3.1585693359375,-2.838134765625
15.9299999,8.736441612243652,-3.361459255218506,2.7700912952423096,7.354736328125,-1.64794921875,-2.655029296875
15.9499999,8.743624687194824,-3.3518824577331543,2.8155810832977295,9.552001953125,-0.48828125,-2.3345947265625
15.969999900000001,8.724471092224121,-3.315969467163086,2.851494312286377,7.3699951171875,-1.0223388671875,-1.8310546875
15.9899999,8.702922821044922,-3.2752678394317627,2.8562827110290527,3.72314453125,-2.0294189453125,-1.28173828125
16.0099999,8.688557624816895,-3.2585084438323975,2.8634653091430664,2.960205078125,-2.50244140625,-0.3509521484375
16.0299999,8.702922821044922,-3.268085241317749,2.8658595085144043,4.8980712890625,-2.2125244140625,1.6632080078125
16.0499999,8.736441612243652,-3.3039982318878174,2.873042106628418,7.5531005859375,-2.4261474609375,2.38037109375
16.0699999,8.765172004699707,-3.35667085647583,2.875436305999756,9.1094970703125,-3.021240234375,1.2969970703125
16.089999900000002,8.789113998413086,-3.406949043273926,2.889801502227783,9.368896484375,-3.4942626953125,0.54931640625
16.109999900000002,8.808267593383789,-3.450044631958008,2.9041666984558105,10.43701171875,-3.4332275390625,0.5340576171875
16.1299999,8.83939266204834,-3.4763808250427246,2.918531894683838,12.0086669921875,-3.8299560546875,1.40380859375
16.1499999,8.904036521911621,-3.4835634231567383,2.9281086921691895,10.43701171875,-4.302978515625,2.044677734375
16.1699999,8.990227699279785,-3.5051112174987793,2.896984100341797,5.767822265625,-3.509521484375,1.6632080078125
16.1899999,9.059659004211426,-3.552995204925537,2.82515811920166,0.640869140625,-1.434326171875,1.4801025390625
16.2099999,9.064447402954102,-3.6559460163116455,2.674323320388794,-4.364013671875,0.91552734375,2.1820068359375
16.2299999,8.918401718139648,-3.778050184249878,2.4396915435791016,-7.598876953125,3.7384033203125,4.3792724609375
16.249999900000002,8.549694061279297,-3.9025487899780273,2.164358377456665,-10.009765625,8.9111328125,10.284423828125
16.269999900000002,7.898471355438232,-3.995922565460205,1.8770540952682495,-10.467529296875,16.05224609375,23.529052734375
16.2899999,6.900089263916016,-4.0294413566589355,1.6639702320098877,-8.6517333984375,23.3612060546875,45.0439453125
16.3099999,5.537788391113281,-4.0533833503723145,1.5155296325683594,-14.16015625,32.958984375,69.27490234375
16.3299999,3.8283286094665527,-4.094084739685059,1.3527239561080933,-30.7159423828125,45.013427734375,93.5211181640625
16.3499999,1.9081788063049316,-4.235342979431152,1.1180921792984009,-56.9915771484375,58.746337890625,116.4703369140625
16.3699999,0.11252748221158981,-4.580107688903809,0.730231523513794,-88.9739990234375,75.4547119140625,138.9617919921875
16.3899999,-1.2449848651885986,-5.1595048904418945,0.1412578970193863,-122.314453125,95.5047607421875,166.80908203125
16.4099999,-1.8746598958969116,-6.064512729644775,-0.5434837937355042,-159.5306396484375,116.9586181640625,195.7244873046875
16.429999900000002,-1.7310078144073486,-7.450755596160889,-1.2617442607879639,-196.59423828125,140.8233642578125,220.0927734375
16.4499999,-0.8882488012313843,-9.3828763961792,-1.9560627937316895,-221.98486328125,167.3583984375,244.2474365234375
16.4699999,0.5770025849342346,-11.973402976989746,-2.537853717803955,-226.4251708984375,189.7430419921875,264.95361328125
16.4899999,2.6001031398773193,-15.131354331970215,-2.8610711097717285,-216.2628173828125,200.98876953125,273.4527587890625
16.5099999,5.166687488555908,-18.64604377746582,-2.782062292098999,-203.094482421875,202.423095703125,264.8773193359375
16.5299999,8.202534675598145,-22.215797424316406,-2.1284453868865967,-205.810546875,197.5250244140625,231.353759765625
16.5499999,11.530475616455078,-25.435998916625977,-0.7110779285430908,-255.6610107421875,187.225341796875,175.0946044921875
16.5699999,14.844050407409668,-28.033708572387695,1.3479355573654175,-343.44482421875,165.0390625,94.0093994140625
16.589999900000002,18.05228042602539,-29.680917739868164,4.189853191375732,-423.33984375,114.1815185546875,-8.514404296875
16.609999900000002,20.922927856445312,-30.55001449584961,7.934384346008301,-449.52392578125,27.2369384765625,-118.2403564453125
16.6299999,23.125595092773438,-30.535648345947266,12.650961875915527,-382.7362060546875,-85.9375,-211.883544921875
16.6499999,24.114398956298828,-29.84372329711914,18.035520553588867,-279.6783447265625,-197.6165771484375,-299.407958984375
16.6699999,23.427263259887695,-28.766332626342773,23.673866271972656,-227.9052734375,-287.1856689453125,-392.2576904296875
16.6899999,20.506338119506836,-27.66021156311035,28.404808044433594,-185.546875,-358.5205078125,-484.4970703125
16.7099999,15.203181266784668,-27.15982437133789,31.198843002319336,-120.3155517578125,-427.1240234375,-500
16.7299999,7.354987621307373,-27.04729652404785,31.198843002319336,-102.9052734375,-481.6436767578125,-500
16.749999900000002,-3.2585084438323975,-26.91322135925293,27.854143142700195,-139.8468017578125,-475.738525390625,-500
16.769999900000002,-16.40506935119629,-24.693796157836914,21.878215789794922,-164.6728515625,-353.4393310546875,-436.9659423828125
16.7899999,-29.2786922454834,-19.99397850036621,14.03720474243164,-86.6851806640625,-130.4931640625,-291.473388671875
16.8099999,-39.595306396484375,-13.584700584411621,5.39174222946167,48.126220703125,99.4415283203125,-187.8509521484375
16.8299999,-44.63749694824219,-6.627150535583496,-2.652775526046753,179.26025390625,205.8563232421875,-65.73486328125
16.8499999,-43.37814712524414,-1.3838485479354858,-9.605537414550781,229.095458984375,208.709716796875,35.064697265625
16.8699999,-36.976051330566406,1.2018892765045166,-14.350845336914062,177.1392822265625,166.9158935546875,89.263916015625
16.8899999,-27.301082611083984,1.3527239561080933,-16.519990921020508,83.1756591796875,129.5013427734375,146.91162109375
16.9099999,-16.21592903137207,-0.8188169598579407,-16.1656494140625,35.2783203125,111.6790771484375,179.1839599609375
16.929999900000002,-5.736507415771484,-4.491522312164307,-13.771448135375977,50.811767578125,106.658935546875,174.13330078125
16.9499999,2.7700912952423096,-8.916007041931152,-10.414777755737305,101.165771484375,114.7918701171875,142.5323486328125
16.9699999,8.614337921142578,-12.842497825622559,-7.108384609222412,149.10888671875,123.0926513671875,101.4862060546875
16.9899999,11.87763500213623,-15.265430450439453,-4.58968448638916,158.538818359375,125.54931640625,50.140380859375
17.0099999,13.153743743896484,-15.722723007202148,-3.1675288677215576,124.57275390625,132.7667236328125,-14.495849609375
17.0299999,13.053187370300293,-14.417882919311523,-2.808398485183716,78.887939453125,147.3541259765625,-68.115234375
17.0499999,12.030863761901855,-11.959037780761719,-3.0166940689086914,58.41064453125,150.8026123046875,-87.493896484375
17.0699999,10.508151054382324,-9.2033109664917,-3.421314239501953,58.9141845703125,145.93505859375,-87.7227783203125
17.089999900000002,8.959102630615234,-6.658275127410889,-3.6296098232269287,69.6258544921875,146.66748046875,-88.5162353515625
17.109999900000002,7.659051418304443,-4.630385875701904,-3.485957622528076,79.2388916015625,157.3028564453125,-88.9739990234375
17.1299999,6.7708024978637695,-3.3279404640197754,-3.043030261993408,90.4998779296875,166.7938232421875,-83.587646484375
17.1499999,6.270414352416992,-2.7246015071868896,-2.434903144836426,105.6365966796875,165.5731201171875,-72.08251953125
17.1699999,6.054935932159424,-2.7246015071868896,-1.8100165128707886,118.194580078125,159.088134765625,-64.5751953125
17.1899999,6.133944988250732,-3.07415509223938,-1.2737152576446533,124.7711181640625,152.069091796875,-65.2923583984375
17.2099999,6.471527099609375,-3.5745432376861572,-0.7948749661445618,121.7041015625,143.2647705078125,-68.634033203125
17.2299999,7.0557122230529785,-4.079719543457031,-0.4141969084739685,117.7825927734375,130.889892578125,-69.88525390625
17.249999900000002,7.783549785614014,-4.532223701477051,-0.14365209639072418,116.3787841796875,117.034912109375,-67.779541015625
17.269999900000002,8.597578048706055,-4.886565685272217,0.028730420395731926,111.75537109375,101.715087890625,-65.460205078125
17.2899999,9.44752025604248,-5.161899089813232,0.15083470940589905,100.4180908203125,85.75439453125,-65.12451171875
17.3099999,10.261548042297363,-5.374982833862305,0.19393034279346466,90.5914306640625,70.1904296875,-65.3839111328125
17.3299999,10.970232009887695,-5.559336185455322,0.2346317619085312,82.6416015625,53.28369140625,-64.6209716796875
17.3499999,11.432312965393066,-5.74129581451416,0.2825157940387726,71.59423828125,36.8499755859375,-61.6455078125
17.3699999,11.520898818969727,-5.894524574279785,0.35673606395721436,57.8155517578125,24.71923828125,-54.3365478515625
17.3899999,11.140220642089844,-6.023811340332031,0.48602294921875,44.403076171875,16.265869140625,-45.59326171875
17.409999900000003,10.319009780883789,-6.088454723358154,0.6512228846549988,34.942626953125,8.9263916015625,-36.5447998046875
17.429999900000002,9.191340446472168,-6.0621185302734375,0.8212111592292786,30.21240234375,3.47900390625,-27.4200439453125
17.4499999,8.090007781982422,-5.894524574279785,1.036689281463623,23.590087890625,2.1209716796875,-21.6522216796875
17.4699999,7.240066051483154,-5.588066577911377,1.3048399686813354,21.0418701171875,4.6234130859375,-20.599365234375
17.4899999,6.888118267059326,-5.0876784324646,1.6687586307525635,29.8614501953125,7.843017578125,-16.4337158203125
17.5099999,6.979097843170166,-4.46518611907959,2.10210919380188,42.6788330078125,8.453369140625,-9.7198486328125
17.5299999,7.405265808105469,-3.7229835987091064,2.5067291259765625,53.741455078125,5.2947998046875,-2.8228759765625
17.5499999,7.9631147384643555,-2.9879636764526367,2.801215887069702,56.7474365234375,-0.9765625,1.312255859375
17.5699999,8.530540466308594,-2.3750481605529785,2.964021682739258,49.8046875,-7.720947265625,2.6397705078125
17.589999900000002,9.033323287963867,-1.9991583824157715,3.0166940689086914,42.0989990234375,-13.5650634765625,3.692626953125
17.609999900000002,9.433155059814453,-1.8962076902389526,3.0166940689086914,36.7431640625,-18.4783935546875,5.0201416015625
17.6299999,9.732429504394531,-2.0422539710998535,3.0166940689086914,28.9154052734375,-22.3236083984375,4.547119140625
17.6499999,9.95748519897461,-2.3343467712402344,3.0597896575927734,25.360107421875,-23.681640625,2.1514892578125
17.6699999,10.055646896362305,-2.6815059185028076,3.1268274784088135,31.2652587890625,-22.4456787109375,1.800537109375
17.6899999,10.014945983886719,-3.004723072052002,3.222595453262329,38.5284423828125,-20.1568603515625,4.2266845703125
17.7099999,9.821015357971191,-3.2632968425750732,3.292027235031128,39.794921875,-18.12744140625,6.072998046875
17.7299999,9.488221168518066,-3.4572272300720215,3.337517261505127,34.088134765625,-15.869140625,6.3629150390625
17.749999900000002,9.08838939666748,-3.5625722408294678,3.404554843902588,21.8353271484375,-12.359619140625,6.4849853515625
17.769999900000002,8.671798706054688,-3.6559460163116455,3.471592426300049,11.7034912109375,-8.60595703125,3.7841796875
17.7899999,8.29590892791748,-3.7038300037384033,3.555389642715454,11.688232421875,-8.270263671875,1.0986328125
17.8099999,7.996633529663086,-3.6990416049957275,3.6128504276275635,14.95361328125,-9.613037109375,0.5645751953125
17.8299999,7.8098859786987305,-3.6128504276275635,3.6152446269989014,12.2222900390625,-8.1329345703125,-0.6256103515625
17.8499999,7.752425193786621,-3.471592426300049,3.56017804145813,5.1727294921875,-4.4097900390625,-1.89208984375
17.8699999,7.790732383728027,-3.315969467163086,3.445256233215332,1.9073486328125,-1.6937255859375,-0.7476806640625
17.8899999,7.90086555480957,-3.2106244564056396,3.2752678394317627,4.364013671875,-0.8087158203125,3.143310546875
17.909999900000003,8.051700592041016,-3.181894063949585,3.0573954582214355,8.23974609375,-0.885009765625,7.080078125
17.929999900000002,8.243236541748047,-3.227383852005005,2.779668092727661,11.383056640625,-2.197265625,10.711669921875
17.9499999,8.468291282653809,-3.318363666534424,2.451662540435791,13.0462646484375,-4.6234130859375,13.275146484375
17.9699999,8.731653213500977,-3.4524388313293457,2.142810583114624,7.9193115234375,-6.40869140625,13.36669921875
17.9899999,9.002198219299316,-3.6176388263702393,1.9273324012756348,-1.3427734375,-4.3182373046875,9.765625
18.0099999,9.227252960205078,-3.8163576126098633,1.8579005002975464,-6.2103271484375,0.8544921875,4.2877197265625
18.0299999,9.361329078674316,-4.0294413566589355,2.0015525817871094,-3.6163330078125,4.1656494140625,0.091552734375
18.0499999,9.366117477416992,-4.2329487800598145,2.2601263523101807,2.4871826171875,6.011962890625,-3.265380859375
18.0699999,9.232041358947754,-4.402936935424805,2.5713725090026855,8.880615234375,7.049560546875,-6.7596435546875
18.089999900000002,9.042900085449219,-4.484339714050293,2.875436305999756,11.0626220703125,6.5460205078125,-8.7738037109375
18.109999900000002,8.83699893951416,-4.462791919708252,3.0837318897247314,11.6424560546875,4.669189453125,-10.5438232421875
18.1299999,8.681375503540039,-4.359841346740723,3.19865345954895,11.41357421875,1.007080078125,-12.1612548828125
18.1499999,8.592789649963379,-4.175487995147705,3.222595453262329,8.636474609375,-2.86865234375,-11.0931396484375
18.1699999,8.559270858764648,-3.9863457679748535,3.160346269607544,7.110595703125,-5.5389404296875,-9.5062255859375
18.1899999,8.583212852478027,-3.8115692138671875,3.0765492916107178,9.735107421875,-9.4451904296875,-7.1563720703125
18.2099999,8.638279914855957,-3.6942532062530518,2.9688100814819336,12.4053955078125,-12.8936767578125,-3.936767578125
18.2299999,8.71489429473877,-3.648763418197632,2.87064790725708,11.0321044921875,-13.702392578125,-1.7852783203125
18.249999900000002,8.769960403442383,-3.6822822093963623,2.760514497756958,4.7149658203125,-12.2222900390625,-1.556396484375
18.269999900000002,8.798690795898438,-3.799597978591919,2.671929121017456,-1.495361328125,-10.80322265625,-4.2877197265625
18.2899999,8.78432559967041,-3.952826976776123,2.604891538619995,-2.3956298828125,-9.674072265625,-7.38525390625
18.3099999,8.772355079650879,-4.079719543457031,2.5785553455352783,0.3814697265625,-6.5765380859375,-8.8958740234375
18.3299999,8.789113998413086,-4.129997730255127,2.5953147411346436,2.86865234375,-1.64794921875,-9.5977783203125
18.3499999,8.820239067077637,-4.048594951629639,2.6455929279327393,4.4097900390625,1.708984375,-8.9569091796875
18.3699999,8.844181060791016,-3.8738183975219727,2.7246015071868896,4.7149658203125,1.5716552734375,-7.62939453125
18.3899999,8.803479194641113,-3.6559460163116455,2.8179752826690674,3.41796875,0.091552734375,-6.439208984375
18.409999900000003,8.667010307312012,-3.466804027557373,2.8993782997131348,-0.244140625,-0.885009765625,-4.8675537109375
18.429999900000002,8.463502883911133,-3.3303346633911133,2.9544448852539062,-5.6915283203125,-1.15966796875,-2.9754638671875
18.4499999,8.2312650680542,-3.272873640060425,2.96162748336792,-9.979248046875,-0.6103515625,-1.251220703125
18.4699999,7.99184513092041,-3.265691041946411,2.8850131034851074,-9.70458984375,1.617431640625,1.556396484375
18.4899999,7.754819393157959,-3.28963303565979,2.7509377002716064,-8.23974609375,3.7689208984375,6.6680908203125
18.5099999,7.4770917892456055,-3.318363666534424,2.585737943649292,-7.38525390625,4.9285888671875,14.373779296875
18.5299999,7.146692276000977,-3.3279404640197754,2.4181437492370605,-7.049560546875,6.195068359375,24.4140625
18.5499999,6.773196697235107,-3.294421434402466,2.22660756111145,-10.406494140625,8.8043212890625,34.60693359375
18.5699999,6.449979305267334,-3.2154128551483154,2.0661959648132324,-23.651123046875,15.533447265625,40.0238037109375
18.589999900000002,6.196194171905518,-3.157952070236206,1.8746598958969116,-40.1153564453125,27.4810791015625,41.8701171875
18.609999900000002,6.052541732788086,-3.1699230670928955,1.7046716213226318,-45.4559326171875,40.6341552734375,47.7752685546875
18.6299999,5.928043365478516,-3.3303346633911133,1.5753847360610962,-37.9486083984375,52.2613525390625,58.0902099609375
18.6499999,5.738901615142822,-3.6343982219696045,1.4437036514282227,-27.0843505859375,64.0106201171875,69.4732666015625
18.6699999,5.382165431976318,-4.067748546600342,1.2952631711959839,-20.44677734375,74.4476318359375,81.146240234375
18.6899999,4.857835292816162,-4.570530891418457,1.1085153818130493,-22.88818359375,83.2061767578125,98.57177734375
18.7099999,4.244919776916504,-5.130774021148682,0.8978256583213806,-37.9638671875,92.71240234375,123.626708984375
18.7299999,3.6080620288848877,-5.7556610107421875,0.6991068720817566,-65.032958984375,104.4158935546875,152.64892578125
18.749999900000002,3.0334534645080566,-6.562506675720215,0.5626373887062073,-100.189208984375,116.3482666015625,178.619384765625
18.769999900000002,2.4636335372924805,-7.740454196929932,0.5051765441894531,-131.011962890625,127.50244140625,198.0438232421875
18.7899999,1.965639591217041,-9.370905876159668,0.4596867263317108,-149.8260498046875,138.1072998046875,215.4388427734375
18.8099999,1.623268723487854,-11.499350547790527,0.395043283700943,-167.0074462890625,149.1546630859375,227.1881103515625
18.8299999,1.6663644313812256,-13.989320755004883,0.23942017555236816,-199.249267578125,160.369873046875,227.935791015625
18.8499999,2.3367409706115723,-16.733076095581055,0.035913024097681046,-245.3765869140625,166.1376953125,213.165283203125
18.8699999,3.8331170082092285,-19.656396865844727,-0.038307227194309235,-296.112060546875,162.5213623046875,185.9588623046875
18.8899999,6.2201361656188965,-22.704214096069336,0.1628057211637497,-349.6856689453125,149.4598388671875,151.1077880859375
18.909999900000003,9.509769439697266,-25.720909118652344,0.9026140570640564,-396.453857421875,128.4942626953125,98.4649658203125
18.929999900000002,13.79060173034668,-28.407203674316406,2.3726539611816406,-415.6951904296875,92.987060546875,20.7061767578125
18.9499999,18.871097564697266,-30.104692459106445,4.824316501617432,-388.1683349609375,28.4576416015625,-75.1190185546875
18.9699999,24.023420333862305,-30.60747528076172,8.432378768920898,-337.82958984375,-63.323974609375,-197.6776123046875
18.9899999,28.0528621673584,-29.745561599731445,13.187262535095215,-285.5072021484375,-165.985107421875,-329.40673828125
19.0099999,29.60430335998535,-27.913997650146484,18.76335906982422,-245.91064453125,-259.552001953125,-440.85693359375
19.0299999,27.597963333129883,-25.972299575805664,24.2580509185791,-212.8753662109375,-335.4644775390625,-500
19.0499999,21.80399513244629,-24.459163665771484,28.459875106811523,-174.9725341796875,-394.378662109375,-500
19.0699999,12.06198787689209,-24.05693817138672,29.882030487060547,-133.85009765625,-428.3447265625,-500
19.089999900000002,-1.192312479019165,-23.195026397705078,27.064056396484375,-110.9161376953125,-411.8499755859375,-469.696044921875
19.109999900000002,-16.249446868896484,-20.573375701904297,20.563798904418945,-124.7711181640625,-326.4923095703125,-286.8804931640625
19.1299999,-29.642610549926758,-16.187198638916016,11.389217376708984,-130.279541015625,-150.32958984375,-205.7647705078125
19.1499999,-39.03746032714844,-10.496180534362793,1.4317326545715332,-32.2113037109375,30.2276611328125,-121.9482421875
19.1699999,-41.99908447265625,-5.171475887298584,-6.7277069091796875,104.248046875,122.6043701171875,3.11279296875
19.1899999,-39.255332946777344,-2.0685901641845703,-12.646173477172852,171.5240478515625,155.1361083984375,59.87548828125
19.2099999,-32.37200164794922,-0.7805097699165344,-15.440206527709961,131.072998046875,152.5726318359375,82.5958251953125
19.2299999,-23.288400650024414,-1.1109095811843872,-15.574281692504883,62.7899169921875,140.7318115234375,108.09326171875
19.249999900000002,-13.663708686828613,-2.63362193107605,-13.639766693115234,48.33984375,140.3350830078125,117.7215576171875
19.269999900000002,-4.8722004890441895,-4.924872875213623,-10.642226219177246,83.404541015625,145.08056640625,119.049072265625
19.2899999,2.0207061767578125,-7.261613845825195,-7.50582218170166,123.9013671875,138.36669921875,120.0408935546875
19.3099999,6.572083473205566,-9.08838939666748,-4.98472785949707,134.4451904296875,128.692626953125,103.118896484375
19.3299999,9.188945770263672,-9.904812812805176,-3.406949043273926,104.2327880859375,139.0838623046875,68.42041015625
19.3499999,10.321403503417969,-9.787496566772461,-2.782062292098999,62.530517578125,160.4461669921875,37.2467041015625
19.3699999,10.51054573059082,-9.066842079162598,-2.6623523235321045,57.5103759765625,162.841796875,27.069091796875
19.3899999,10.105925559997559,-8.11634349822998,-2.784456491470337,89.2486572265625,150.482177734375,29.022216796875
19.409999900000003,9.478644371032715,-7.086836814880371,-2.80361008644104,126.77001953125,144.073486328125,22.2015380859375
19.429999900000002,8.841787338256836,-6.0597243309021,-2.494758129119873,132.4920654296875,152.7252197265625,3.41796875
19.4499999,8.372523307800293,-5.166687488555908,-2.078166961669922,119.7662353515625,170.2880859375,-16.9677734375
19.4699999,8.13789176940918,-4.513070106506348,-1.6304513216018677,120.1019287109375,176.666259765625,-23.2696533203125
19.4899999,8.02536392211914,-4.156333923339844,-1.259350061416626,127.593994140625,168.5638427734375,-16.326904296875
19.5099999,8.04930591583252,-4.067748546600342,-1.0319008827209473,131.317138671875,160.4766845703125,-13.3819580078125
19.5299999,8.315062522888184,-4.151545524597168,-0.8786720037460327,123.1842041015625,156.0516357421875,-22.0489501953125
19.5499999,8.89445972442627,-4.458003520965576,-0.7038952708244324,112.4267578125,149.658203125,-35.919189453125
19.5699999,9.780313491821289,-4.994304656982422,-0.5746083855628967,119.354248046875,135.80322265625,-42.9229736328125
19.589999900000002,10.884040832519531,-5.683835029602051,-0.49559974670410156,135.4522705078125,115.753173828125,-42.66357421875
19.609999900000002,12.054805755615234,-6.358999729156494,-0.4405331015586853,132.080078125,96.2066650390625,-45.1812744140625
19.6299999,13.036428451538086,-6.916848659515381,-0.3974374830722809,113.4796142578125,80.657958984375,-56.3812255859375
19.6499999,13.639766693115234,-7.299921035766602,-0.31364041566848755,105.0262451171875,63.751220703125,-66.650390625
19.6699999,13.66610336303711,-7.55131196975708,-0.1412578970193863,103.668212890625,43.5943603515625,-69.9462890625
19.6899999,13.117831230163574,-7.6782050132751465,0.14365209639072418,93.109130859375,26.4739990234375,-70.709228515625
19.7099999,12.107478141784668,-7.623138427734375,0.48602294921875,78.4149169921875,12.7716064453125,-72.967529296875
19.7299999,10.852916717529297,-7.352593421936035,0.8427590131759644,68.3135986328125,-1.6937255859375,-71.4263916015625
19.749999900000002,9.564835548400879,-6.847416877746582,1.216254472732544,55.8624267578125,-17.27294921875,-63.4765625
19.769999900000002,8.382100105285645,-6.2201361656188965,1.5203180313110352,38.8946533203125,-27.34375,-56.3201904296875
19.7899999,7.3454108238220215,-5.56173038482666,1.7621324062347412,23.3154296875,-29.876708984375,-51.20849609375
19.8099999,6.521805286407471,-5.003881454467773,1.9345149993896484,16.693115234375,-27.28271484375,-44.7235107421875
19.8299999,5.942408561706543,-4.613626480102539,2.03507137298584,24.932861328125,-22.1710205078125,-34.3017578125
19.8499999,5.628767967224121,-4.37420654296875,2.051830768585205,45.013427734375,-16.8609619140625,-22.8729248046875
19.8699999,5.602431774139404,-4.185064792633057,1.9991583824157715,66.10107421875,-13.9312744140625,-15.0299072265625
19.8899999,5.856217384338379,-3.950432777404785,1.9393033981323242,75.86669921875,-13.3209228515625,-10.43701171875
19.909999900000003,6.375759124755859,-3.6822822093963623,1.8914192914962769,73.7457275390625,-11.6729736328125,-6.8817138671875
19.929999900000002,7.086836814880371,-3.4739866256713867,1.8483237028121948,63.0340576171875,-8.697509765625,-1.3275146484375
19.9499999,7.893682956695557,-3.3854012489318848,1.845929503440857,46.539306640625,-7.6904296875,6.9427490234375
19.9699999,8.719682693481445,-3.488351821899414,1.8938134908676147,30.8990478515625,-10.2996826171875,11.6424560546875
19.9899999,9.406818389892578,-3.708618402481079,1.9919757843017578,22.369384765625,-12.1002197265625,12.451171875
20.0099999,9.947908401489258,-3.9647979736328125,2.22660756111145,19.7906494140625,-14.0228271484375,10.7879638671875
20.0299999,10.259154319763184,-4.194641590118408,2.5474305152893066,20.08056640625,-15.5487060546875,6.744384765625
20.0499999,10.32858657836914,-4.338293552398682,2.875436305999756,24.7802734375,-16.4642333984375,1.556396484375
20.0699999,10.101137161254883,-4.388571739196777,3.141192674636841,28.8238525390625,-19.775390625,-1.495361328125
20.089999900000002,9.583989143371582,-4.347870349884033,3.2345664501190186,26.1383056640625,-22.216796875,-2.655029296875
20.109999900000002,8.815450668334961,-4.230554580688477,3.1459810733795166,17.51708984375,-22.796630859375,-4.08935546875
20.1299999,7.90086555480957,-4.067748546600342,2.8802247047424316,6.0882568359375,-21.4996337890625,-5.9051513671875
20.1499999,7.079654216766357,-3.8594532012939453,2.5785553455352783,-6.0272216796875,-15.777587890625,-6.744384765625
20.1699999,6.531382083892822,-3.641580820083618,2.341529369354248,-10.5743408203125,-4.547119140625,-7.0343017578125
20.1899999,6.356605529785156,-3.4356794357299805,2.2649147510528564,-2.3651123046875,9.429931640625,-6.103515625
20.2099999,6.5912370681762695,-3.2537200450897217,2.367865562438965,13.2293701171875,20.81298828125,-2.1209716796875
20.2299999,7.156269073486328,-3.141192674636841,2.580949544906616,28.38134765625,26.3214111328125,3.5247802734375
20.249999900000002,7.908048152923584,-3.0837318897247314,2.80361008644104,36.2701416015625,26.611328125,9.796142578125
20.269999900000002,8.767566680908203,-3.1076738834381104,2.9472622871398926,32.6690673828125,22.5830078125,14.3890380859375
20.2899999,9.615114212036133,-3.220201253890991,2.9951462745666504,20.2484130859375,14.6331787109375,14.6942138671875
20.3099999,10.323798179626465,-3.423708438873291,2.942473888397217,5.7830810546875,5.0506591796875,10.9405517578125
20.3299999,10.83855152130127,-3.6990416049957275,2.9017724990844727,-7.87353515625,-2.5787353515625,4.0130615234375
