# Time (seconds),Accel_X,Accel_Y,Accel_Z,Gyro_X,Gyro_Y,Gyro_Z
0.0012499,0.8020575642585754,-5.870582580566406,5.8657941818237305,-14.6026611328125,-18.6004638671875,27.618408203125
0.0037499,0.5027823448181152,-6.057330131530762,5.679046630859375,-15.80810546875,-20.233154296875,26.9012451171875
0.0062499,0.2801215946674347,-6.325480937957764,5.5114521980285645,-16.3421630859375,-21.8658447265625,26.031494140625
0.0087499,0.0694318488240242,-6.63433313369751,5.413290023803711,-16.2353515625,-24.2919921875,25.8026123046875
0.0112499,-0.10534487664699554,-7.007828235626221,5.377377033233643,-16.7694091796875,-26.9317626953125,25.848388671875
0.0137499,-0.19632454216480255,-7.357381820678711,5.377377033233643,-17.333984375,-29.3121337890625,26.06201171875
0.016249899999999998,-0.19393034279346466,-7.714118003845215,5.451597213745117,-16.3421630859375,-32.3333740234375,25.6195068359375
0.0187499,-0.1173158809542656,-7.929595947265625,5.571307182312012,-15.44189453125,-35.6292724609375,25.7415771484375
0.021249900000000002,0.1388636976480484,-8.070854187011719,5.724536418914795,-14.95361328125,-37.506103515625,24.8870849609375
0.023749899999999997,0.44771572947502136,-7.996633529663086,5.8657941818237305,-14.5416259765625,-39.3218994140625,24.4293212890625
0.0262499,0.8236053586006165,-7.8745293617248535,5.995080947875977,-15.2130126953125,-40.9088134765625,24.0020751953125
0.028749900000000002,1.2545616626739502,-7.69735860824585,6.1052141189575195,-15.7318115234375,-42.1142578125,23.5748291015625
0.031249899999999997,1.5969325304031372,-7.486668586730957,6.22731876373291,-14.70947265625,-43.8232421875,22.6593017578125
0.0337499,1.9153614044189453,-7.331045627593994,6.380547523498535,-14.9383544921875,-44.5098876953125,21.5301513671875
0.0362499,2.1475989818573,-7.168240070343018,6.562506675720215,-15.9759521484375,-45.34912109375,20.782470703125
0.0387499,2.3367409706115723,-7.046135425567627,6.7492547035217285,-16.7236328125,-46.0662841796875,20.355224609375
0.0412499,2.454056739807129,-6.988674640655518,6.909666061401367,-17.08984375,-47.149658203125,19.561767578125
0.0437499,2.4396915435791016,-6.971915245056152,7.038952827453613,-18.280029296875,-47.332763671875,19.3634033203125
0.0462499,2.38462495803833,-6.993463039398193,7.086836814880371,-18.9056396484375,-47.821044921875,19.3023681640625
0.0487499,2.231395959854126,-7.038952827453613,7.084442615509033,-18.85986328125,-49.8199462890625,18.06640625
0.0512499,2.006340980529785,-7.139509677886963,7.043741226196289,-19.927978515625,-50.72021484375,17.3797607421875
0.053749899999999996,1.7860745191574097,-7.287950038909912,6.97430944442749,-20.782470703125,-52.30712890625,17.63916015625
0.0562499,1.4891934394836426,-7.462726593017578,6.914454460144043,-18.8140869140625,-55.2825927734375,17.4560546875
0.0587499,1.1037269830703735,-7.673416614532471,6.876147270202637,-17.1051025390625,-57.31201171875,16.876220703125
0.061249899999999996,0.7445967197418213,-7.876923561096191,6.813898086547852,-16.9830322265625,-60.4248046875,17.2882080078125
0.0637499,0.35673606395721436,-8.006210327148438,6.763619899749756,-15.3656005859375,-64.02587890625,17.39501953125
0.0662499,-0.023942016065120697,-8.128314971923828,6.694188117980957,-14.5111083984375,-67.2607421875,17.27294921875
0.0687499,-0.33758243918418884,-8.142680168151855,6.588842868804932,-13.5345458984375,-70.6787109375,17.4102783203125
0.0712499,-0.6248866319656372,-8.087613105773926,6.478709697723389,-12.5732421875,-75.1190185546875,17.242431640625
0.0737499,-0.8858546018600464,-7.996633529663086,6.323086738586426,-12.5885009765625,-79.193115234375,17.181396484375
0.0762499,-1.1635819673538208,-7.908048152923584,6.184223175048828,-13.9007568359375,-82.1380615234375,17.425537109375
0.0787499,-1.5418659448623657,-7.843404769897461,6.0405707359313965,-14.4500732421875,-85.6781005859375,17.6544189453125
0.0812499,-2.054224967956543,-7.800309181213379,5.935225963592529,-13.9923095703125,-90.179443359375,18.06640625
0.0837499,-2.6024973392486572,-7.805097579956055,5.808333396911621,-14.6636962890625,-95.8709716796875,17.8985595703125
0.0862499,-3.1435868740081787,-7.797914981842041,5.669469833374023,-14.5721435546875,-101.50146484375,18.402099609375
0.0887499,-3.550601005554199,-7.8529815673828125,5.51624059677124,-15.0909423828125,-106.8115234375,19.6533203125
0.0912499,-3.8546648025512695,-7.936778545379639,5.3797712326049805,-16.265869140625,-112.4725341796875,20.599365234375
0.0937499,-4.034229755401611,-7.800309181213379,5.260061264038086,-15.5487060546875,-117.340087890625,21.820068359375
0.0962499,-4.158728122711182,-8.044517517089844,5.243301868438721,-24.169921875,-120.6817626953125,24.0631103515625
0.0987499,-4.434061527252197,-8.346187591552734,5.327098846435547,-28.74755859375,-121.490478515625,26.5655517578125
0.1012499,-4.757278919219971,-8.87291145324707,5.408501625061035,-4.608154296875,-130.7830810546875,25.9552001953125
0.1037499,-5.17626428604126,-9.473855972290039,5.477933406829834,5.645751953125,-140.106201171875,27.008056640625
0.1062499,-5.518634796142578,-9.746794700622559,5.47075080871582,7.8887939453125,-144.622802734375,29.4189453125
0.1087499,-5.556941986083984,-9.758766174316406,5.47075080871582,10.43701171875,-147.52197265625,31.829833984375
0.1112499,-4.532223701477051,-9.758766174316406,6.071695327758789,14.617919921875,-146.7437744140625,34.1949462890625
0.1137499,-2.142810583114624,-10.038887977600098,7.491456985473633,19.2413330078125,-132.9345703125,38.299560546875
0.1162499,1.5849615335464478,-10.556035041809082,9.835380554199219,26.7333984375,-102.081298828125,41.4886474609375
0.1187499,5.7341132164001465,-11.039664268493652,12.373234748840332,43.8690185546875,-64.7125244140625,38.6199951171875
0.1212499,9.251194953918457,-11.12346076965332,14.358027458190918,60.943603515625,-35.9344482421875,35.186767578125
0.1237499,11.355698585510254,-10.465055465698242,15.198391914367676,71.746826171875,-16.1285400390625,31.5093994140625
0.1262499,12.1194486618042,-9.32302188873291,15.133749008178711,77.5146484375,1.8768310546875,28.167724609375
0.1287499,11.975796699523926,-7.989450931549072,14.54956340789795,81.2225341796875,22.8424072265625,28.13720703125
0.1312499,10.654197692871094,-6.2416839599609375,13.182474136352539,84.869384765625,59.8907470703125,30.0140380859375
0.1337499,10.654197692871094,-6.2416839599609375,13.182474136352539,84.869384765625,59.8907470703125,30.0140380859375
0.1362499,8.556877136230469,-6.0190229415893555,11.432312965393066,88.9434814453125,85.9222412109375,28.86962890625
0.1387499,8.556877136230469,-6.0190229415893555,11.432312965393066,88.9434814453125,85.9222412109375,28.86962890625
0.1412499,6.117185115814209,-6.660669326782227,9.457097053527832,86.42578125,100.7843017578125,33.111572265625
0.1437499,6.117185115814209,-6.660669326782227,9.457097053527832,86.42578125,100.7843017578125,33.111572265625
0.1462499,4.867412090301514,-7.2137298583984375,7.7213006019592285,95.03173828125,104.3243408203125,34.48486328125
0.1487499,4.867412090301514,-7.2137298583984375,7.7213006019592285,95.03173828125,104.3243408203125,34.48486328125
0.1512499,7.0557122230529785,-7.180211067199707,6.57926607131958,84.9609375,94.1925048828125,31.7840576171875
0.1537499,7.0557122230529785,-7.180211067199707,6.57926607131958,84.9609375,94.1925048828125,31.7840576171875
0.1562499,9.926360130310059,-7.299921035766602,5.456385612487793,78.2318115234375,106.170654296875,33.14208984375
0.1587499,9.926360130310059,-7.299921035766602,5.456385612487793,78.2318115234375,106.170654296875,33.14208984375
0.1612499,9.847352027893066,-7.953537940979004,4.311957359313965,79.5440673828125,109.3292236328125,32.16552734375
0.1637499,9.847352027893066,-7.953537940979004,4.311957359313965,79.5440673828125,109.3292236328125,32.16552734375
0.1662499,8.449137687683105,-8.128314971923828,4.4077253341674805,76.934814453125,105.9417724609375,34.454345703125
0.1687499,8.449137687683105,-8.128314971923828,4.4077253341674805,76.934814453125,105.9417724609375,34.454345703125
0.1712499,7.280767440795898,-6.825869083404541,5.298368453979492,62.255859375,99.884033203125,35.82763671875
0.1737499,7.280767440795898,-6.825869083404541,5.298368453979492,62.255859375,99.884033203125,35.82763671875
0.17624990000000001,7.6566572189331055,-5.145139217376709,5.7772088050842285,43.426513671875,76.507568359375,31.2042236328125
0.1787499,7.6566572189331055,-5.145139217376709,5.7772088050842285,43.426513671875,76.507568359375,31.2042236328125
0.1812499,9.734824180603027,-4.2760443687438965,5.260061264038086,33.9508056640625,74.9359130859375,32.77587890625
0.1837499,9.734824180603027,-4.2760443687438965,5.260061264038086,33.9508056640625,74.9359130859375,32.77587890625
0.1862499,11.061211585998535,-3.84269380569458,4.685452938079834,22.7203369140625,61.1419677734375,27.4810791015625
0.1887499,11.061211585998535,-3.84269380569458,4.685452938079834,22.7203369140625,61.1419677734375,27.4810791015625
0.1912499,10.211270332336426,-3.6822822093963623,4.8482584953308105,7.843017578125,53.314208984375,23.040771484375
0.1937499,10.211270332336426,-3.6822822093963623,4.8482584953308105,7.843017578125,53.314208984375,23.040771484375
0.1962499,7.785943984985352,-3.974374771118164,5.032611846923828,-6.072998046875,48.7823486328125,21.3165283203125
0.1987499,7.785943984985352,-3.974374771118164,5.032611846923828,-6.072998046875,48.7823486328125,21.3165283203125
0.2012499,5.272032260894775,-4.448426723480225,5.1116204261779785,-16.4794921875,42.388916015625,21.514892578125
0.2037499,5.272032260894775,-4.448426723480225,5.1116204261779785,-16.4794921875,42.388916015625,21.514892578125
0.2062499,3.663128614425659,-4.807557106018066,5.200206279754639,-27.3590087890625,39.4287109375,20.0042724609375
0.20874990000000002,3.663128614425659,-4.807557106018066,5.200206279754639,-27.3590087890625,39.4287109375,20.0042724609375
0.2112499,2.5546131134033203,-5.094861030578613,5.374982833862305,-32.7301025390625,36.56005859375,20.2484130859375
0.2137499,2.5546131134033203,-5.094861030578613,5.374982833862305,-32.7301025390625,36.56005859375,20.2484130859375
0.2162499,1.3862427473068237,-5.295974254608154,5.394136428833008,-37.2467041015625,31.2652587890625,19.6533203125
0.2187499,1.3862427473068237,-5.295974254608154,5.394136428833008,-37.2467041015625,31.2652587890625,19.6533203125
0.2212499,0.6344634294509888,-5.432443618774414,5.114014625549316,-42.083740234375,25.543212890625,19.256591796875
0.2237499,0.6344634294509888,-5.432443618774414,5.114014625549316,-42.083740234375,25.543212890625,19.256591796875
0.2262499,0.646434485912323,-5.657498836517334,4.764461517333984,-45.257568359375,20.416259765625,17.9595947265625
0.2287499,0.646434485912323,-5.657498836517334,4.764461517333984,-45.257568359375,20.416259765625,17.9595947265625
0.2312499,1.1875240802764893,-5.935225963592529,4.3861775398254395,-49.1485595703125,16.9830322265625,16.1285400390625
0.2337499,1.1875240802764893,-5.935225963592529,4.3861775398254395,-49.1485595703125,16.9830322265625,16.1285400390625
0.2362499,2.0829553604125977,-6.160281181335449,4.043806552886963,-51.8951416015625,13.00048828125,14.58740234375
0.23874990000000001,2.0829553604125977,-6.160281181335449,4.043806552886963,-51.8951416015625,13.00048828125,14.58740234375
0.2412499,3.0142998695373535,-6.449979305267334,3.9001545906066895,-54.2755126953125,11.444091796875,13.1378173828125
0.2437499,3.3063924312591553,-6.641515731811523,3.9049429893493652,-54.26025390625,11.0626220703125,12.6953125
0.2462499,3.464409828186035,-6.88332986831665,3.9839515686035156,-54.87060546875,10.4522705078125,12.542724609375
0.2487499,3.466804027557373,-7.158663272857666,4.046200752258301,-56.2896728515625,9.70458984375,11.6424560546875
0.2512499,3.399766445159912,-7.544129371643066,4.129997730255127,-57.098388671875,10.0860595703125,11.04736328125
0.25374990000000003,3.3423056602478027,-8.01339340209961,4.151545524597168,-56.2591552734375,10.3912353515625,10.6964111328125
0.25624990000000003,3.3470940589904785,-8.564059257507324,4.168305397033691,-53.1463623046875,10.3912353515625,10.284423828125
0.25874990000000003,3.4308910369873047,-9.160215377807617,4.1611223220825195,-49.31640625,10.8642578125,10.101318359375
0.26124990000000003,3.529053211212158,-9.708487510681152,4.185064792633057,-44.7235107421875,12.1002197265625,9.6435546875
0.26374990000000004,3.6607344150543213,-10.14902114868164,4.24970817565918,-39.6728515625,12.725830078125,9.7503662109375
0.26624990000000004,3.7684733867645264,-10.448296546936035,4.355052947998047,-35.919189453125,12.969970703125,10.528564453125
0.26874990000000004,3.8331170082092285,-10.556035041809082,4.505887508392334,-31.1737060546875,14.6026611328125,10.9710693359375
0.27124990000000004,3.8714241981506348,-10.553641319274902,4.6950297355651855,-27.374267578125,16.5252685546875,11.3677978515625
0.27374990000000005,3.840299606323242,-10.450690269470215,4.898536682128906,-24.5819091796875,17.5933837890625,11.6424560546875
0.27624990000000005,3.7684733867645264,-10.314221382141113,5.106832027435303,-20.9197998046875,19.0277099609375,11.7645263671875
0.27874990000000005,3.6727054119110107,-10.168174743652344,5.298368453979492,-17.5628662109375,20.69091796875,11.65771484375
0.28124990000000005,3.584120035171509,-10.036493301391602,5.475539207458496,-14.6026611328125,22.369384765625,11.3677978515625
0.28374990000000005,3.488351821899414,-9.914389610290527,5.647922039031982,-11.8255615234375,23.4527587890625,11.322021484375
0.28624990000000006,3.40216064453125,-9.818621635437012,5.849034786224365,-9.246826171875,23.712158203125,11.9171142578125
0.28874990000000006,3.313575267791748,-9.68694019317627,6.069301128387451,-5.4931640625,23.9105224609375,12.1612548828125
0.2912499,3.2082302570343018,-9.497797966003418,6.315904140472412,-2.99072265625,24.35302734375,12.481689453125
0.2937499,3.117250680923462,-9.215282440185547,6.576871871948242,-2.0294189453125,25.054931640625,12.5274658203125
0.2962499,3.0406360626220703,-8.827422142028809,6.842628479003906,-2.0751953125,25.0701904296875,12.420654296875
0.2987499,3.004723072052002,-8.370129585266113,7.115567684173584,-2.62451171875,24.749755859375,12.176513671875
0.3012499,2.9664158821105957,-7.893682956695557,7.386112213134766,-3.7078857421875,25.32958984375,12.20703125
0.3037499,2.9281086921691895,-7.445967197418213,7.6566572189331055,-6.16455078125,26.336669921875,11.566162109375
0.3062499,2.829946517944336,-7.079654216766357,7.884106159210205,-8.7738037109375,26.031494140625,11.1846923828125
0.3087499,2.671929121017456,-6.801927089691162,8.056488990783691,-11.2762451171875,25.9246826171875,10.6964111328125
0.3112499,2.454056739807129,-6.6127848625183105,8.147468566894531,-13.763427734375,25.848388671875,10.1470947265625
0.3137499,2.164358377456665,-6.50025749206543,8.149862289428711,-16.6778564453125,25.8026123046875,9.5367431640625
0.31624990000000003,1.8315643072128296,-6.445190906524658,8.11634349822998,-19.5465087890625,25.665283203125,9.09423828125
0.31874990000000003,1.4724340438842773,-6.447585105895996,8.051700592041016,-21.881103515625,24.0325927734375,8.30078125
0.32124990000000003,1.1635819673538208,-6.507440090179443,7.977479934692383,-24.1241455078125,22.1405029296875,7.476806640625
0.32374990000000003,0.993593692779541,-6.562506675720215,7.8960771560668945,-25.08544921875,20.3094482421875,6.1492919921875
0.32624990000000004,0.9241618514060974,-6.598419666290283,7.817068576812744,-25.9246826171875,18.98193359375,4.82177734375
0.32874990000000004,0.933738648891449,-6.598419666290283,7.778761386871338,-27.6641845703125,17.974853515625,3.7689208984375
0.33124990000000004,0.9457096457481384,-6.607996463775635,7.783549785614014,-30.364990234375,15.93017578125,3.326416015625
0.33374990000000004,0.9672574996948242,-6.627150535583496,7.826645374298096,-31.7230224609375,13.8092041015625,2.4871826171875
0.33624990000000005,0.993593692779541,-6.675034523010254,7.881711959838867,-32.4859619140625,12.4664306640625,1.251220703125
0.33874990000000005,1.0821791887283325,-6.720524311065674,7.953537940979004,-34.515380859375,11.7645263671875,0.48828125
0.34124990000000005,1.2090718746185303,-6.751648902893066,8.039729118347168,-36.9720458984375,10.55908203125,0.2288818359375
0.34374990000000005,1.3527239561080933,-6.7277069091796875,8.11634349822998,-38.9251708984375,9.5977783203125,-0.335693359375
0.34624990000000005,1.4987702369689941,-6.737283706665039,8.159439086914062,-41.748046875,8.4991455078125,-0.8697509765625
0.34874990000000006,1.6376339197158813,-6.761225700378418,8.092401504516602,-44.342041015625,8.3770751953125,-1.312255859375
0.35124990000000006,1.7836803197860718,-6.823474884033203,7.936778545379639,-46.4019775390625,8.4075927734375,-1.9683837890625
0.3537499,1.900996208190918,-6.931213855743408,7.69735860824585,-47.7752685546875,6.8817138671875,-2.593994140625
0.3562499,2.054224967956543,-7.060500621795654,7.429207801818848,-49.1180419921875,5.7525634765625,-3.1280517578125
0.3587499,2.1715409755706787,-7.189787864685059,7.158663272857666,-50.6134033203125,4.852294921875,-3.47900390625
0.3612499,2.2697031497955322,-7.374141216278076,6.921637058258057,-52.8411865234375,5.1116943359375,-4.0740966796875
0.3637499,2.3702597618103027,-7.592013359069824,6.701370716094971,-53.6041259765625,4.364013671875,-4.547119140625
0.3662499,2.4372973442077637,-7.872135162353516,6.517016887664795,-53.497314453125,3.1890869140625,-4.9896240234375
0.3687499,2.5761611461639404,-8.214506149291992,6.356605529785156,-53.497314453125,3.0364990234375,-5.4168701171875
0.3712499,2.7557260990142822,-8.53293514251709,6.2392897605896,-52.3834228515625,3.265380859375,-5.9661865234375
0.3737499,2.9161376953125,-8.853757858276367,6.1530985832214355,-50.3082275390625,3.8299560546875,-6.2713623046875
0.3762499,3.045424461364746,-9.124302864074707,6.100425720214844,-48.4619140625,4.5318603515625,-6.4544677734375
0.37874990000000003,3.064578056335449,-9.346963882446289,6.042964935302734,-46.9207763671875,5.8441162109375,-6.8511962890625
0.38124990000000003,3.047818660736084,-9.557653427124023,5.949591159820557,-44.8150634765625,6.805419921875,-6.6070556640625
0.38374990000000003,3.0119056701660156,-9.75637149810791,5.837063789367676,-41.748046875,7.1563720703125,-6.2713623046875
0.38624990000000003,2.9903578758239746,-9.914389610290527,5.705382823944092,-36.6363525390625,8.5906982421875,-6.2408447265625
0.38874990000000004,2.9879636764526367,-10.02691650390625,5.57370138168335,-31.7840576171875,9.674072265625,-6.744384765625
0.39124990000000004,2.9735984802246094,-10.0580415725708,5.456385612487793,-27.83203125,10.467529296875,-7.01904296875
0.39374990000000004,2.96162748336792,-10.019734382629395,5.348646640777588,-23.7579345703125,11.566162109375,-7.4462890625
0.39624990000000004,2.9281086921691895,-9.923966407775879,5.243301868438721,-19.775390625,13.1683349609375,-8.544921875
0.39874990000000005,2.8203697204589844,-9.782708168029785,5.142745018005371,-15.7012939453125,14.617919921875,-9.552001953125
0.40124990000000005,2.561795711517334,-9.550470352172852,5.061342239379883,-12.2528076171875,16.4947509765625,-9.979248046875
0.40374990000000005,2.161964178085327,-9.248801231384277,5.020640850067139,-10.4827880859375,17.6544189453125,-10.43701171875
0.40624990000000005,1.6855180263519287,-8.956708908081055,5.006275653839111,-9.94873046875,16.693115234375,-10.406494140625
0.40874990000000005,1.3192051649093628,-8.707711219787598,5.0014872550964355,-7.568359375,15.4876708984375,-10.3607177734375
0.41124990000000006,1.1300631761550903,-8.530540466308594,4.999093055725098,-3.448486328125,15.5181884765625,-11.3372802734375
0.41374990000000006,1.1516109704971313,-8.365341186523438,4.99669885635376,-0.6866455078125,16.4642333984375,-12.725830078125
0.41624990000000006,1.3503297567367554,-8.130708694458008,5.027823448181152,-0.1220703125,16.2200927734375,-13.1378173828125
0.4187499,1.656787633895874,-7.759607791900635,5.116408824920654,-0.335693359375,15.3961181640625,-13.916015625
0.4212499,1.9991583824157715,-7.3023152351379395,5.238513469696045,0.152587890625,14.1143798828125,-14.7857666015625
0.4237499,2.3582887649536133,-6.818686485290527,5.377377033233643,-1.3885498046875,14.3280029296875,-15.045166015625
0.4262499,2.63362193107605,-6.349422931671143,5.509057998657227,-4.852294921875,14.46533203125,-15.68603515625
0.4287499,2.7988216876983643,-5.978321552276611,5.633556365966797,-7.9193115234375,13.5955810546875,-16.3421630859375
0.4312499,2.853888511657715,-5.7341132164001465,5.750872611999512,-10.894775390625,13.9617919921875,-17.27294921875
0.4337499,2.806004285812378,-5.612008571624756,5.872976779937744,-13.946533203125,14.7705078125,-18.6920166015625
0.4362499,2.650381326675415,-5.638344764709473,6.01423454284668,-16.6168212890625,14.9383544921875,-19.6075439453125
0.4387499,2.434903144836426,-5.767632007598877,6.174646377563477,-19.073486328125,14.7857666015625,-19.8516845703125
0.44124990000000003,2.207453966140747,-5.96874475479126,6.3733649253845215,-20.8282470703125,14.09912109375,-21.0113525390625
0.44374990000000003,2.0039467811584473,-6.210559368133545,6.560112476348877,-22.15576171875,12.75634765625,-21.91162109375
0.44624990000000003,1.900996208190918,-6.44279670715332,6.732495307922363,-23.2696533203125,11.7340087890625,-22.3846435546875
0.44874990000000003,1.8794482946395874,-6.6630635261535645,6.8378400802612305,-24.6734619140625,10.4827880859375,-22.94921875
0.45124990000000004,1.9273324012756348,-6.8378400802612305,6.9024834632873535,-26.3671875,9.7808837890625,-23.0865478515625
0.45374990000000004,2.013523578643799,-6.98628044128418,6.933608055114746,-28.3966064453125,9.2315673828125,-23.773193359375
0.45624990000000004,2.0614075660705566,-7.115567684173584,6.959944248199463,-30.3802490234375,8.2550048828125,-23.86474609375
0.45874990000000004,2.0805611610412598,-7.259219646453857,6.995857238769531,-32.28759765625,7.4920654296875,-22.8729248046875
0.46124990000000005,2.0638017654418945,-7.429207801818848,7.043741226196289,-34.1033935546875,5.9356689453125,-22.491455078125
0.46374990000000005,2.0805611610412598,-7.632715225219727,7.06528902053833,-35.064697265625,4.8828125,-22.39990234375
0.46624990000000005,2.1284453868865967,-7.8314337730407715,7.0557122230529785,-36.0260009765625,4.425048828125,-21.6217041015625
0.46874990000000005,2.2146365642547607,-8.010998725891113,7.000645637512207,-37.2772216796875,4.45556640625,-20.751953125
0.47124990000000005,2.2864625453948975,-8.152256965637207,6.936002254486084,-38.26904296875,4.4403076171875,-20.477294921875
0.47374990000000006,2.3319525718688965,-8.29590892791748,6.888118267059326,-39.6270751953125,4.33349609375,-19.71435546875
0.47624990000000006,2.3798365592956543,-8.44195556640625,6.8809356689453125,-40.069580078125,3.84521484375,-19.073486328125
0.47874990000000006,2.4444799423217773,-8.595184326171875,6.9024834632873535,-39.4134521484375,3.814697265625,-18.73779296875
0.4812499,2.5546131134033203,-8.78193187713623,6.919242858886719,-39.36767578125,3.5858154296875,-17.8680419921875
0.4837499,2.7030537128448486,-8.959102630615234,6.909666061401367,-38.970947265625,3.662109375,-17.0745849609375
0.4862499,2.8586769104003906,-9.157821655273438,6.852205276489258,-38.299560546875,3.23486328125,-16.4794921875
0.4887499,2.9927520751953125,-9.349357604980469,6.768408298492432,-37.109375,3.4027099609375,-15.899658203125
0.4912499,3.066972494125366,-9.514557838439941,6.682217121124268,-34.9578857421875,3.9520263671875,-15.289306640625
0.4937499,3.045424461364746,-9.634267807006836,6.598419666290283,-33.1268310546875,3.570556640625,-14.0228271484375
0.4962499,2.9448680877685547,-9.6989107131958,6.509834289550781,-31.6619873046875,3.72314453125,-13.427734375
0.4987499,2.806004285812378,-9.713275909423828,6.402095317840576,-30.1971435546875,3.9825439453125,-13.092041015625
0.5012499,2.6886885166168213,-9.672574996948242,6.22731876373291,-28.6407470703125,3.5247802734375,-12.542724609375
0.5037499000000001,2.628833532333374,-9.591172218322754,6.01423454284668,-27.28271484375,3.7078857421875,-11.871337890625
0.5062499,2.5905263423919678,-9.469067573547363,5.772420406341553,-26.2451171875,4.3792724609375,-11.3677978515625
0.5087499000000001,2.537853717803955,-9.32541561126709,5.559336185455322,-25.8941650390625,5.18798828125,-10.772705078125
0.5112499,2.4396915435791016,-9.188945770263672,5.413290023803711,-25.3448486328125,5.035400390625,-10.0860595703125
0.5137499,2.322375535964966,-9.016563415527344,5.324704647064209,-24.444580078125,4.2266845703125,-9.4146728515625
0.5162499,2.2601263523101807,-8.834604263305664,5.2672438621521,-24.383544921875,3.662109375,-8.9263916015625
0.5187499,2.2649147510528564,-8.60236644744873,5.193023681640625,-25.3753662109375,4.0740966796875,-8.8958740234375
0.5212499,2.3535003662109375,-8.360552787780762,5.0876784324646,-26.3214111328125,5.0506591796875,-8.48388671875
0.5237499,2.4396915435791016,-8.147468566894531,4.944026470184326,-27.1148681640625,5.615234375,-8.11767578125
0.5262499,2.4803929328918457,-7.967903137207031,4.778826713562012,-28.0303955078125,7.049560546875,-8.392333984375
0.5287499,2.4229321479797363,-7.860164165496826,4.599261283874512,-29.5562744140625,7.4615478515625,-8.60595703125
0.5312499,2.300827741622925,-7.771578788757324,4.412513732910156,-30.517578125,7.50732421875,-8.8653564453125
0.5337499,2.1715409755706787,-7.692570209503174,4.247313976287842,-31.1431884765625,6.5765380859375,-9.1705322265625
0.5362499000000001,2.0614075660705566,-7.553706169128418,4.144362926483154,-32.2723388671875,5.7220458984375,-9.6893310546875
0.5387499,2.0183119773864746,-7.352593421936035,4.134786128997803,-34.0728759765625,5.31005859375,-10.3302001953125
0.5412499000000001,1.9919757843017578,-7.067683219909668,4.235342979431152,-36.3311767578125,4.5318603515625,-10.8184814453125
0.5437499,1.9728221893310547,-6.744466304779053,4.398148536682129,-39.36767578125,3.570556640625,-11.5814208984375
0.5462499000000001,1.9273324012756348,-6.421248912811279,4.570530891418457,-42.5567626953125,1.9989013671875,-12.7105712890625
0.5487499,1.8579005002975464,-6.14831018447876,4.67827033996582,-45.928955078125,1.0986328125,-13.6260986328125
0.5512499000000001,1.7501614093780518,-6.01423454284668,4.704606533050537,-49.9420166015625,0.6866455078125,-14.3280029296875
0.5537499,1.647210717201233,-5.992686748504639,4.671087741851807,-53.619384765625,-0.1220703125,-15.0909423828125
0.5562499000000001,1.5514427423477173,-6.086060523986816,4.606443881988525,-56.243896484375,-1.6632080078125,-15.13671875
0.5587499,1.482010841369629,-6.229712963104248,4.592078685760498,-59.661865234375,-2.0294189453125,-15.0146484375
0.5612499000000001,1.4197616577148438,-6.3302693367004395,4.654327869415283,-63.53759765625,-2.3956298828125,-15.289306640625
0.5637499,1.3311761617660522,-6.332663536071777,4.81473970413208,-67.1844482421875,-3.936767578125,-15.289306640625
0.5662499000000001,1.192312479019165,-6.212953567504883,5.061342239379883,-71.8841552734375,-5.8135986328125,-14.95361328125
0.5687499,1.0103530883789062,-5.963956356048584,5.3342814445495605,-77.7740478515625,-7.6751708984375,-14.9383544921875
0.5712499000000001,0.7996633648872375,-5.623979568481445,5.57370138168335,-84.47265625,-9.3994140625,-15.5181884765625
0.5737499,0.5889736413955688,-5.240907669067383,5.75326681137085,-92.0562744140625,-11.5966796875,-16.0980224609375
0.5762499000000001,0.4118026793003082,-4.829104900360107,5.868188381195068,-100.4791259765625,-13.9617919921875,-16.4031982421875
0.5787499,0.363918662071228,-4.426878929138184,5.858611583709717,-108.6883544921875,-16.4337158203125,-16.9830322265625
0.5812499,0.4620809257030487,-4.003105163574219,5.681440830230713,-116.4398193359375,-16.90673828125,-18.6004638671875
0.5837499,0.5889736413955688,-3.6607344150543213,5.363011837005615,-125.3509521484375,-15.289306640625,-22.52197265625
0.5862499,0.5770025849342346,-3.4739866256713867,5.023035049438477,-137.63427734375,-14.190673828125,-26.947021484375
0.5887499,0.304063618183136,-3.5410242080688477,4.841075897216797,-150.8941650390625,-16.8609619140625,-28.50341796875
0.5912499,-0.1388636976480484,-3.84269380569458,4.927267074584961,-163.0096435546875,-23.0712890625,-27.130126953125
0.5937499,-0.45250412821769714,-4.244919776916504,5.228936672210693,-175.35400390625,-28.3966064453125,-25.115966796875
0.5962499,-0.395043283700943,-4.527435302734375,5.542576789855957,-189.178466796875,-30.6854248046875,-23.3917236328125
0.5987499000000001,0.07900865375995636,-4.553771495819092,5.746084213256836,-203.6895751953125,-29.96826171875,-22.5982666015625
0.6012499,0.768538773059845,-4.285621166229248,5.784391403198242,-218.44482421875,-28.1219482421875,-22.216796875
0.6037499000000001,1.4077905416488647,-3.840299606323242,5.700594425201416,-232.9254150390625,-27.2979736328125,-22.64404296875
0.6062499,1.7908629179000854,-3.3518824577331543,5.56173038482666,-246.64306640625,-27.8472900390625,-24.017333984375
0.6087499000000001,1.8914192914962769,-2.9879636764526367,5.396530628204346,-260.2691650390625,-29.1290283203125,-26.214599609375
0.6112499,1.7956513166427612,-2.875436305999756,5.195417881011963,-274.0936279296875,-30.5328369140625,-28.533935546875
0.6137499000000001,1.6855180263519287,-3.0837318897247314,4.941632270812988,-286.7584228515625,-32.012939453125,-30.1971435546875
0.6162499,1.8100165128707886,-3.6104562282562256,4.575319290161133,-297.607421875,-33.69140625,-31.402587890625
0.6187499000000001,1.9800047874450684,-4.220977783203125,4.113238334655762,-307.1441650390625,-33.9813232421875,-33.538818359375
0.6212499,2.027888774871826,-4.853046894073486,3.758896589279175,-317.5811767578125,-29.8614501953125,-36.68212890625
0.6237499000000001,1.824381709098816,-5.473145008087158,3.5458126068115234,-329.89501953125,-28.9306640625,-32.562255859375
0.6262499,1.4269442558288574,-5.978321552276611,3.5673606395721436,-338.5467529296875,-32.2723388671875,-31.585693359375
0.6287499000000001,1.216254472732544,-6.473921298980713,3.711012601852417,-345.489501953125,-34.5458984375,-34.72900390625
0.6312499,1.4413094520568848,-6.919242858886719,3.751713991165161,-353.973388671875,-34.8358154296875,-33.1573486328125
0.6337499000000001,2.070984363555908,-7.0557122230529785,3.6080620288848877,-359.771728515625,-32.4554443359375,-31.6009521484375
0.6362499,2.8371291160583496,-6.677428722381592,3.272873640060425,-364.8681640625,-28.6712646484375,-34.4696044921875
0.6387499000000001,3.3901896476745605,-5.810727596282959,2.80361008644104,-377.8076171875,-26.5655517578125,-36.712646484375
0.6412499,3.533841609954834,-4.551377296447754,2.2577321529388428,-397.796630859375,-25.0244140625,-35.064697265625
0.6437499,3.313575267791748,-3.2106244564056396,1.6759412288665771,-418.0145263671875,-22.8118896484375,-35.9344482421875
0.6462499,2.9089550971984863,-2.2625205516815186,1.0271124839782715,-437.5152587890625,-22.796630859375,-39.0777587890625
0.6487499,2.449268341064453,-1.941697597503662,0.3734954595565796,-457.1685791015625,-23.6358642578125,-41.473388671875
0.6512499,2.0805611610412598,-2.3271639347076416,-0.23942017555236816,-471.8017578125,-22.5372314453125,-43.548583984375
0.6537499,1.702277421951294,-3.2561142444610596,-0.6799532771110535,-480.560302734375,-21.5606689453125,-44.4183349609375
0.6562499,1.2186486721038818,-4.1156325340271,-0.8379706144332886,-485.6719970703125,-19.500732421875,-49.37744140625
0.6587499,0.8355764150619507,-4.28322696685791,-0.6727706789970398,-494.659423828125,-18.5394287109375,-56.854248046875
0.6612499000000001,0.7374141216278076,-3.49314022064209,-0.3447650372982025,-500,-21.8963623046875,-58.9752197265625
0.6637499,1.1755530834197998,-1.680729627609253,-0.040701430290937424,-500,-23.7579345703125,-60.11962890625
0.6662499000000001,2.1571757793426514,0.35673606395721436,-0.0454898327589035,-500,-22.5372314453125,-64.02587890625
0.6687499,3.5194764137268066,1.9081788063049316,-0.4596867263317108,-500,-19.500732421875,-66.8182373046875
0.6712499000000001,4.831499099731445,2.31758713722229,-1.3838485479354858,-500,-13.702392578125,-68.90869140625
0.6737499,5.762843608856201,1.4508862495422363,-2.693476915359497,-500,-7.293701171875,-72.6776123046875
0.6762499000000001,6.162675380706787,-0.5817909836769104,-4.228160381317139,-500,-4.150390625,-76.11083984375
0.6787499,6.076483726501465,-3.2369606494903564,-5.803544998168945,-500,-0.91552734375,-76.446533203125
0.6812499000000001,5.714959621429443,-5.935225963592529,-7.19936466217041,-500,1.983642578125,-76.0345458984375
0.6837499,5.3342814445495605,-8.276755332946777,-8.307879447937012,-500,5.3863525390625,-76.873779296875
0.6862499000000001,5.013458251953125,-10.06043529510498,-9.126696586608887,-500,8.3770751953125,-78.2623291015625
0.6887499,4.797980308532715,-11.408370971679688,-9.684545516967773,-500,9.2010498046875,-79.559326171875
0.6912499000000001,4.632780075073242,-12.586318016052246,-10.038887977600098,-500,9.765625,-81.3140869140625
0.6937499,4.532223701477051,-13.836091995239258,-10.273519515991211,-500,10.6964111328125,-83.6639404296875
0.6962499000000001,4.716577529907227,-16.804901123046875,-10.445901870727539,-500,13.763427734375,-83.3282470703125
0.6987499,4.716577529907227,-16.804901123046875,-10.445901870727539,-500,13.763427734375,-83.3282470703125
0.7012499000000001,5.609614372253418,-20.377050399780273,-10.20648193359375,-500,22.186279296875,-76.8280029296875
0.7037499,5.609614372253418,-20.377050399780273,-10.20648193359375,-500,22.186279296875,-76.8280029296875
0.7062499,6.418854713439941,-24.892515182495117,-9.454702377319336,-438.3544921875,33.2794189453125,-68.939208984375
0.7087499,6.418854713439941,-24.892515182495117,-9.454702377319336,-438.3544921875,33.2794189453125,-68.939208984375
0.7112499,6.3973069190979,-30.178913116455078,-8.372523307800293,-340.6219482421875,39.215087890625,-55.328369140625
0.7137499,6.3973069190979,-30.178913116455078,-8.372523307800293,-340.6219482421875,39.215087890625,-55.328369140625
0.7162499,5.872976779937744,-34.672828674316406,-7.2783732414245605,-220.3216552734375,45.440673828125,-38.9862060546875
0.7187499,5.872976779937744,-34.672828674316406,-7.2783732414245605,-220.3216552734375,45.440673828125,-38.9862060546875
0.7212499,5.166687488555908,-36.645652770996094,-6.4595561027526855,-93.3990478515625,50.3082275390625,-22.735595703125
0.7237499000000001,5.166687488555908,-36.645652770996094,-6.4595561027526855,-93.3990478515625,50.3082275390625,-22.735595703125
0.7262499,4.537012100219727,-36.15483856201172,-6.162675380706787,34.088134765625,54.6112060546875,-9.8724365234375
0.7287499000000001,4.537012100219727,-36.15483856201172,-6.162675380706787,34.088134765625,54.6112060546875,-9.8724365234375
0.7312499,4.359841346740723,-34.75183868408203,-6.572083473205566,162.2314453125,61.9049072265625,0.946044921875
0.7337499000000001,4.359841346740723,-34.75183868408203,-6.572083473205566,162.2314453125,61.9049072265625,0.946044921875
0.7362499,4.580107688903809,-33.672054290771484,-7.666234016418457,290.71044921875,71.533203125,8.97216796875
0.7387499000000001,4.580107688903809,-33.672054290771484,-7.666234016418457,290.71044921875,71.533203125,8.97216796875
0.7412499,4.757278919219971,-32.664093017578125,-9.14585018157959,413.177490234375,80.1849365234375,16.0064697265625
0.7437499000000001,4.757278919219971,-32.664093017578125,-9.14585018157959,413.177490234375,80.1849365234375,16.0064697265625
0.7462499,4.776432514190674,-30.940269470214844,-10.723628997802734,499.9847412109375,88.56201171875,21.148681640625
0.7487499000000001,4.776432514190674,-30.940269470214844,-10.723628997802734,499.9847412109375,88.56201171875,21.148681640625
0.7512499,4.692635536193848,-28.299463272094727,-12.277466773986816,499.9847412109375,96.5728759765625,23.4832763671875
0.7537499000000001,4.692635536193848,-28.299463272094727,-12.277466773986816,499.9847412109375,96.5728759765625,23.4832763671875
0.7562499,4.388571739196777,-24.84941864013672,-13.723564147949219,499.9847412109375,101.531982421875,22.430419921875
0.7587499000000001,4.388571739196777,-24.84941864013672,-13.723564147949219,499.9847412109375,101.531982421875,22.430419921875
0.7612499,4.036623954772949,-20.78406524658203,-14.810531616210938,499.9847412109375,107.757568359375,19.22607421875
0.7637499000000001,4.036623954772949,-20.78406524658203,-14.810531616210938,499.9847412109375,107.757568359375,19.22607421875
0.7662499,3.691859006881714,-16.71392250061035,-15.320496559143066,499.9847412109375,111.6485595703125,13.73291015625
0.7687499000000001,3.691859006881714,-16.71392250061035,-15.320496559143066,499.9847412109375,111.6485595703125,13.73291015625
0.7712499,3.2154128551483154,-13.136984825134277,-15.219940185546875,499.9847412109375,113.4185791015625,6.500244140625
0.7737499,3.2154128551483154,-13.136984825134277,-15.219940185546875,499.9847412109375,113.4185791015625,6.500244140625
0.7762499,2.734178304672241,-9.962273597717285,-14.597447395324707,499.9847412109375,114.6697998046875,-2.50244140625
0.7787499,2.734178304672241,-9.962273597717285,-14.597447395324707,499.9847412109375,114.6697998046875,-2.50244140625
0.7812499,2.279279947280884,-6.900089263916016,-13.476961135864258,499.9847412109375,114.9444580078125,-12.20703125
0.7837499,2.279279947280884,-6.900089263916016,-13.476961135864258,499.9847412109375,114.9444580078125,-12.20703125
0.7862499000000001,1.7046716213226318,-3.2776620388031006,-11.8225679397583,499.9847412109375,112.3809814453125,-25.726318359375
0.7887499,1.7046716213226318,-3.2776620388031006,-11.8225679397583,499.9847412109375,112.3809814453125,-25.726318359375
0.7912499000000001,1.0055646896362305,1.1899182796478271,-9.342175483703613,499.9847412109375,108.09326171875,-39.2913818359375
0.7937499,1.0055646896362305,1.1899182796478271,-9.342175483703613,499.9847412109375,108.09326171875,-39.2913818359375
0.7962499000000001,0.5961562395095825,4.836287498474121,-6.052541732788086,499.9847412109375,101.0284423828125,-49.6673583984375
0.7987499,0.5961562395095825,4.836287498474121,-6.052541732788086,499.9847412109375,101.0284423828125,-49.6673583984375
0.8012499000000001,0.6607996821403503,7.053318023681641,-2.674323320388794,499.9847412109375,95.5810546875,-64.056396484375
0.8037499,0.6607996821403503,7.053318023681641,-2.674323320388794,499.9847412109375,95.5810546875,-64.056396484375
0.8062499000000001,0.6153098344802856,9.172186851501465,0.35673606395721436,499.9847412109375,88.3941650390625,-76.4312744140625
0.8087499,0.45250412821769714,10.338163375854492,1.702277421951294,499.9847412109375,83.3892822265625,-81.3446044921875
0.8112499000000001,0.3016694188117981,11.511322021484375,2.913743495941162,499.9847412109375,78.6895751953125,-85.7086181640625
0.8137499,0.20350714027881622,12.708422660827637,3.936067581176758,499.9847412109375,74.676513671875,-90.3167724609375
0.8162499000000001,0.14844051003456116,13.895946502685547,4.7405195236206055,496.9024658203125,71.3043212890625,-94.8486328125
0.8187499,0.08858546614646912,15.071499824523926,5.353435039520264,440.2618408203125,67.3675537109375,-98.114013671875
0.8212499000000001,-0.023942016065120697,16.225505828857422,5.7772088050842285,379.3182373046875,62.164306640625,-100.006103515625
0.8237499,-0.14844051003456116,17.271770477294922,6.078877925872803,315.7958984375,55.5267333984375,-101.226806640625
0.8262499000000001,-0.21547815203666687,18.183961868286133,6.268020153045654,251.6021728515625,48.797607421875,-102.3406982421875
0.8287499,-0.15083470940589905,18.923770904541016,6.356605529785156,186.5386962890625,43.3502197265625,-103.0426025390625
0.8312499000000001,0.08379705995321274,19.44331169128418,6.344634532928467,119.598388671875,38.87939453125,-102.5238037109375
0.8337499,0.4118026793003082,19.75934600830078,6.208165168762207,52.06298828125,35.09521484375,-101.8524169921875
0.8362499,0.7493851184844971,19.840749740600586,5.963956356048584,-14.1143798828125,31.8756103515625,-101.104736328125
0.8387499,1.0342950820922852,19.713857650756836,5.600037574768066,-79.7882080078125,28.045654296875,-98.9227294921875
0.8412499,1.2545616626739502,19.426551818847656,5.085284233093262,-143.8751220703125,23.223876953125,-95.977783203125
0.8437499,1.4508862495422363,19.007566452026367,4.424484729766846,-206.6497802734375,19.22607421875,-93.414306640625
0.8462499,1.6711528301239014,18.52633285522461,3.603273630142212,-266.8609619140625,16.2200927734375,-91.644287109375
0.8487499000000001,1.9273324012756348,17.990032196044922,2.655169725418091,-325.225830078125,13.916015625,-90.423583984375
0.8512499,2.2361843585968018,17.336414337158203,1.6160861253738403,-382.7362060546875,11.5509033203125,-88.92822265625
0.8537499000000001,2.5450363159179688,16.448165893554688,0.5554547905921936,-438.232421875,10.07080078125,-87.3260498046875
0.8562499,2.827552318572998,15.198391914367676,-0.45010992884635925,-488.8458251953125,9.368896484375,-86.029052734375
0.8587499000000001,3.047818660736084,13.505691528320312,-1.3503297567367554,-500,8.2244873046875,-84.8541259765625
0.8612499,3.1747114658355713,11.398794174194336,-2.099714994430542,-500,7.3089599609375,-83.1298828125
0.8637499000000001,3.2178070545196533,9.01895809173584,-2.7102363109588623,-500,6.1187744140625,-81.2835693359375
0.8662499,3.227383852005005,6.5265936851501465,-3.201047658920288,-500,4.9591064453125,-79.7576904296875
0.8687499000000001,3.251325845718384,4.055777549743652,-3.5865142345428467,-500,3.5247802734375,-78.704833984375
0.8712499,3.3446998596191406,1.6687586307525635,-3.883395195007324,-500,2.44140625,-77.7435302734375
0.8737499000000001,3.5242648124694824,-0.5961562395095825,-4.086902141571045,-500,1.5716552734375,-77.3162841796875
0.8762499,3.8163576126098633,-2.7557260990142822,-4.2090067863464355,-500,1.2969970703125,-76.629638671875
0.8787499000000001,4.19224739074707,-4.766855716705322,-4.256890773773193,-500,1.46484375,-76.2481689453125
0.8812499,4.632780075073242,-6.603208065032959,-4.211400985717773,-500,1.861572265625,-76.1260986328125
0.8837499000000001,5.1116204261779785,-8.291120529174805,-4.122815132141113,-500,3.6468505859375,-75.7598876953125
0.8862499,5.461174011230469,-10.065223693847656,-3.9695863723754883,-500,6.4544677734375,-75.3021240234375
0.8887499000000001,5.714959621429443,-12.018892288208008,-3.7684733867645264,-500,7.354736328125,-75.9735107421875
0.8912499,5.815515995025635,-14.384364128112793,-3.5266590118408203,-500,8.087158203125,-75.836181640625
0.8937499000000001,5.8442463874816895,-17.19515609741211,-3.2297780513763428,-500,9.1705322265625,-73.8677978515625
0.8962499,5.889736175537109,-20.41057014465332,-2.8658595085144043,-500,10.92529296875,-69.854736328125
0.8987499,5.978321552276611,-23.963563919067383,-2.43011474609375,-500,12.4664306640625,-65.12451171875
0.9012499,6.0836663246154785,-27.724855422973633,-1.8770540952682495,-478.6224365234375,13.5345458984375,-59.0057373046875
0.9037499,6.186617374420166,-31.490934371948242,-1.2114660739898682,-421.905517578125,14.312744140625,-50.7354736328125
0.9062499,6.268020153045654,-34.99843978881836,-0.4572925269603729,-358.6883544921875,15.167236328125,-41.2139892578125
0.9087499,6.342240333557129,-38.000770568847656,0.3064578175544739,-290.8172607421875,16.0064697265625,-30.6549072265625
0.9112499000000001,6.414066314697266,-40.244136810302734,0.9983820915222168,-220.184326171875,17.486572265625,-20.1873779296875
0.9137499,6.469132900238037,-41.60643768310547,1.53707754611969,-148.2086181640625,19.34814453125,-9.70458984375
0.9162499000000001,6.509834289550781,-42.068519592285156,1.8818424940109253,-77.4993896484375,21.54541015625,0.946044921875
0.9187499,6.528987884521484,-41.7117805480957,2.0207061767578125,-8.4686279296875,23.6358642578125,10.7879638671875
0.9212499000000001,6.5481414794921875,-40.71818923950195,1.9823989868164062,59.6923828125,26.397705078125,19.6380615234375
0.9237499,6.57926607131958,-39.284061431884766,1.778891921043396,125.67138671875,29.937744140625,27.191162109375
0.9262499000000001,6.603208065032959,-37.576995849609375,1.41257905960083,188.7664794921875,33.294677734375,34.0576171875
0.9287499,6.603208065032959,-35.70473098754883,0.9026140570640564,250.0762939453125,36.8804931640625,39.794921875
0.9312499000000001,6.5265936851501465,-33.72711944580078,0.23942017555236816,308.4869384765625,40.1763916015625,44.6014404296875
0.9337499,6.358999729156494,-31.629798889160156,-0.5267243981361389,363.739013671875,42.7093505859375,48.2177734375
0.9362499000000001,6.133944988250732,-29.417556762695312,-1.3503297567367554,414.8712158203125,45.10498046875,50.7354736328125
0.9387499,5.853823184967041,-27.109546661376953,-2.2002713680267334,461.12060546875,47.6226806640625,52.0782470703125
0.9412499000000001,5.5545477867126465,-24.741680145263672,-3.0142998695373535,499.9847412109375,49.2706298828125,52.5970458984375
0.9437499,5.25527286529541,-22.35944938659668,-3.77565598487854,499.9847412109375,50.1861572265625,52.06298828125
0.9462499000000001,4.965574264526367,-19.98679542541504,-4.4508209228515625,499.9847412109375,50.4608154296875,50.72021484375
0.9487499,4.692635536193848,-17.659631729125977,-5.015852451324463,499.9847412109375,50.994873046875,49.0875244140625
0.9512499000000001,4.383783340454102,-15.46414852142334,-5.451597213745117,499.9847412109375,50.933837890625,47.027587890625
0.9537499,4.0078935623168945,-13.060370445251465,-5.7341132164001465,499.9847412109375,48.4161376953125,43.2891845703125
0.9562499000000001,3.6296098232269287,-10.338163375854492,-5.762843608856201,499.9847412109375,46.2799072265625,35.980224609375
0.9587499,3.268085241317749,-7.474697589874268,-5.504269599914551,499.9847412109375,46.0052490234375,29.510498046875
0.9612499,2.9927520751953125,-4.620809078216553,-4.927267074584961,499.9847412109375,45.196533203125,26.0772705078125
0.9637499,2.8107926845550537,-2.2170307636260986,-4.062960147857666,499.9847412109375,43.3502197265625,22.918701171875
0.9662499,2.719813108444214,-0.37828385829925537,-3.002328872680664,499.9847412109375,41.1529541015625,18.6004638671875
0.9687499,2.7078421115875244,1.161187767982483,-1.8291701078414917,499.9847412109375,40.069580078125,12.8631591796875
0.9712499,2.7724854946136475,2.6815059185028076,-0.5554547905921936,499.9847412109375,39.8406982421875,6.072998046875
0.9737499000000001,2.873042106628418,4.333505153656006,0.7733271718025208,499.9847412109375,38.9404296875,-0.5950927734375
0.9762499,2.9496564865112305,6.1052141189575195,2.1308395862579346,499.9847412109375,37.689208984375,-6.866455078125
0.9787499000000001,2.964021682739258,7.915230751037598,3.471592426300049,499.9847412109375,36.31591796875,-13.0157470703125
0.9812499,2.964021682739258,9.648633003234863,4.714183330535889,499.9847412109375,35.2325439453125,-19.04296875
0.9837499000000001,3.002328872680664,11.221623420715332,5.781997203826904,491.8365478515625,34.8052978515625,-25.20751953125
0.9862499,3.1076738834381104,12.593501091003418,6.617573261260986,451.11083984375,35.4766845703125,-30.609130859375
0.9887499000000001,3.2178070545196533,13.831303596496582,7.187393665313721,405.6243896484375,36.5142822265625,-35.5682373046875
0.9912499,3.2537200450897217,14.980520248413086,7.568071365356445,355.8197021484375,36.376953125,-39.520263671875
0.9937499000000001,3.0861260890960693,16.129735946655273,7.817068576812744,300.5523681640625,34.7137451171875,-42.5262451171875
0.9962499,2.6886885166168213,17.24543571472168,8.027758598327637,240.5242919921875,30.7769775390625,-44.5556640625
0.9987499000000001,2.145204782485962,18.262969970703125,8.219294548034668,174.7283935546875,24.810791015625,-45.3948974609375
1.0012499,1.6041151285171509,19.09375762939453,8.394071578979492,107.3150634765625,17.4560546875,-45.867919921875
1.0037498999999999,1.192312479019165,19.74737548828125,8.470685958862305,41.046142578125,10.3759765625,-47.088623046875
1.0062499,1.070208191871643,20.199880599975586,8.391676902770996,-26.7333984375,3.753662109375,-46.4630126953125
1.0087499,1.2090718746185303,20.460847854614258,8.10437297821045,-98.44970703125,-0.9613037109375,-45.2117919921875
1.0112499,1.5825673341751099,20.48239517211914,7.5968017578125,-168.5333251953125,-4.08935546875,-44.37255859375
1.0137498999999999,2.078166961669922,20.2333984375,6.8809356689453125,-234.9395751953125,-6.28662109375,-43.670654296875
1.0162499,2.5905263423919678,19.795259475708008,5.96874475479126,-297.8515625,-8.48388671875,-41.9921875
1.0187499,3.026270866394043,19.302053451538086,4.853046894073486,-359.527587890625,-10.2996826171875,-40.6951904296875
1.0212499,3.3686418533325195,18.851943969726562,3.531447410583496,-422.7752685546875,-11.932373046875,-39.8406982421875
1.0237498999999999,3.624821424484253,18.437747955322266,2.0398597717285156,-485.3363037109375,-12.7410888671875,-38.8641357421875
1.0262498999999998,3.825934410095215,17.956512451171875,0.4596867263317108,-500,-13.3514404296875,-37.8875732421875
1.0287499,4.005499362945557,17.264589309692383,-1.1420341730117798,-500,-13.1378173828125,-37.41455078125
1.0312499,4.151545524597168,16.256629943847656,-2.715024709701538,-500,-11.7645263671875,-37.811279296875
1.0337498999999999,4.23773717880249,14.877569198608398,-4.235342979431152,-500,-9.9639892578125,-38.57421875
1.0362498999999998,4.240131378173828,13.120224952697754,-5.686229228973389,-500,-8.544921875,-39.7796630859375
1.0387499,4.156333923339844,11.008539199829102,-7.043741226196289,-500,-6.500244140625,-42.022705078125
1.0412499,4.0078935623168945,8.552088737487793,-8.236053466796875,-500,-4.5623779296875,-44.5404052734375
1.0437499,3.825934410095215,5.8203043937683105,-9.222464561462402,-500,-3.2196044921875,-47.30224609375
1.0462498999999998,3.670311212539673,2.868253707885742,-9.967061996459961,-500,-3.3111572265625,-49.9267578125
1.0487499,3.598485231399536,-0.17956513166427612,-10.47702693939209,-500,-4.8370361328125,-51.6815185546875
1.0512499,3.6846764087677,-3.1675288677215576,-10.778696060180664,-500,-6.9122314453125,-53.1463623046875
1.0537499,3.9432501792907715,-5.978321552276611,-10.915165901184082,-500,-9.185791015625,-54.6112060546875
1.0562498999999999,4.383783340454102,-8.56884765625,-10.927136421203613,-500,-10.9405517578125,-56.2744140625
1.0587499,4.963180065155029,-11.010933876037598,-10.896012306213379,-500,-10.650634765625,-58.65478515625
1.0612499,5.621585369110107,-13.570335388183594,-10.845733642578125,-500,-8.1634521484375,-61.2335205078125
1.0637499,6.3302693367004395,-16.479290008544922,-10.824186325073242,-500,-4.33349609375,-64.14794921875
1.0662498999999999,7.007828235626221,-20.05143928527832,-10.737994194030762,-500,0.1678466796875,-65.7196044921875
1.0687499,7.546523571014404,-24.36818504333496,-10.467450141906738,-500,4.302978515625,-65.4144287109375
1.0712499,7.920019149780273,-29.28587532043457,-9.923966407775879,-500,7.1258544921875,-62.4542236328125
1.0737499,8.092401504516602,-34.486080169677734,-9.01895809173584,-500,8.8653564453125,-56.7779541015625
1.0762498999999999,8.085219383239746,-39.473201751708984,-7.766790390014648,-478.7750244140625,9.8876953125,-49.835205078125
1.0787499,7.948749542236328,-43.81149673461914,-6.210559368133545,-397.6593017578125,10.711669921875,-41.3818359375
1.0812499,7.7428483963012695,-47.16337966918945,-4.460397720336914,-312.2100830078125,10.6048583984375,-31.585693359375
1.0837499,7.503427982330322,-49.39237976074219,-2.6886885166168213,-225.7232666015625,11.0321044921875,-21.484375
1.0862498999999999,7.292738437652588,-50.54159927368164,-1.0989385843276978,-139.190673828125,12.451171875,-10.223388671875
1.0887499,7.141903877258301,-50.80735397338867,0.14844051003456116,-52.398681640625,15.0299072265625,1.4190673828125
1.0912499,7.108384609222412,-50.4218864440918,0.950498104095459,34.271240234375,18.24951171875,13.18359375
1.0937499,7.2137298583984375,-49.5743408203125,1.3120225667953491,119.8883056640625,22.735595703125,24.810791015625
1.0962498999999999,7.453149795532227,-48.37245178222656,1.2713210582733154,203.4759521484375,28.2440185546875,36.3616943359375
1.0987498999999998,7.781155586242676,-46.81382751464844,0.9193734526634216,283.966064453125,34.454345703125,46.905517578125
1.1012499,8.109161376953125,-44.850582122802734,0.31842881441116333,360.3057861328125,40.4052734375,56.33544921875
1.1037499,8.374917984008789,-42.43962097167969,-0.44532153010368347,432.12890625,45.928955078125,64.361572265625
1.1062499,8.528146743774414,-39.56657791137695,-1.314416766166687,498.9471435546875,51.5899658203125,70.3125
1.1087498999999998,8.556877136230469,-36.28173065185547,-2.2242133617401123,499.9847412109375,57.0220947265625,74.3865966796875
1.1112499,8.449137687683105,-32.68803405761719,-3.1244332790374756,499.9847412109375,61.8133544921875,76.6754150390625
1.1137499,8.20732307434082,-28.902803421020508,-3.9839515686035156,499.9847412109375,65.4449462890625,77.484130859375
1.1162499,7.829039573669434,-25.072080612182617,-4.7620673179626465,499.9847412109375,68.42041015625,75.836181640625
1.1187498999999999,7.3669586181640625,-21.32754898071289,-5.43723201751709,499.9847412109375,70.068359375,72.784423828125
1.1212499,6.84981107711792,-17.769765853881836,-5.987898349761963,499.9847412109375,71.197509765625,68.1915283203125
1.1237499,6.335057735443115,-14.470555305480957,-6.327875137329102,499.9847412109375,71.746826171875,63.2171630859375
1.1262499,5.7125654220581055,-11.520898818969727,-6.48828649520874,499.9847412109375,71.197509765625,57.2509765625
1.1287498999999999,5.166687488555908,-8.422801971435547,-6.291962146759033,499.9847412109375,67.19970703125,48.7823486328125
1.1312499,4.663905143737793,-5.348646640777588,-5.861005783081055,499.9847412109375,64.51416015625,37.2161865234375
1.1337499,4.410119533538818,-2.231395959854126,-5.123591423034668,499.9847412109375,64.0716552734375,27.5726318359375
1.1362499,4.398148536682129,0.5147533416748047,-4.177882194519043,499.9847412109375,64.239501953125,19.439697265625
1.1387498999999999,4.568136692047119,2.6001031398773193,-3.0861260890960693,499.9847412109375,63.7054443359375,11.2152099609375
1.1412499,4.812345504760742,3.9671921730041504,-1.9153614044189453,499.9847412109375,63.1561279296875,2.777099609375
1.1437499,4.960785865783691,4.994304656982422,-0.7948749661445618,499.9847412109375,62.6983642578125,-5.035400390625
1.1462499,5.0685248374938965,5.975927352905273,0.2992752194404602,499.9847412109375,61.9354248046875,-13.1378173828125
1.1487498999999999,5.078101634979248,7.187393665313721,1.1635819673538208,499.9847412109375,61.5386962890625,-20.263671875
1.1512499,5.114014625549316,8.741230010986328,1.9800047874450684,499.9847412109375,62.68310546875,-26.85546875
1.1537499,5.070919036865234,10.608707427978516,2.650381326675415,499.9847412109375,65.3228759765625,-32.9132080078125
1.1562499,4.963180065155029,12.67011547088623,3.3039982318878174,499.9847412109375,66.4825439453125,-38.5284423828125
1.1587498999999999,4.613626480102539,14.877569198608398,3.9240965843200684,446.563720703125,66.1468505859375,-42.6177978515625
1.1612498999999998,3.971980571746826,16.910245895385742,4.462791919708252,378.5858154296875,62.7899169921875,-47.2259521484375
1.1637499,3.1723172664642334,18.567033767700195,4.912901878356934,307.9833984375,56.976318359375,-50.1556396484375
1.1662499,2.3942017555236816,19.68512725830078,5.207388877868652,240.90576171875,51.6815185546875,-51.1932373046875
1.1687499,1.8746598958969116,20.238187789916992,5.197812080383301,172.9583740234375,48.0499267578125,-53.7567138671875
1.1712498999999998,1.5442601442337036,20.420146942138672,4.8267107009887695,102.081298828125,46.630859375,-58.7005615234375
1.1737499,1.3263877630233765,20.432117462158203,4.0964789390563965,29.296875,42.0989990234375,-61.1724853515625
1.1762499,1.0582371950149536,20.41057014465332,3.114856481552124,-43.4722900390625,33.4625244140625,-61.6607666015625
1.1787499,0.7589619159698486,20.362686157226562,2.0829553604125977,-114.501953125,24.169921875,-63.3697509765625
1.1812498999999999,0.6368576288223267,20.197484970092773,1.137245774269104,-182.80029296875,16.29638671875,-65.6890869140625
1.1837499,0.8523358106613159,19.81201934814453,0.33279404044151306,-248.291015625,10.650634765625,-68.0084228515625
1.1862499,1.3982137441635132,19.165584564208984,-0.3447650372982025,-309.26513671875,7.2479248046875,-70.0225830078125
1.1887499,2.1164743900299072,18.16241455078125,-0.9002198576927185,-365.9515380859375,3.96728515625,-72.5860595703125
1.1912498999999999,2.829946517944336,16.76420021057129,-1.3335703611373901,-418.4722900390625,0.54931640625,-75.1800537109375
1.1937499,3.383007049560547,15.026009559631348,-1.6903064250946045,-465.2557373046875,-2.8839111328125,-76.96533203125
1.1962499,3.758896589279175,13.024456977844238,-1.9967641830444336,-500,-6.4849853515625,-78.61328125
1.1987499,4.01268196105957,10.836156845092773,-2.2888567447662354,-500,-9.6893310546875,-80.169677734375
1.2012498999999999,4.230554580688477,8.458714485168457,-2.5929205417633057,-500,-11.5966796875,-82.21435546875
1.2037499,4.477157115936279,5.796362400054932,-2.8778305053710938,-500,-12.0697021484375,-84.8846435546875
1.2062499,4.754884719848633,2.7293899059295654,-3.1292216777801514,-500,-11.0626220703125,-87.0513916015625
1.2087499,5.0254292488098145,-0.7565677165985107,-3.248931646347046,-500,-10.1318359375,-87.8753662109375
1.2112498999999999,5.236119270324707,-4.513070106506348,-3.2752678394317627,-500,-9.7808837890625,-87.3260498046875
1.2137499,5.410895824432373,-8.324639320373535,-3.1076738834381104,-500,-10.162353515625,-85.02197265625
1.2162499,5.595249176025391,-11.975796699523926,-2.8443117141723633,-500,-11.0321044921875,-81.8939208984375
1.2187499,5.851428985595703,-15.387534141540527,-2.4636335372924805,-500,-11.474609375,-78.0792236328125
1.2212498999999999,6.244078159332275,-18.567033767700195,-1.9943699836730957,-500,-11.383056640625,-73.9288330078125
1.2237498999999998,6.7492547035217285,-21.57415199279785,-1.45806884765625,-500,-9.5977783203125,-69.122314453125
1.2262499,7.343016624450684,-24.454376220703125,-0.8523358106613159,-493.1182861328125,-7.26318359375,-63.8275146484375
1.2287499,7.939172744750977,-27.210102081298828,-0.1843535304069519,-448.944091796875,-3.84521484375,-57.7392578125
1.2312499,8.415618896484375,-29.822175979614258,0.5554547905921936,-400.1617431640625,-0.213623046875,-50.0640869140625
1.2337498999999998,8.652645111083984,-32.218772888183594,1.335964560508728,-346.25244140625,2.471923828125,-42.022705078125
1.2362499,8.621520042419434,-34.31130599975586,2.1475989818573,-289.2303466796875,3.2196044921875,-33.5845947265625
1.2387499,8.47547435760498,-36.00640106201172,2.9520506858825684,-229.248046875,4.1656494140625,-24.8565673828125
1.2412499,8.224082946777344,-37.30405807495117,3.6296098232269287,-169.3267822265625,8.2550048828125,-15.5792236328125
1.2437498999999999,8.058882713317871,-38.137237548828125,4.170699596405029,-105.316162109375,12.603759765625,-6.7138671875
1.2462499,7.94635534286499,-38.558616638183594,4.496310710906982,-39.1845703125,17.2882080078125,1.983642578125
1.2487499,7.862558364868164,-38.553829193115234,4.60165548324585,26.4129638671875,22.9034423828125,10.498046875
1.2512499,7.783549785614014,-38.11808395385742,4.491522312164307,90.7440185546875,28.533935546875,18.12744140625
1.2537498999999999,7.68538761138916,-37.2777214050293,4.158728122711182,153.5797119140625,33.50830078125,24.5819091796875
1.2562499,7.544129371643066,-36.04231262207031,3.646369218826294,213.8671875,37.261962890625,30.6396484375
1.2587499,7.357381820678711,-34.44538116455078,2.9688100814819336,270.416259765625,39.9322509765625,36.041259765625
1.2612499,6.998251438140869,-30.411149978637695,1.3766659498214722,370.513916015625,43.7469482421875,43.914794921875
1.2637498999999999,6.998251438140869,-30.411149978637695,1.3766659498214722,370.513916015625,43.7469482421875,43.914794921875
1.2662499,6.8593878746032715,-25.902868270874023,-0.2777273952960968,455.169677734375,48.9959716796875,48.309326171875
1.2687499,6.8593878746032715,-25.902868270874023,-0.2777273952960968,455.169677734375,48.9959716796875,48.309326171875
1.2712499,6.734889507293701,-21.44247055053711,-1.7046716213226318,499.9847412109375,53.558349609375,50.4608154296875
1.2737498999999999,6.734889507293701,-21.44247055053711,-1.7046716213226318,499.9847412109375,53.558349609375,50.4608154296875
1.2762499,6.354211330413818,-17.108964920043945,-2.7437551021575928,499.9847412109375,55.877685546875,50.7049560546875
1.2787499,6.354211330413818,-17.108964920043945,-2.7437551021575928,499.9847412109375,55.877685546875,50.7049560546875
1.2812499,5.813121795654297,-12.935872077941895,-3.354276657104492,499.9847412109375,57.1746826171875,49.3316650390625
1.2837498999999999,5.813121795654297,-12.935872077941895,-3.354276657104492,499.9847412109375,57.1746826171875,49.3316650390625
1.2862498999999998,5.240907669067383,-8.911218643188477,-3.3901896476745605,499.9847412109375,57.6629638671875,47.8057861328125
1.2887499,5.240907669067383,-8.911218643188477,-3.3901896476745605,499.9847412109375,57.6629638671875,47.8057861328125
1.2912499,4.716577529907227,-4.912901878356934,-2.583343744277954,499.9847412109375,55.877685546875,45.501708984375
1.2937499,4.716577529907227,-4.912901878356934,-2.583343744277954,499.9847412109375,55.877685546875,45.501708984375
1.2962498999999998,4.331110954284668,-0.7924807667732239,-1.0127472877502441,499.9847412109375,54.046630859375,41.44287109375
1.2987499,4.331110954284668,-0.7924807667732239,-1.0127472877502441,499.9847412109375,54.046630859375,41.44287109375
1.3012499,4.098873138427734,3.5721490383148193,0.8092401623725891,499.9847412109375,51.3458251953125,35.797119140625
1.3037499,4.098873138427734,3.5721490383148193,0.8092401623725891,499.9847412109375,51.3458251953125,35.797119140625
1.3062498999999999,3.864241600036621,8.008605003356934,2.5785553455352783,489.5172119140625,49.9267578125,27.862548828125
1.3087499,3.864241600036621,8.008605003356934,2.5785553455352783,489.5172119140625,49.9267578125,27.862548828125
1.3112499,3.397372245788574,12.215216636657715,4.436455726623535,413.9404296875,46.1273193359375,18.0206298828125
1.3137499,3.397372245788574,12.215216636657715,4.436455726623535,413.9404296875,46.1273193359375,18.0206298828125
1.3162498999999999,2.6791117191314697,16.062698364257812,6.3063273429870605,320.3277587890625,40.1458740234375,7.26318359375
1.3187499,2.6791117191314697,16.062698364257812,6.3063273429870605,320.3277587890625,40.1458740234375,7.26318359375
1.3212499,1.946485996246338,19.02432632446289,7.929595947265625,209.53369140625,31.280517578125,-2.7923583984375
1.3237499,1.946485996246338,19.02432632446289,7.929595947265625,209.53369140625,31.280517578125,-2.7923583984375
1.3262498999999999,1.5131354331970215,20.851102828979492,9.14585018157959,97.747802734375,22.369384765625,-12.87841796875
1.3287499,1.5131354331970215,20.851102828979492,9.14585018157959,97.747802734375,22.369384765625,-12.87841796875
1.3312499,1.3886369466781616,21.741744995117188,9.435548782348633,-23.5137939453125,13.092041015625,-21.6217041015625
1.3337499,1.3886369466781616,21.741744995117188,9.435548782348633,-23.5137939453125,13.092041015625,-21.6217041015625
1.3362498999999999,1.4389152526855469,21.339519500732422,8.372523307800293,-146.5911865234375,4.1046142578125,-27.2979736328125
1.3387499,1.4389152526855469,21.339519500732422,8.372523307800293,-146.5911865234375,4.1046142578125,-27.2979736328125
1.3412499,1.6831238269805908,19.589357376098633,6.222530364990234,-258.6517333984375,-2.5634765625,-32.012939453125
1.3437499,1.6831238269805908,19.589357376098633,6.222530364990234,-258.6517333984375,-2.5634765625,-32.012939453125
1.3462498999999999,1.9129672050476074,17.345991134643555,3.5865142345428467,-360.137939453125,-7.720947265625,-36.376953125
1.3487498999999998,1.9129672050476074,17.345991134643555,3.5865142345428467,-360.137939453125,-7.720947265625,-36.376953125
1.3512499,1.9369091987609863,15.308526039123535,0.912190854549408,-455.474853515625,-13.7786865234375,-38.604736328125
1.3537499,1.9369091987609863,15.308526039123535,0.912190854549408,-455.474853515625,-13.7786865234375,-38.604736328125
1.3562499,1.9704279899597168,13.177685737609863,-1.6759412288665771,-500,-19.6075439453125,-42.0379638671875
1.3587498999999998,1.9704279899597168,13.177685737609863,-1.6759412288665771,-500,-19.6075439453125,-42.0379638671875
1.3612499,2.1595699787139893,9.93354320526123,-4.062960147857666,-500,-24.4598388671875,-47.698974609375
1.3637499,2.248155355453491,7.577648162841797,-5.035006046295166,-500,-27.2216796875,-50.5828857421875
1.3662499,2.3032219409942627,4.764461517333984,-5.765237808227539,-500,-30.9906005859375,-52.764892578125
1.3687498999999999,2.3032219409942627,4.764461517333984,-5.765237808227539,-500,-30.9906005859375,-52.764892578125
1.3712499,2.4396915435791016,-1.601720929145813,-6.358999729156494,-500,-38.3758544921875,-54.1839599609375
1.3737499,2.6384103298187256,-4.7836151123046875,-6.265625953674316,-500,-41.2445068359375,-54.2449951171875
1.3762499,2.964021682739258,-7.864952564239502,-5.944802761077881,-500,-43.3502197265625,-53.89404296875
1.3787498999999999,3.423708438873291,-10.826580047607422,-5.48272180557251,-500,-44.1131591796875,-52.8717041015625
1.3812499,3.9647979736328125,-13.819332122802734,-4.819528102874756,-500,-43.6553955078125,-51.4373779296875
1.3837499,4.5394062995910645,-16.802507400512695,-4.005499362945557,-500,-42.755126953125,-49.652099609375
1.3862499,5.0900726318359375,-19.81680679321289,-3.026270866394043,-500,-41.5191650390625,-46.7987060546875
1.3887498999999999,5.592854976654053,-22.77843475341797,-1.9369091987609863,-500,-40.008544921875,-43.182373046875
1.3912499,6.023811340332031,-25.59162139892578,-0.7876923680305481,-500,-38.4368896484375,-38.6505126953125
1.3937499,6.375759124755859,-28.182147979736328,0.3663128614425659,-468.658447265625,-36.7279052734375,-33.7677001953125
1.3962499,6.694188117980957,-30.49494743347168,1.5490485429763794,-419.4793701171875,-34.7900390625,-28.411865234375
1.3987498999999999,6.98628044128418,-32.50368118286133,2.715024709701538,-366.668701171875,-31.585693359375,-22.369384765625
1.4012499,7.230489253997803,-34.19877624511719,3.8594532012939453,-311.09619140625,-27.2979736328125,-15.655517578125
1.4037499,7.386112213134766,-35.5323486328125,4.9152960777282715,-250.9765625,-23.468017578125,-9.0179443359375
1.4062499,7.412448406219482,-36.4182014465332,5.841852188110352,-189.1937255859375,-20.8740234375,-2.349853515625
1.4087498999999999,7.503427982330322,-36.82042694091797,6.646304130554199,-127.2125244140625,-17.303466796875,3.7994384765625
1.4112498999999998,7.661445617675781,-36.82761001586914,7.242460250854492,-68.450927734375,-9.307861328125,10.284423828125
1.4137499,7.982268333435059,-36.43975067138672,7.623138427734375,-5.5999755859375,-0.457763671875,16.0675048828125
1.4162499,8.317456245422363,-35.76219177246094,7.728483200073242,57.2967529296875,8.697509765625,20.56884765625
1.4187499,8.520963668823242,-34.79014587402344,7.532158374786377,114.9139404296875,16.3421630859375,24.7344970703125
1.4212498999999998,8.530540466308594,-33.499671936035156,7.074865818023682,169.097900390625,22.88818359375,27.9998779296875
1.4237499,8.40843677520752,-31.9410457611084,6.404489517211914,220.4742431640625,29.3731689453125,30.3192138671875
1.4262499,8.2312650680542,-30.210037231445312,5.564124584197998,268.157958984375,35.614013671875,32.012939453125
1.4287499,8.044517517089844,-28.38326072692871,4.618414878845215,311.767578125,41.1376953125,33.38623046875
1.4312498999999999,7.869740962982178,-26.532543182373047,3.6320040225982666,352.1270751953125,46.8902587890625,34.1339111328125
1.4337499,7.702147006988525,-24.689008712768555,2.652775526046753,389.129638671875,52.642822265625,34.4696044921875
1.4362499,7.5632829666137695,-22.881385803222656,1.7334020137786865,422.119140625,57.220458984375,34.85107421875
1.4387499,7.407660007476807,-21.097705841064453,0.8978256583213806,450.439453125,62.0574951171875,34.9578857421875
1.4412498999999999,7.196970462799072,-19.32599639892578,0.12210428714752197,473.8311767578125,65.948486328125,34.881591796875
1.4437499,6.976703643798828,-17.3603572845459,-0.545877993106842,493.3929443359375,68.7713623046875,33.538818359375
1.4462499,6.715735912322998,-15.334861755371094,-1.1300631761550903,499.9847412109375,71.71630859375,31.4483642578125
1.4487499,6.512228488922119,-13.316550254821777,-1.5442601442337036,499.9847412109375,75.01220703125,30.57861328125
1.4512498999999999,6.382941722869873,-11.477803230285645,-1.7836803197860718,499.9847412109375,78.338623046875,30.792236328125
1.4537499,6.311115741729736,-9.938331604003906,-1.8507179021835327,499.9847412109375,81.35986328125,30.7769775390625
1.4562499,6.2392897605896,-8.559270858764648,-1.7812861204147339,499.9847412109375,84.3963623046875,30.426025390625
1.4587499,6.110002517700195,-7.139509677886963,-1.6208745241165161,499.9847412109375,87.432861328125,29.083251953125
1.4612498999999999,5.868188381195068,-5.535394191741943,-1.3958195447921753,499.176025390625,89.508056640625,27.64892578125
1.4637499,5.494692802429199,-3.734954595565796,-1.0893617868423462,485.4888916015625,90.179443359375,26.611328125
1.4662499,5.0014872550964355,-1.8052281141281128,-0.6847416758537292,468.6737060546875,89.7674560546875,24.8260498046875
1.4687499,4.469974517822266,0.18914192914962769,-0.19871874153614044,449.15771484375,88.0279541015625,22.4456787109375
1.4712498999999999,3.9408559799194336,2.1547815799713135,0.33758243918418884,425.689697265625,86.212158203125,19.1192626953125
1.4737498999999998,3.485957622528076,4.000710964202881,0.8906430602073669,397.979736328125,84.3048095703125,15.6097412109375
1.4762499,3.1052796840667725,5.688623428344727,1.4269442558288574,369.2169189453125,82.1685791015625,11.474609375
1.4787499,2.7916390895843506,7.187393665313721,1.9345149993896484,338.68408203125,79.6356201171875,7.0953369140625
1.4812499,2.513911724090576,8.513781547546387,2.410961151123047,305.0079345703125,76.507568359375,2.44140625
1.4837498999999998,2.2649147510528564,9.66299819946289,2.827552318572998,268.829345703125,72.7081298828125,-2.532958984375
1.4862499,2.056619167327881,10.60391902923584,3.1938650608062744,230.438232421875,69.0765380859375,-7.6904296875
1.4887499,1.886630892753601,11.274295806884766,3.5051112174987793,191.0552978515625,65.4449462890625,-12.969970703125
1.4912499,1.7741034030914307,11.628637313842773,3.780444383621216,151.9012451171875,61.82861328125,-17.5933837890625
1.4937498999999999,1.699883222579956,11.674127578735352,4.017470359802246,113.250732421875,58.2427978515625,-21.91162109375
1.4962499,1.6615760326385498,11.45146656036377,4.23773717880249,74.3865966796875,54.8095703125,-25.634765625
1.4987499,1.6400281190872192,11.010933876037598,4.426878929138184,36.2548828125,50.994873046875,-28.656005859375
1.5012499,1.656787633895874,10.376470565795898,4.606443881988525,-0.3204345703125,47.0428466796875,-31.005859375
1.5037498999999999,1.699883222579956,9.564835548400879,4.76924991607666,-35.491943359375,43.1976318359375,-33.1268310546875
1.5062499,1.7980455160140991,8.552088737487793,4.912901878356934,-68.3135986328125,39.6881103515625,-34.454345703125
1.5087499,1.9369091987609863,7.357381820678711,5.04218864440918,-97.71728515625,36.7431640625,-35.2783203125
1.5112499,2.1140801906585693,6.0190229415893555,5.140350818634033,-123.9013671875,34.271240234375,-36.0565185546875
1.5137498999999999,2.3558945655822754,4.568136692047119,5.262455463409424,-146.8658447265625,32.1502685546875,-35.7818603515625
1.5162499,2.5713725090026855,3.0621838569641113,5.34625244140625,-166.9921875,31.097412109375,-35.15625
1.5187499,2.7724854946136475,1.5825673341751099,5.442020416259766,-183.8531494140625,29.35791015625,-34.7137451171875
1.5212499,2.8658595085144043,0.11971008777618408,5.48272180557251,-198.2574462890625,26.9622802734375,-34.4085693359375
1.5237498999999999,2.9017724990844727,-1.2497732639312744,5.504269599914551,-210.1898193359375,24.2156982421875,-33.99658203125
1.5262499,2.8874073028564453,-2.6839001178741455,5.485116004943848,-219.8638916015625,22.4151611328125,-33.2489013671875
1.5287499,2.9017724990844727,-4.24970817565918,5.4659624099731445,-224.8077392578125,20.81298828125,-31.8603515625
1.5312499,3.0358476638793945,-5.985504150390625,5.473145008087158,-222.412109375,19.6533203125,-29.96826171875
1.5337498999999999,3.2585084438323975,-7.8314337730407715,5.509057998657227,-216.7816162109375,20.477294921875,-27.7862548828125
1.5362499,3.557783842086792,-9.619902610778809,5.590460777282715,-209.442138671875,22.39990234375,-25.726318359375
1.5387499,3.8355112075805664,-11.231200218200684,5.705382823944092,-199.432373046875,23.834228515625,-23.0712890625
1.5412499,3.995922565460205,-12.650961875915527,5.834669589996338,-186.920166015625,24.017333984375,-20.2484130859375
1.5437499,4.015076160430908,-13.919888496398926,5.96874475479126,-171.966552734375,23.7884521484375,-16.754150390625
1.5462498999999998,3.931279182434082,-15.095441818237305,6.1052141189575195,-154.5257568359375,23.2086181640625,-13.031005859375
1.5487499,3.8067808151245117,-16.182409286499023,6.234501361846924,-134.4757080078125,23.101806640625,-8.97216796875
1.5512499,3.732560396194458,-17.1376953125,6.387730121612549,-112.0147705078125,22.6898193359375,-4.82177734375
1.5537499,3.732560396194458,-17.92299461364746,6.53377628326416,-88.37890625,22.979736328125,-0.7476806640625
1.5562498999999999,3.801992416381836,-18.46647834777832,6.691793918609619,-64.02587890625,23.651123046875,3.41796875
1.5587499,3.936067581176758,-18.693927764892578,6.845022678375244,-39.0472412109375,23.9105224609375,7.232666015625
1.5612499,4.106055736541748,-18.571823120117188,6.988674640655518,-14.8773193359375,24.84130859375,11.2762451171875
1.5637499,4.335899353027344,-18.11213493347168,7.146692276000977,7.1563720703125,26.824951171875,14.739990234375
1.5662498999999999,4.594472885131836,-17.43218231201172,7.319074630737305,28.13720703125,29.8004150390625,18.0816650390625
1.5687499,4.838681697845459,-16.65167236328125,7.50582218170166,50.079345703125,33.02001953125,21.5911865234375
1.5712499,5.0014872550964355,-15.854403495788574,7.663839817047119,72.1588134765625,35.980224609375,24.8260498046875
1.5737499,5.020640850067139,-15.06910514831543,7.778761386871338,90.8355712890625,38.7115478515625,27.0538330078125
1.5762498999999999,4.867412090301514,-14.2431058883667,7.807491779327393,106.3232421875,40.6951904296875,28.74755859375
1.5787499,4.594472885131836,-13.352462768554688,7.759607791900635,120.4681396484375,41.5496826171875,30.09033203125
1.5812499,4.256890773773193,-12.411541938781738,7.6782050132751465,132.293701171875,41.839599609375,31.585693359375
1.5837499,3.9480385780334473,-11.434707641601562,7.592013359069824,143.310546875,42.1905517578125,33.0047607421875
1.5862498999999999,3.7445313930511475,-10.457873344421387,7.51779317855835,152.6641845703125,42.9229736328125,33.782958984375
1.5887499,3.648763418197632,-9.509769439697266,7.46033239364624,159.515380859375,43.701171875,34.2864990234375
1.5912499,3.622427225112915,-8.609549522399902,7.417236804962158,163.63525390625,44.708251953125,34.66796875
1.5937499,3.600879430770874,-7.771578788757324,7.378929615020752,166.19873046875,45.4864501953125,35.4156494140625
1.5962498999999999,3.536235809326172,-7.026981830596924,7.383718013763428,166.93115234375,45.8984375,35.9649658203125
1.5987499,3.423708438873291,-6.36378812789917,7.41484260559082,165.58837890625,45.4864501953125,36.1785888671875
1.6012499,3.287238836288452,-5.7772088050842285,7.467514991760254,163.543701171875,44.769287109375,36.9720458984375
1.6037499,3.224989652633667,-5.2265424728393555,7.4986395835876465,159.576416015625,43.701171875,37.4755859375
1.6062499,3.2130186557769775,-4.656722068786621,7.496245384216309,154.9835205078125,43.243408203125,37.4603271484375
1.6087498999999998,3.272873640060425,-4.072536945343018,7.469909191131592,148.25439453125,43.731689453125,37.933349609375
1.6112499,3.3255462646484375,-3.4763808250427246,7.433996200561523,139.6026611328125,43.3502197265625,37.872314453125
1.6137499,3.332728862762451,-2.8993782997131348,7.400477409362793,130.43212890625,42.3736572265625,37.445068359375
1.6162499,3.2824504375457764,-2.389413356781006,7.376535415649414,120.513916015625,41.44287109375,37.506103515625
1.6187498999999999,3.19865345954895,-1.944091796875,7.3454108238220215,109.375,40.496826171875,37.4603271484375
1.6212499,3.1196448802948,-1.5658079385757446,7.307103633880615,97.503662109375,39.703369140625,37.1856689453125
1.6237499,3.023876667022705,-1.280897855758667,7.285555839538574,84.716796875,39.73388671875,36.4227294921875
1.6262499,2.9472622871398926,-1.0630255937576294,7.273584842681885,72.8607177734375,38.75732421875,35.858154296875
1.6287498999999999,2.8634653091430664,-0.9050082564353943,7.261613845825195,61.2335205078125,37.7044677734375,35.3546142578125
1.6312499,2.801215887069702,-0.7781155705451965,7.247248649597168,48.5687255859375,36.7889404296875,34.5306396484375
1.6337499,2.7557260990142822,-0.6655880808830261,7.206547260284424,35.003662109375,35.5987548828125,33.7371826171875
1.6362499,2.7030537128448486,-0.5913678407669067,7.144298076629639,21.4385986328125,34.5458984375,32.7911376953125
1.6387498999999999,2.6408045291900635,-0.5937620401382446,7.062894821166992,7.99560546875,33.355712890625,32.04345703125
1.6412499,2.5498247146606445,-0.7015010714530945,7.005434036254883,-5.2032470703125,31.79931640625,31.646728515625
1.6437499,2.473210334777832,-0.8738836050033569,6.971915245056152,-17.39501953125,29.72412109375,31.341552734375
1.6462499,2.4396915435791016,-1.0749965906143188,6.97430944442749,-28.5186767578125,27.2369384765625,30.914306640625
1.6487498999999999,2.477998733520508,-1.278503656387329,7.003039836883545,-40.1611328125,25.634765625,30.029296875
1.6512499,2.585737943649292,-1.479616641998291,7.0126166343688965,-51.6510009765625,23.98681640625,29.6630859375
1.6537499,2.736572504043579,-1.7046716213226318,6.981492042541504,-61.431884765625,23.1781005859375,29.144287109375
1.6562499,2.8850131034851074,-1.9823989868164062,6.890512466430664,-70.6787109375,22.491455078125,28.7628173828125
1.6587498999999999,2.9688100814819336,-2.3582887649536133,6.773196697235107,-80.2764892578125,22.186279296875,28.38134765625
1.6612499,3.002328872680664,-2.7940332889556885,6.641515731811523,-87.921142578125,20.7977294921875,28.1219482421875
1.6637499,2.9759926795959473,-3.292027235031128,6.538564682006836,-94.3145751953125,19.4854736328125,28.4881591796875
1.6662499,2.9281086921691895,-3.799597978591919,6.473921298980713,-100.5401611328125,18.2952880859375,28.7628173828125
1.6687499,2.892195701599121,-4.261679172515869,6.447585105895996,-106.048583984375,17.4560546875,28.8543701171875
1.6712498999999998,2.851494312286377,-4.697423934936523,6.466738700866699,-110.382080078125,16.8914794921875,29.052734375
1.6737499,2.8227639198303223,-5.099649429321289,6.536170482635498,-113.250732421875,15.7012939453125,28.8848876953125
1.6762499,2.806004285812378,-5.489904403686523,6.643909931182861,-114.715576171875,13.9007568359375,28.6407470703125
1.6787499,2.8227639198303223,-5.899312973022461,6.801927089691162,-115.8905029296875,13.0157470703125,28.6865234375
1.6812498999999999,2.873042106628418,-6.327875137329102,6.9695210456848145,-116.39404296875,12.3138427734375,28.656005859375
1.6837499,2.964021682739258,-6.789956092834473,7.127538681030273,-114.8834228515625,11.29150390625,29.052734375
1.6862499,3.0526070594787598,-7.285555839538574,7.264008045196533,-111.8621826171875,10.467529296875,29.4647216796875
1.6887499,3.1292216777801514,-7.781155586242676,7.352593421936035,-108.1695556640625,10.1318359375,29.8004150390625
1.6912498999999999,3.1675288677215576,-8.26239013671875,7.4100542068481445,-104.30908203125,9.2620849609375,30.426025390625
1.6937499,3.1723172664642334,-8.695740699768066,7.441178798675537,-98.9227294921875,8.331298828125,31.219482421875
1.6962499,3.155557870864868,-9.057265281677246,7.46033239364624,-92.7581787109375,7.2479248046875,31.9061279296875
1.6987499,3.1507694721221924,-9.334992408752441,7.467514991760254,-86.7462158203125,6.2255859375,32.3638916015625
1.7012498999999999,3.1651346683502197,-9.514557838439941,7.450755596160889,-80.7342529296875,5.4473876953125,32.65380859375
1.7037499,3.1938650608062744,-9.605537414550781,7.417236804962158,-74.2034912109375,5.096435546875,32.89794921875
1.7062499,3.2297780513763428,-9.627084732055664,7.374141216278076,-66.9708251953125,4.33349609375,33.0657958984375
1.7087499,3.2537200450897217,-9.605537414550781,7.340622425079346,-60.546875,3.35693359375,32.71484375
1.7112498999999999,3.2609026432037354,-9.564835548400879,7.311892032623291,-54.3212890625,2.532958984375,32.470703125
1.7137499,3.2585084438323975,-9.536105155944824,7.297526836395264,-48.126220703125,1.6937255859375,32.1807861328125
1.7162499,3.248931646347046,-9.524134635925293,7.287950038909912,-41.80908203125,1.129150390625,31.9976806640625
1.7187499,3.2369606494903564,-9.528923034667969,7.285555839538574,-35.919189453125,0.48828125,31.3873291015625
1.7212498999999999,3.2345664501190186,-9.531316757202148,7.280767440795898,-30.303955078125,-0.274658203125,31.158447265625
1.7237499,3.227383852005005,-9.50498104095459,7.273584842681885,-24.96337890625,-0.8697509765625,31.1126708984375
1.7262499,3.2345664501190186,-9.445125579833984,7.2568254470825195,-20.263671875,-1.861572265625,31.1737060546875
1.7287499,3.2393548488616943,-9.337387084960938,7.228095054626465,-16.4794921875,-2.716064453125,30.8990478515625
1.7312499,3.2632968425750732,-9.198522567749023,7.184999465942383,-13.1988525390625,-3.509521484375,30.792236328125
1.7337498999999998,3.287238836288452,-9.035717010498047,7.115567684173584,-10.31494140625,-4.1046142578125,30.7159423828125
1.7362499,3.294421434402466,-8.858546257019043,7.0317702293396,-7.843017578125,-4.6234130859375,30.487060546875
1.7387499,3.2752678394317627,-8.65743350982666,6.921637058258057,-5.9356689453125,-5.4473876953125,30.2276611328125
1.7412499,3.1938650608062744,-8.425195693969727,6.813898086547852,-5.2642822265625,-6.6375732421875,29.815673828125
1.7437498999999999,3.0621838569641113,-8.159439086914062,6.7277069091796875,-6.16455078125,-8.3160400390625,30.120849609375
1.7462499,2.911349296569824,-7.86734676361084,6.694188117980957,-7.3394775390625,-10.2691650390625,29.8614501953125
1.7487499,2.782062292098999,-7.556100368499756,6.701370716094971,-8.941650390625,-12.2833251953125,29.6630859375
1.7512499,2.7054479122161865,-7.230489253997803,6.7492547035217285,-11.53564453125,-14.0228271484375,29.388427734375
1.7537498999999999,2.6839001178741455,-6.892906665802002,6.806715488433838,-15.3045654296875,-15.3045654296875,28.778076171875
1.7562499,2.7054479122161865,-6.536170482635498,6.842628479003906,-20.01953125,-16.78466796875,28.4271240234375
1.7587499,2.738966703414917,-6.172252178192139,6.84981107711792,-25.6805419921875,-18.585205078125,28.0609130859375
1.7612499,2.7724854946136475,-5.791574001312256,6.825869083404541,-31.9061279296875,-20.538330078125,27.618408203125
1.7637498999999999,2.7940332889556885,-5.408501625061035,6.789956092834473,-38.848876953125,-22.003173828125,26.79443359375
1.7662499,2.7892448902130127,-5.020640850067139,6.754043102264404,-46.3104248046875,-23.6663818359375,25.5126953125
1.7687499,2.741360902786255,-4.6255974769592285,6.739677906036377,-54.931640625,-25.2838134765625,24.3072509765625
1.7712499,2.6455929279327393,-4.2329487800598145,6.7492547035217285,-64.2852783203125,-26.7181396484375,22.6593017578125
1.7737498999999999,2.5019407272338867,-3.823540210723877,6.782773494720459,-74.3865966796875,-29.022216796875,20.9503173828125
1.7762499,2.3319525718688965,-3.4189200401306152,6.8378400802612305,-86.2274169921875,-31.5704345703125,19.10400390625
1.7787499,2.161964178085327,-3.023876667022705,6.888118267059326,-98.8922119140625,-34.0118408203125,16.937255859375
1.7812499,2.027888774871826,-2.6623523235321045,6.92881965637207,-111.6943359375,-36.590576171875,14.1143798828125
1.7837498999999999,1.941697597503662,-2.360682964324951,6.933608055114746,-125.518798828125,-39.0472412109375,11.6729736328125
1.7862499,1.9129672050476074,-2.1380221843719482,6.8809356689453125,-139.892578125,-41.229248046875,9.2315673828125
1.7887499,1.944091796875,-2.008735179901123,6.763619899749756,-154.4342041015625,-43.3807373046875,6.4239501953125
1.7912499,2.027888774871826,-2.008735179901123,6.572083473205566,-168.88427734375,-45.2880859375,3.7384033203125
1.7937499,2.140416383743286,-2.1571757793426514,6.337451934814453,-182.5408935546875,-46.7987060546875,0.885009765625
1.7962498999999998,2.2625205516815186,-2.4588451385498047,6.112396717071533,-195.4498291015625,-48.095703125,-2.25830078125
1.7987499,2.363077163696289,-2.8993782997131348,5.932831764221191,-207.51953125,-49.6673583984375,-4.7149658203125
1.8012499,2.425326347351074,-3.4189200401306152,5.7987565994262695,-217.7276611328125,-51.20849609375,-7.110595703125
1.8037499,2.454056739807129,-3.957615375518799,5.6910176277160645,-226.5777587890625,-52.91748046875,-9.4757080078125
1.8062498999999999,2.454056739807129,-4.46518611907959,5.571307182312012,-234.893798828125,-54.412841796875,-12.1002197265625
1.8087499,2.4468741416931152,-4.932055473327637,5.427655220031738,-242.431640625,-55.908203125,-14.95361328125
1.8112499,2.4444799423217773,-5.367800235748291,5.264849662780762,-249.053955078125,-57.6934814453125,-17.39501953125
1.8137499,2.4612393379211426,-5.803544998168945,5.0876784324646,-254.974365234375,-59.326171875,-19.7906494140625
1.8162498999999999,2.513911724090576,-6.256049156188965,4.884171485900879,-259.429931640625,-60.60791015625,-22.1099853515625
1.8187499,2.6192567348480225,-6.754043102264404,4.656722068786621,-262.939453125,-61.70654296875,-24.1851806640625
1.8212499,2.7700912952423096,-7.321468830108643,4.393360137939453,-265.5181884765625,-62.01171875,-25.787353515625
1.8237499,2.9544448852539062,-7.975085735321045,4.10366153717041,-266.3726806640625,-62.347412109375,-27.7099609375
1.8262498999999999,3.294421434402466,-9.5408935546875,3.471592426300049,-262.054443359375,-62.8204345703125,-29.47998046875
1.8287499,3.294421434402466,-9.5408935546875,3.471592426300049,-262.054443359375,-62.8204345703125,-29.47998046875
1.8312499,3.3925838470458984,-11.133037567138672,3.023876667022705,-251.8310546875,-64.178466796875,-31.280517578125
1.8337499,3.3925838470458984,-11.133037567138672,3.023876667022705,-251.8310546875,-64.178466796875,-31.280517578125
1.8362498999999999,3.2968156337738037,-12.339715957641602,2.9951462745666504,-238.6322021484375,-66.1163330078125,-31.67724609375
1.8387499,3.2968156337738037,-12.339715957641602,2.9951462745666504,-238.6322021484375,-66.1163330078125,-31.67724609375
1.8412499,3.318363666534424,-13.06515884399414,3.1723172664642334,-222.7020263671875,-66.8182373046875,-31.9366455078125
1.8437499,3.318363666534424,-13.06515884399414,3.1723172664642334,-222.7020263671875,-66.8182373046875,-31.9366455078125
1.8462498999999999,3.514688014984131,-13.419500350952148,3.265691041946411,-203.5980224609375,-67.7490234375,-31.768798828125
1.8487499,3.514688014984131,-13.419500350952148,3.265691041946411,-203.5980224609375,-67.7490234375,-31.768798828125
1.8512499,3.7493197917938232,-13.457807540893555,3.1723172664642334,-183.9752197265625,-66.83349609375,-32.04345703125
1.8537499,3.7493197917938232,-13.457807540893555,3.1723172664642334,-183.9752197265625,-66.83349609375,-32.04345703125
1.8562499,3.936067581176758,-13.443442344665527,2.96162748336792,-165.1153564453125,-65.216064453125,-33.1573486328125
1.8587498999999998,3.936067581176758,-13.443442344665527,2.96162748336792,-165.1153564453125,-65.216064453125,-33.1573486328125
1.8612499,3.9647979736328125,-13.64455509185791,2.8562827110290527,-143.8140869140625,-64.39208984375,-33.2794189453125
1.8637499,3.9647979736328125,-13.64455509185791,2.8562827110290527,-143.8140869140625,-64.39208984375,-33.2794189453125
1.8662499,3.8283286094665527,-13.802573204040527,2.8993782997131348,-122.13134765625,-64.2547607421875,-33.1573486328125
1.8687498999999999,3.8283286094665527,-13.802573204040527,2.8993782997131348,-122.13134765625,-64.2547607421875,-33.1573486328125
1.8712499,3.7229835987091064,-13.685256958007812,2.9089550971984863,-102.4322509765625,-63.8427734375,-33.99658203125
1.8737499,3.7229835987091064,-13.685256958007812,2.9089550971984863,-102.4322509765625,-63.8427734375,-33.99658203125
1.8762499,3.6990416049957275,-13.42668342590332,2.8371291160583496,-83.740234375,-63.629150390625,-34.8052978515625
1.8787498999999999,3.6990416049957275,-13.42668342590332,2.8371291160583496,-83.740234375,-63.629150390625,-34.8052978515625
1.8812499,3.622427225112915,-13.129801750183105,2.7533318996429443,-65.2313232421875,-63.7054443359375,-35.980224609375
1.8837499,3.622427225112915,-13.129801750183105,2.7533318996429443,-65.2313232421875,-63.7054443359375,-35.980224609375
1.8862499,3.5170822143554688,-12.715604782104492,2.7126305103302,-49.591064453125,-65.0482177734375,-36.468505859375
1.8887498999999999,3.5170822143554688,-12.715604782104492,2.7126305103302,-49.591064453125,-65.0482177734375,-36.468505859375
1.8912499,3.5889084339141846,-12.229581832885742,2.6455929279327393,-37.9180908203125,-65.3839111328125,-37.8265380859375
1.8937499,3.5889084339141846,-12.229581832885742,2.6455929279327393,-37.9180908203125,-65.3839111328125,-37.8265380859375
1.8962499,3.801992416381836,-11.884817123413086,2.47560453414917,-27.89306640625,-65.12451171875,-38.7725830078125
1.8987498999999999,3.801992416381836,-11.884817123413086,2.47560453414917,-27.89306640625,-65.12451171875,-38.7725830078125
1.9012499,3.9193081855773926,-11.774683952331543,2.2864625453948975,-18.7225341796875,-64.5599365234375,-39.6575927734375
1.9037499,3.9193081855773926,-11.774683952331543,2.2864625453948975,-18.7225341796875,-64.5599365234375,-39.6575927734375
1.9062499,3.8953661918640137,-11.731588363647461,2.1499931812286377,-9.5977783203125,-64.8956298828125,-39.97802734375
1.9087498999999999,3.8953661918640137,-11.731588363647461,2.1499931812286377,-9.5977783203125,-64.8956298828125,-39.97802734375
1.9112499,3.8546648025512695,-11.63103199005127,2.0685901641845703,-1.8463134765625,-65.460205078125,-40.71044921875
1.9137499,3.8546648025512695,-11.63103199005127,2.0685901641845703,-1.8463134765625,-65.460205078125,-40.71044921875
1.9162499,3.840299606323242,-11.480196952819824,2.073378562927246,4.791259765625,-67.047119140625,-40.3594970703125
1.9187499,3.840299606323242,-11.480196952819824,2.073378562927246,4.791259765625,-67.047119140625,-40.3594970703125
1.9212498999999998,3.8283286094665527,-11.228805541992188,2.1140801906585693,10.2996826171875,-68.0999755859375,-40.5731201171875
1.9237499,3.8283286094665527,-11.228805541992188,2.1140801906585693,10.2996826171875,-68.0999755859375,-40.5731201171875
1.9262499,3.847482204437256,-10.76193618774414,2.123656988143921,14.0380859375,-69.3206787109375,-41.3970947265625
1.9287499,3.847482204437256,-10.76193618774414,2.123656988143921,14.0380859375,-69.3206787109375,-41.3970947265625
1.9312498999999999,3.936067581176758,-10.141838073730469,2.070984363555908,15.8538818359375,-70.25146484375,-42.5567626953125
1.9337499,3.936067581176758,-10.141838073730469,2.070984363555908,15.8538818359375,-70.25146484375,-42.5567626953125
1.9362499,4.027047157287598,-9.627084732055664,1.9536685943603516,15.9149169921875,-70.98388671875,-44.464111328125
1.9387499,4.027047157287598,-9.627084732055664,1.9536685943603516,15.9149169921875,-70.98388671875,-44.464111328125
1.9412498999999999,4.003105163574219,-9.330204010009766,1.8124107122421265,15.411376953125,-72.509765625,-46.234130859375
1.9437499,3.9600095748901367,-9.23682975769043,1.7501614093780518,14.4805908203125,-73.5321044921875,-46.7987060546875
1.9462499,3.93367338180542,-9.160215377807617,1.6950948238372803,13.1378173828125,-74.40185546875,-47.454833984375
1.9487499,3.931279182434082,-9.100360870361328,1.647210717201233,11.810302734375,-75.2716064453125,-48.2177734375
1.9512498999999999,3.9456443786621094,-9.057265281677246,1.6184803247451782,9.9334716796875,-75.927734375,-48.8739013671875
1.9537499,3.971980571746826,-9.028534889221191,1.5945383310317993,8.148193359375,-77.08740234375,-49.3316650390625
1.9562499,3.998316764831543,-9.004592895507812,1.580173134803772,6.134033203125,-78.399658203125,-49.8199462890625
1.9587499,4.017470359802246,-8.983044624328613,1.5682021379470825,3.5552978515625,-79.254150390625,-50.2166748046875
1.9612498999999999,4.041412353515625,-8.959102630615234,1.5538369417190552,0.9918212890625,-80.413818359375,-50.567626953125
1.9637499,4.055777549743652,-8.925583839416504,1.5490485429763794,-1.9378662109375,-81.4971923828125,-50.7354736328125
1.9662499,4.07014274597168,-8.868123054504395,1.5658079385757446,-4.4097900390625,-83.0078125,-51.1627197265625
1.9687499,4.072536945343018,-8.765172004699707,1.5969325304031372,-7.2479248046875,-84.442138671875,-51.4984130859375
1.9712498999999999,4.0749311447143555,-8.604761123657227,1.6615760326385498,-10.55908203125,-85.968017578125,-51.7730712890625
1.9737499,4.079719543457031,-8.391676902770996,1.742978811264038,-13.7786865234375,-87.40234375,-52.4139404296875
1.9762499,4.101267337799072,-8.147468566894531,1.8411411046981812,-17.5933837890625,-88.226318359375,-53.2684326171875
1.9787499,4.1395745277404785,-7.888894557952881,1.9321208000183105,-21.4996337890625,-89.111328125,-54.840087890625
1.9812499,4.197035789489746,-7.644686222076416,1.987187385559082,-25.7568359375,-89.691162109375,-56.6558837890625
1.9837499,4.259284973144531,-7.4316020011901855,1.9943699836730957,-29.7698974609375,-90.1336669921875,-58.685302734375
1.9862499,4.314351558685303,-7.2783732414245605,1.9488801956176758,-33.477783203125,-90.8660888671875,-61.3250732421875
1.9887499,4.355052947998047,-7.201758861541748,1.8818424940109253,-36.8499755859375,-91.61376953125,-63.96484375
1.9912499,4.390965938568115,-7.232883453369141,1.8076223134994507,-40.2679443359375,-91.9342041015625,-66.680908203125
1.9937498999999999,4.424484729766846,-7.383718013763428,1.7405846118927002,-43.243408203125,-92.3309326171875,-69.4427490234375
1.9962499,4.481945514678955,-7.666234016418457,1.6855180263519287,-45.34912109375,-92.8955078125,-72.0062255859375
1.9987499,4.563348293304443,-8.070854187011719,1.6376339197158813,-46.8292236328125,-93.3380126953125,-74.2340087890625
2.0012499,4.683058738708496,-8.564059257507324,1.5945383310317993,-47.119140625,-93.9788818359375,-75.7598876953125
2.0037499,4.812345504760742,-9.11233139038086,1.5610195398330688,-46.6766357421875,-94.1314697265625,-77.7435302734375
2.0062499,4.960785865783691,-9.66299819946289,1.5418659448623657,-44.8150634765625,-94.757080078125,-78.5369873046875
2.0087498999999998,5.094861030578613,-10.177751541137695,1.5275006294250488,-42.2515869140625,-95.4437255859375,-79.2694091796875
2.0112499,5.219359874725342,-10.630255699157715,1.534683346748352,-39.794921875,-95.7183837890625,-79.803466796875
2.0137499,5.324704647064209,-11.008539199829102,1.5490485429763794,-36.9720458984375,-95.794677734375,-79.803466796875
2.0162499,5.430049419403076,-11.317391395568848,1.5753847360610962,-33.4014892578125,-95.703125,-80.0628662109375
2.0187499,5.52821159362793,-11.583148002624512,1.6136919260025024,-29.296875,-95.306396484375,-80.1239013671875
2.0212499,5.623979568481445,-11.817779541015625,1.6519991159439087,-24.871826171875,-95.428466796875,-79.6966552734375
2.0237499,5.710171222686768,-12.018892288208008,1.680729627609253,-19.5159912109375,-95.428466796875,-79.254150390625
2.0262499,5.760449409484863,-12.181697845458984,1.699883222579956,-13.7481689453125,-95.21484375,-78.6285400390625
2.0287498999999998,5.779603004455566,-12.27507209777832,1.7046716213226318,-7.9345703125,-94.8028564453125,-78.216552734375
2.0312499,5.767632007598877,-12.282255172729492,1.6974890232086182,-1.6937255859375,-94.7113037109375,-77.7587890625
2.0337499,5.7341132164001465,-12.198457717895508,1.6855180263519287,4.1351318359375,-94.512939453125,-77.4383544921875
2.0362499,5.6910176277160645,-12.035652160644531,1.6735470294952393,9.5977783203125,-94.1162109375,-77.178955078125
2.0387499,5.647922039031982,-11.820174217224121,1.6663644313812256,15.2130126953125,-93.7957763671875,-77.20947265625
2.0412499,5.635950565338135,-11.568782806396484,1.6855180263519287,20.477294921875,-93.719482421875,-76.934814453125
2.0437499,5.621585369110107,-11.329362869262695,1.7166426181793213,25.4974365234375,-92.8192138671875,-76.934814453125
2.0462499,5.595249176025391,-11.08754825592041,1.766920804977417,29.449462890625,-92.34619140625,-76.934814453125
2.0487499,5.5545477867126465,-10.836156845092773,1.821987509727478,34.6527099609375,-92.803955078125,-77.20947265625
2.0512498999999997,5.501875400543213,-10.56800651550293,1.867477297782898,38.1011962890625,-93.017578125,-77.5909423828125
2.0537499,5.475539207458496,-10.268731117248535,1.9297266006469727,40.3900146484375,-92.9718017578125,-77.972412109375
2.0562499,5.492298603057861,-9.959878921508789,1.9991583824157715,42.8314208984375,-92.254638671875,-78.3843994140625
2.0587499,5.535394191741943,-9.674968719482422,2.0829553604125977,45.0286865234375,-91.73583984375,-79.04052734375
2.0612499,5.5760955810546875,-9.411606788635254,2.166752576828003,46.6156005859375,-91.2933349609375,-79.498291015625
2.0637499,5.604825973510742,-9.157821655273438,2.2385785579681396,47.698974609375,-90.5609130859375,-79.986572265625
2.0662499,5.623979568481445,-8.908824920654297,2.274491548538208,47.821044921875,-89.752197265625,-80.657958984375
2.0687499,5.635950565338135,-8.674192428588867,2.2816741466522217,47.1343994140625,-88.623046875,-81.4208984375
2.0712498999999998,5.65031623840332,-8.47547435760498,2.252943754196167,46.3409423828125,-87.921142578125,-82.2601318359375
2.0737499,5.669469833374023,-8.35097599029541,2.1954829692840576,45.562744140625,-87.5244140625,-83.251953125
2.0762499,5.6910176277160645,-8.317456245422363,2.1380221843719482,44.8760986328125,-86.8377685546875,-83.9996337890625
2.0787499,5.702988624572754,-8.360552787780762,2.0805611610412598,44.219970703125,-85.784912109375,-84.6405029296875
2.0812499,5.693411827087402,-8.470685958862305,2.054224967956543,43.975830078125,-85.5560302734375,-84.89990234375
2.0837499,5.647922039031982,-8.595184326171875,2.0614075660705566,43.1671142578125,-85.479736328125,-85.3118896484375
2.0862499,5.5976433753967285,-8.71489429473877,2.1068975925445557,42.0379638671875,-85.3729248046875,-85.4949951171875
2.0887499,5.5545477867126465,-8.803479194641113,2.1787235736846924,41.2139892578125,-85.26611328125,-85.6170654296875
2.0912498999999998,5.544970989227295,-8.858546257019043,2.255337953567505,40.4815673828125,-84.869384765625,-85.8306884765625
2.0937499,5.571307182312012,-8.875306129455566,2.3319525718688965,39.55078125,-84.2437744140625,-85.9375
2.0962499,5.6191911697387695,-8.83939266204834,2.38462495803833,38.9862060546875,-83.465576171875,-86.3494873046875
2.0987499,5.669469833374023,-8.755595207214355,2.4205379486083984,37.9791259765625,-83.0078125,-86.517333984375
2.1012499,5.714959621429443,-8.619126319885254,2.4205379486083984,36.80419921875,-82.5653076171875,-87.2039794921875
2.1037499,5.74129581451416,-8.451532363891602,2.403778553009033,35.33935546875,-82.2296142578125,-87.646484375
2.1062499,5.758055210113525,-8.286332130432129,2.363077163696289,33.905029296875,-81.60400390625,-88.2720947265625
2.1087499,5.762843608856201,-8.145073890686035,2.319981336593628,31.8603515625,-81.0546875,-89.1571044921875
2.1112499,5.762843608856201,-8.051700592041016,2.2649147510528564,29.8919677734375,-80.7342529296875,-89.7674560546875
2.1137498999999997,5.762843608856201,-8.006210327148438,2.209848165512085,27.9998779296875,-80.1239013671875,-90.301513671875
2.1162499,5.758055210113525,-8.006210327148438,2.1499931812286377,26.06201171875,-79.65087890625,-90.545654296875
2.1187499,5.750872611999512,-8.015787124633789,2.073378562927246,24.10888671875,-79.2694091796875,-90.6982421875
2.1212499,5.743690013885498,-8.027758598327637,1.9967641830444336,22.4761962890625,-78.8116455078125,-91.064453125
2.1237499,5.738901615142822,-8.020575523376465,1.9177556037902832,20.721435546875,-78.643798828125,-91.400146484375
2.1262499,5.74129581451416,-8.008605003356934,1.843535304069519,19.195556640625,-78.2928466796875,-91.6900634765625
2.1287499,5.7341132164001465,-7.994239330291748,1.7908629179000854,17.7001953125,-77.8350830078125,-91.949462890625
2.1312499,5.7125654220581055,-7.987056732177734,1.7621324062347412,16.4642333984375,-77.4078369140625,-92.10205078125
2.1337498999999998,5.679046630859375,-7.982268333435059,1.7597382068634033,15.777587890625,-77.484130859375,-91.888427734375
2.1362499,5.643133640289307,-7.975085735321045,1.766920804977417,15.31982421875,-77.606201171875,-92.0867919921875
2.1387499,5.635950565338135,-7.972691535949707,1.778891921043396,14.8773193359375,-77.2552490234375,-92.193603515625
2.1412499,5.65031623840332,-7.982268333435059,1.7717092037200928,14.617919921875,-76.7364501953125,-92.071533203125
2.1437499,5.6910176277160645,-8.008605003356934,1.7501614093780518,14.7857666015625,-76.7974853515625,-91.888427734375
2.1462499,5.74129581451416,-8.04930591583252,1.7118542194366455,15.3045654296875,-76.66015625,-91.766357421875
2.1487499,5.789179801940918,-8.073247909545898,1.659181833267212,15.68603515625,-76.5380859375,-91.5679931640625
2.1512499,5.829881191253662,-8.078036308288574,1.599326729774475,15.7623291015625,-76.2176513671875,-91.278076171875
2.1537498999999998,5.868188381195068,-8.061277389526367,1.5203180313110352,15.960693359375,-75.897216796875,-90.8660888671875
2.1562499,5.901707172393799,-8.027758598327637,1.4413094520568848,16.4031982421875,-75.6988525390625,-90.27099609375
2.1587499,5.925649166107178,-7.99184513092041,1.3718775510787964,16.937255859375,-75.5157470703125,-89.78271484375
2.1612499,5.944802761077881,-7.965508937835693,1.3239935636520386,17.0440673828125,-75.5767822265625,-89.141845703125
2.1637499,5.9519853591918945,-7.94635534286499,1.3096283674240112,17.242431640625,-75.3631591796875,-88.592529296875
2.1662499,5.944802761077881,-7.924807548522949,1.335964560508728,18.00537109375,-75.1953125,-88.2568359375
2.1687499,5.92325496673584,-7.888894557952881,1.3838485479354858,17.88330078125,-74.951171875,-87.3260498046875
2.1712499,5.899312973022461,-7.814674377441406,1.4437036514282227,18.00537109375,-74.737548828125,-86.4105224609375
2.1737499,5.875370979309082,-7.702147006988525,1.4915876388549805,17.852783203125,-74.4781494140625,-86.0137939453125
2.1762499,5.858611583709717,-7.546523571014404,1.5179238319396973,18.2952880859375,-74.462890625,-85.44921875
2.1787499,5.856217384338379,-7.357381820678711,1.5203180313110352,18.3258056640625,-74.0203857421875,-85.38818359375
2.1812499,5.8657941818237305,-7.132327079772949,1.4867992401123047,18.3868408203125,-73.73046875,-85.38818359375
2.1837499,5.8873419761657715,-6.8809356689453125,1.4437036514282227,18.585205078125,-73.54736328125,-84.9761962890625
2.1862499,5.918466567993164,-6.62236213684082,1.3886369466781616,18.1121826171875,-73.211669921875,-85.1287841796875
2.1887499,5.944802761077881,-6.3733649253845215,1.3335703611373901,17.51708984375,-72.8607177734375,-85.601806640625
2.1912499,5.966350555419922,-6.169857978820801,1.3024457693099976,16.937255859375,-72.3419189453125,-85.7696533203125
2.1937499,5.992686748504639,-6.042964935302734,1.2713210582733154,16.510009765625,-71.8536376953125,-86.3037109375
2.1962498999999998,6.023811340332031,-6.00226354598999,1.259350061416626,16.2200927734375,-71.4263916015625,-86.60888671875
2.1987499,6.0597243309021,-6.04775333404541,1.2689268589019775,16.4031982421875,-70.7855224609375,-86.7767333984375
2.2012499,6.088454723358154,-6.143521785736084,1.2952631711959839,16.7236328125,-70.587158203125,-86.761474609375
2.2037499,6.110002517700195,-6.270414352416992,1.3479355573654175,17.3187255859375,-70.0531005859375,-86.42578125
2.2062499,6.124367713928223,-6.390124320983887,1.3958195447921753,18.0816650390625,-69.3511962890625,-86.181640625
2.2087499,6.138733386993408,-6.495469093322754,1.4269442558288574,18.890380859375,-68.817138671875,-85.5865478515625
2.2112499,6.1530985832214355,-6.576871871948242,1.4413094520568848,19.927978515625,-68.0389404296875,-85.0830078125
2.2137499,6.167463779449463,-6.629544734954834,1.4269442558288574,21.1639404296875,-67.1844482421875,-84.625244140625
2.2162498999999998,6.174646377563477,-6.655880928039551,1.3934253454208374,22.76611328125,-66.58935546875,-83.6639404296875
2.2187499,6.18182897567749,-6.643909931182861,1.3479355573654175,24.169921875,-66.009521484375,-82.977294921875
2.2212499,6.167463779449463,-6.603208065032959,1.2880805730819702,25.4669189453125,-65.36865234375,-82.33642578125
2.2237499,6.138733386993408,-6.543353080749512,1.2282254695892334,26.763916015625,-64.6514892578125,-81.5582275390625
2.2262499,6.090848922729492,-6.473921298980713,1.1827356815338135,28.076171875,-64.3310546875,-80.7952880859375
2.2287499,6.028599739074707,-6.411672115325928,1.1468225717544556,29.266357421875,-63.7969970703125,-80.01708984375
2.2312499,5.96874475479126,-6.370970726013184,1.137245774269104,30.33447265625,-63.4918212890625,-79.0863037109375
2.2337499,5.925649166107178,-6.315904140472412,1.1204863786697388,31.524658203125,-62.6373291015625,-78.2470703125
2.2362499,5.896918773651123,-6.253654956817627,1.115697979927063,32.8369140625,-62.1795654296875,-77.5146484375
2.2387499,5.889736175537109,-6.160281181335449,1.0965443849563599,33.7066650390625,-61.5234375,-76.690673828125
2.2412499,5.904101371765137,-6.038176536560059,1.072602391242981,34.454345703125,-60.6689453125,-76.080322265625
2.2437499,5.932831764221191,-5.91128396987915,1.0414776802062988,35.4156494140625,-60.0433349609375,-75.3631591796875
2.2462499,5.9735331535339355,-5.774814605712891,1.0055646896362305,36.07177734375,-59.5245361328125,-74.6612548828125
2.2487499,6.021417140960693,-5.6455278396606445,0.9720458984375,36.6058349609375,-58.7158203125,-74.4171142578125
2.2512499,6.074089527130127,-5.509057998657227,0.9481038451194763,37.078857421875,-57.7239990234375,-74.1424560546875
2.2537499,6.1267619132995605,-5.3797712326049805,0.9457096457481384,37.261962890625,-56.9610595703125,-73.9593505859375
2.2562499,6.172252178192139,-5.243301868438721,0.9624691009521484,37.384033203125,-56.4727783203125,-73.7152099609375
2.2587498999999998,6.208165168762207,-5.118803024291992,0.9983820915222168,37.567138671875,-55.816650390625,-73.455810546875
2.2612499,6.224924564361572,-5.0254292488098145,1.0534487962722778,37.1856689453125,-55.206298828125,-73.05908203125
2.2637499,6.2201361656188965,-4.953603267669678,1.1300631761550903,36.834716796875,-54.6112060546875,-73.028564453125
2.2662499,6.208165168762207,-4.908113479614258,1.2258312702178955,36.80419921875,-54.656982421875,-72.57080078125
2.2687499,6.200982570648193,-4.876988887786865,1.3239935636520386,36.041259765625,-54.38232421875,-72.1435546875
2.2712499,6.234501361846924,-4.838681697845459,1.3958195447921753,35.3851318359375,-53.863525390625,-71.7926025390625
2.2737499,6.31829833984375,-4.797980308532715,1.4197616577148438,35.0494384765625,-53.070068359375,-71.319580078125
2.2762499,6.45476770401001,-4.752490520477295,1.3910311460494995,34.576416015625,-51.8951416015625,-71.014404296875
2.2787498999999998,6.6127848625183105,-4.711789131164551,1.3215993642807007,33.905029296875,-51.055908203125,-70.6634521484375
2.2812499,6.780379295349121,-4.680664539337158,1.2306196689605713,33.3099365234375,-50.23193359375,-70.3582763671875
2.2837499,6.912060260772705,-4.668693542480469,1.1492167711257935,32.806396484375,-49.3316650390625,-69.9462890625
2.2862499,7.000645637512207,-4.683058738708496,1.0869675874710083,31.951904296875,-48.431396484375,-69.1680908203125
2.2887499,7.026981830596924,-4.7189717292785645,1.0654197931289673,30.8074951171875,-47.6837158203125,-68.328857421875
2.2912499,7.005434036254883,-4.786009311676025,1.0797849893569946,29.9072265625,-47.1038818359375,-67.6727294921875
2.2937499,6.957550048828125,-4.869806289672852,1.1348515748977661,29.144287109375,-46.5087890625,-66.9097900390625
2.2962499,6.900089263916016,-4.965574264526367,1.2114660739898682,28.1829833984375,-46.20361328125,-66.070556640625
2.2987499,6.854599475860596,-5.035006046295166,1.2976573705673218,27.4658203125,-45.7763671875,-65.338134765625
2.3012499,6.823474884033203,-5.063736438751221,1.3670891523361206,26.8402099609375,-45.2728271484375,-64.361572265625
2.3037499,6.818686485290527,-5.039794445037842,1.4077905416488647,26.1077880859375,-44.6014404296875,-63.232421875
2.3062499,6.835445880889893,-4.963180065155029,1.400607943534851,25.146484375,-43.9910888671875,-62.9425048828125
2.3087499,6.871358871459961,-5.023035049438477,1.3431471586227417,24.7955322265625,-43.3197021484375,-62.713623046875
2.3112499,6.830657482147217,-5.116408824920654,1.3000515699386597,23.9410400390625,-42.572021484375,-64.2547607421875
2.3137499,6.907271862030029,-5.152322292327881,1.1276689767837524,27.9541015625,-43.304443359375,-62.2406005859375
2.3162499,6.926425457000732,-4.9583916664123535,1.0247182846069336,30.9295654296875,-42.510986328125,-59.2803955078125
2.3187499,6.97430944442749,-4.2951979637146,0.8882488012313843,28.533935546875,-40.771484375,-61.553955078125
2.3212498999999998,7.029376029968262,-3.6128504276275635,0.8212111592292786,17.852783203125,-41.2139892578125,-61.8896484375
2.3237499,7.0126166343688965,-3.114856481552124,0.811634361743927,10.3302001953125,-41.1224365234375,-61.5081787109375
2.3262499,6.981492042541504,-3.1028854846954346,0.8092401623725891,12.39013671875,-40.557861328125,-61.981201171875
2.3287499,6.962338447570801,-3.507505416870117,0.7709329724311829,15.4876708984375,-39.7491455078125,-61.065673828125
2.3312499,6.952761650085449,-3.9647979736328125,0.7015010714530945,16.1895751953125,-39.1998291015625,-60.4400634765625
2.3337499,6.938396453857422,-4.218583583831787,0.6392518281936646,15.0146484375,-38.9404296875,-60.36376953125
2.3362499,6.92881965637207,-4.199429988861084,0.608127236366272,12.8936767578125,-38.9556884765625,-60.1806640625
2.3387499,6.931213855743408,-3.993528366088867,0.6272808313369751,10.467529296875,-39.1082763671875,-59.814453125
2.3412498999999998,6.9910688400268555,-3.6846764087677,0.6368576288223267,9.246826171875,-39.1693115234375,-59.8907470703125
2.3437499,7.103596210479736,-3.426102638244629,0.6440402865409851,7.26318359375,-38.3453369140625,-59.9365234375
2.3462499,7.247248649597168,-3.24414324760437,0.608127236366272,5.7525634765625,-37.3992919921875,-59.6160888671875
2.3487499,7.376535415649414,-3.1866824626922607,0.5650315880775452,4.638671875,-36.2091064453125,-59.844970703125
2.3512499,7.438784599304199,-3.2417490482330322,0.5506663918495178,3.4027099609375,-35.6903076171875,-59.6923828125
2.3537499,7.441178798675537,-3.380612850189209,0.5913678407669067,2.166748046875,-35.247802734375,-59.2803955078125
2.3562499,7.400477409362793,-3.5434184074401855,0.6775590777397156,1.007080078125,-34.8663330078125,-58.7005615234375
2.3587499,7.364564418792725,-3.706224203109741,0.7829039692878723,-0.1220703125,-34.271240234375,-58.2733154296875
2.3612499,7.362170219421387,-3.864241600036621,0.8690952062606812,-0.9613037109375,-33.477783203125,-57.769775390625
2.3637499,7.41484260559082,-3.993528366088867,0.9097966551780701,-1.190185546875,-32.867431640625,-56.9610595703125
2.3662499,7.5201873779296875,-4.106055736541748,0.8858546018600464,-1.129150390625,-32.3028564453125,-55.9844970703125
2.3687499,7.661445617675781,-4.1874589920043945,0.7948749661445618,-0.8544921875,-31.2042236328125,-55.0384521484375
2.3712499,7.807491779327393,-4.24970817565918,0.6416460275650024,-0.54931640625,-30.0750732421875,-54.26025390625
2.3737499,7.91283655166626,-4.311957359313965,0.4572925269603729,0.06103515625,-29.296875,-53.375244140625
2.3762499,7.953537940979004,-4.359841346740723,0.26336219906806946,1.0833740234375,-28.533935546875,-52.7496337890625
2.3787499,7.927201747894287,-4.426878929138184,0.10055647045373917,1.861572265625,-27.9388427734375,-51.7578125
2.3812499,7.8529815673828125,-4.489128112792969,-0.009576806798577309,2.5482177734375,-27.52685546875,-50.6439208984375
2.3837498999999998,7.757213592529297,-4.54419469833374,-0.0694318488240242,3.6163330078125,-27.191162109375,-49.9420166015625
2.3862499,7.6782050132751465,-4.584896087646484,-0.07182604819536209,4.7760009765625,-27.0233154296875,-49.224853515625
2.3887499,7.6351094245910645,-4.60165548324585,-0.05267243832349777,5.8746337890625,-26.4434814453125,-48.3551025390625
2.3912499,7.637503623962402,-4.594472885131836,-0.023942016065120697,7.049560546875,-26.06201171875,-47.454833984375
2.3937499,7.675810813903809,-4.5609540939331055,-0.014365210197865963,8.5906982421875,-25.5126953125,-46.7987060546875
2.3962499,7.7883381843566895,-4.479551315307617,-0.05985504388809204,11.016845703125,-24.444580078125,-45.5322265625
2.3987499,7.7883381843566895,-4.479551315307617,-0.05985504388809204,11.016845703125,-24.444580078125,-45.5322265625
2.4012499,7.829039573669434,-4.393360137939453,-0.1604115068912506,13.4735107421875,-23.193359375,-44.6929931640625
2.4037498999999998,7.829039573669434,-4.393360137939453,-0.1604115068912506,13.4735107421875,-23.193359375,-44.6929931640625
2.4062499,7.805097579956055,-4.228160381317139,-0.2106897532939911,16.326904296875,-22.4456787109375,-43.975830078125
2.4087499,7.805097579956055,-4.228160381317139,-0.2106897532939911,16.326904296875,-22.4456787109375,-43.975830078125
2.4112499,7.898471355438232,-3.8594532012939453,-0.21308395266532898,16.05224609375,-20.99609375,-44.7235107421875
2.4137499,7.898471355438232,-3.8594532012939453,-0.21308395266532898,16.05224609375,-20.99609375,-44.7235107421875
2.4162499,8.161833763122559,-3.7469255924224854,-0.3280056416988373,16.9677734375,-18.9056396484375,-45.4559326171875
2.4187499,8.161833763122559,-3.7469255924224854,-0.3280056416988373,16.9677734375,-18.9056396484375,-45.4559326171875
2.4212499,8.370129585266113,-4.201824188232422,-0.5817909836769104,21.881103515625,-16.0980224609375,-46.173095703125
2.4237499,8.370129585266113,-4.201824188232422,-0.5817909836769104,21.881103515625,-16.0980224609375,-46.173095703125
2.4262499,8.367734909057617,-4.711789131164551,-0.8451532125473022,25.5889892578125,-14.8162841796875,-44.891357421875
2.4287499,8.367734909057617,-4.711789131164551,-0.8451532125473022,25.5889892578125,-14.8162841796875,-44.891357421875
2.4312499,8.250418663024902,-4.8937482833862305,-0.9385270476341248,29.449462890625,-13.336181640625,-43.1976318359375
2.4337499,8.250418663024902,-4.8937482833862305,-0.9385270476341248,29.449462890625,-13.336181640625,-43.1976318359375
2.4362499,8.183381080627441,-4.76924991607666,-0.7805097699165344,31.25,-12.51220703125,-41.5496826171875
2.4387499,8.183381080627441,-4.76924991607666,-0.7805097699165344,31.25,-12.51220703125,-41.5496826171875
2.4412499,8.274360656738281,-4.587290287017822,-0.5578489899635315,32.6690673828125,-11.2152099609375,-39.306640625
2.4437499,8.274360656738281,-4.587290287017822,-0.5578489899635315,32.6690673828125,-11.2152099609375,-39.306640625
2.4462498999999998,8.453926086425781,-4.486733913421631,-0.5027823448181152,34.759521484375,-9.185791015625,-37.53662109375
2.4487499,8.453926086425781,-4.486733913421631,-0.5027823448181152,34.759521484375,-9.185791015625,-37.53662109375
2.4512499,8.525752067565918,-4.228160381317139,-0.6416460275650024,36.3311767578125,-7.5531005859375,-36.1175537109375
2.4537499,8.525752067565918,-4.228160381317139,-0.6416460275650024,36.3311767578125,-7.5531005859375,-36.1175537109375
2.4562499,8.482656478881836,-3.665522813796997,-0.8140285611152649,34.8663330078125,-5.7830810546875,-35.7513427734375
2.4587499,8.482656478881836,-3.665522813796997,-0.8140285611152649,34.8663330078125,-5.7830810546875,-35.7513427734375
2.4612499,8.47547435760498,-3.2393548488616943,-0.8858546018600464,32.3486328125,-4.5623779296875,-36.0565185546875
2.4637499,8.47547435760498,-3.2393548488616943,-0.8858546018600464,32.3486328125,-4.5623779296875,-36.0565185546875
2.4662498999999998,8.518569946289062,-3.383007049560547,-0.8690952062606812,31.3720703125,-3.35693359375,-35.1715087890625
2.4687499,8.518569946289062,-3.383007049560547,-0.8690952062606812,31.3720703125,-3.35693359375,-35.1715087890625
2.4712499,8.549694061279297,-3.8163576126098633,-0.7781155705451965,31.2652587890625,-2.3651123046875,-33.9202880859375
2.4737499,8.549694061279297,-3.8163576126098633,-0.7781155705451965,31.2652587890625,-2.3651123046875,-33.9202880859375
2.4762499,8.616731643676758,-4.0294413566589355,-0.6320692300796509,30.4107666015625,-1.8463134765625,-32.1044921875
2.4787499,8.616731643676758,-4.0294413566589355,-0.6320692300796509,30.4107666015625,-1.8463134765625,-32.1044921875
2.4812499,8.793902397155762,-3.909731388092041,-0.5123591423034668,29.022216796875,-1.0528564453125,-30.517578125
2.4837499,8.793902397155762,-3.909731388092041,-0.5123591423034668,29.022216796875,-1.0528564453125,-30.517578125
2.4862499,9.047688484191895,-3.7014358043670654,-0.45250412821769714,27.435302734375,-0.396728515625,-28.9459228515625
2.4887499,9.047688484191895,-3.7014358043670654,-0.45250412821769714,27.435302734375,-0.396728515625,-28.9459228515625
2.4912499,9.27034854888916,-3.643975019454956,-0.3998316824436188,26.397705078125,0.7171630859375,-26.763916015625
2.4937499,9.27034854888916,-3.643975019454956,-0.3998316824436188,26.397705078125,0.7171630859375,-26.763916015625
2.4962499,9.385271072387695,-3.7421371936798096,-0.2825157940387726,26.3519287109375,1.0833740234375,-24.0631103515625
2.4987499,9.385271072387695,-3.7421371936798096,-0.2825157940387726,26.3519287109375,1.0833740234375,-24.0631103515625
2.5012499,9.404424667358398,-3.7708675861358643,-0.05746084079146385,26.275634765625,1.190185546875,-21.2860107421875
2.5037499,9.404424667358398,-3.7708675861358643,-0.05746084079146385,26.275634765625,1.190185546875,-21.2860107421875
2.5062499,9.44752025604248,-3.6104562282562256,0.26096799969673157,25.45166015625,0.8544921875,-18.646240234375
2.5087498999999998,9.519346237182617,-3.4763808250427246,0.4213795065879822,24.932861328125,1.007080078125,-17.7459716796875
2.5112499,9.624691009521484,-3.31118106842041,0.5602431893348694,24.749755859375,1.8157958984375,-16.4794921875
2.5137499,9.737217903137207,-3.1052796840667725,0.6727706789970398,24.0936279296875,2.50244140625,-15.716552734375
2.5162499,9.837775230407715,-2.8610711097717285,0.7637503147125244,23.101806640625,3.2501220703125,-15.380859375
2.5187499,9.897629737854004,-2.580949544906616,0.849941611289978,21.6522216796875,3.60107421875,-14.9383544921875
2.5212499,9.914389610290527,-2.293645143508911,0.9433154463768005,19.683837890625,4.08935546875,-15.0146484375
2.5237499,9.90241813659668,-2.0470423698425293,1.05105459690094,17.6239013671875,4.2266845703125,-15.2740478515625
2.5262499,9.885659217834473,-1.8746598958969116,1.161187767982483,15.350341796875,4.45556640625,-15.5487060546875
2.5287498999999998,9.885659217834473,-1.8148049116134644,1.2641384601593018,13.1988525390625,4.5928955078125,-15.777587890625
2.5312499,9.90241813659668,-1.867477297782898,1.3455413579940796,11.3983154296875,5.0506591796875,-15.7928466796875
2.5337499,9.945513725280762,-2.0039467811584473,1.400607943534851,9.613037109375,5.8746337890625,-16.1590576171875
2.5362499,9.99339771270752,-2.1930887699127197,1.4269442558288574,8.30078125,6.500244140625,-16.2506103515625
2.5387499,10.038887977600098,-2.389413356781006,1.4221558570861816,7.049560546875,7.232666015625,-16.2506103515625
2.5412499,10.074800491333008,-2.5689783096313477,1.3958195447921753,5.889892578125,7.7056884765625,-16.4031982421875
2.5437499,10.113107681274414,-2.719813108444214,1.3455413579940796,4.6539306640625,8.3160400390625,-16.815185546875
2.5462499,10.153809547424316,-2.87064790725708,1.292868971824646,3.4942626953125,9.063720703125,-17.2119140625
2.5487499,10.213664054870605,-3.0382418632507324,1.2306196689605713,2.9296875,9.8876953125,-17.486572265625
