# Time (seconds),Accel_X,Accel_Y,Accel_Z,Gyro_X,Gyro_Y,Gyro_Z
0.0012499,8.18070622138247,-3.4309101517149045,0.8355149505538448,-10.607345253211841,-7.514424852424557,10.843487579172828
0.0112499,8.355064579220967,-3.4996399891010843,0.8531070527717921,-6.147975813400314,-4.701238990491421,13.00525790795671
0.0212499,8.52791873390101,-3.4963616205008172,0.7547618264940507,-2.3314814062948495,-1.8161660288287094,15.39620849575751
0.0312498999999999,8.652364973506483,-3.4783400592389992,0.6731164294226147,0.49881048610263334,0.9159579043391279,17.3405535228255
0.0412499,8.756662040695206,-3.463313484300841,0.6588472295322116,1.9251391113900644,3.5633884039977075,18.66920711503391
0.0512499,8.806737186139813,-3.4874544000983647,0.669663659730788,2.549194328017617,6.23213981464278,19.31985947738707
0.0612498999999999,8.81062139244581,-3.5541454001018815,0.7056891681178012,3.173744179569914,8.771661774418826,18.814729332003175
0.0712499,8.789213472687488,-3.6798760066054825,0.7964480242155241,4.432132678467263,11.151582717016224,17.386186844535963
0.0812499,8.763199021065294,-3.8525226188349793,0.9136040194154823,6.718221859965253,13.40917550091913,15.776532232801346
0.0912499,8.778687984142286,-4.053179605602751,1.047760088017906,9.639444624903543,15.29207780131788,14.934677302169186
0.1012499,8.8276847584209,-4.167776878301318,1.1484359258366383,12.674837148428866,16.840514430838518,14.696780449354028
0.1112499,8.860560526028818,-4.095009131835354,1.2002772271573363,15.573055185136877,18.06160316644169,14.492743633634698
0.1212499,8.7955610739546,-3.9808906293158004,1.2659746085487429,17.887133676818785,18.612261987432507,14.228236918182345
0.1312499,8.651051627865654,-3.9046893787758243,1.2724242240419343,19.270712212377948,18.586770862072036,14.32105592110171
0.1412499,8.551961311907286,-3.8011312672891995,1.2004726540074677,19.362624077476863,18.127683750097816,14.807533608242784
0.1512499,8.472494249673142,-3.6892882865395618,1.2183855384209663,18.348295261242296,17.043157917892874,15.604272015900756
0.1612499,8.352363461362419,-3.631441608365594,1.3307394105228187,16.917030018609783,15.381537848133016,17.011222363350367
0.1712499,8.256143311017366,-3.6049186885482323,1.371487677096586,15.311540941240663,13.64148091708332,18.93439725189491
0.1812499,8.289678954811487,-3.5827009095676856,1.3491798978921927,13.857280856359152,11.937696049516425,21.364079482785247
0.1912499,8.350247892404177,-3.521073963938632,1.3297402904584348,12.263777446231657,9.873380518618418,24.272904454025817
0.2012499,8.424394017133475,-3.4552792028827217,1.2592156257998204,9.664835264708758,8.144420937073097,26.982808706016034
0.2112499,8.647194149375599,-3.351854921728864,1.2474502640911136,6.092089912031832,6.9780929127895845,29.05162847356079
0.2212499,8.916257109050541,-3.2846423127084776,1.3948044681644782,2.3235693248192555,6.401697970728534,30.28555667193683
0.2312499,9.044967074317261,-3.4069579432109016,1.5806637286950902,-0.928029949365017,6.16801281781818,30.991476071856823
0.2412499,9.061633434156644,-3.641844667700234,1.6287330322035198,-3.1934553019103813,6.282670148434318,31.454444124425702
0.2512499,9.100132931255043,-3.855982330626367,1.6223196918179696,-3.8709819432036943,6.495330327805764,31.636004454620455
0.2612499,9.18245200469668,-4.078166642203218,1.7062230413620452,-3.177443066646736,6.5558599861579125,31.79921592618759
0.2712499,9.263272794134993,-4.260851687267223,1.8422723129043617,-1.2445107322042348,6.5111987013382135,31.72300478839356
0.2812499,9.324837209517806,-4.270756542043838,1.9454155672398306,0.6886443729466399,6.5156251575820265,31.023937289233192
0.2912499,9.36413067432394,-4.251490481841061,1.9816496071448335,2.222272398503285,6.328013871550234,30.02491797035798
0.3012499,9.368612169004306,-4.24982961165992,1.987046872391337,3.0644936361110724,6.109104343149208,28.42926992281732
0.3112499,9.354546124554181,-4.2423189489948046,2.111488097288345,2.7296474618554116,5.924163521827005,26.08418777819116
0.3212499,9.36398693739312,-4.276703672603528,2.301307450799686,2.228662308876885,6.0708471057674265,23.34127237135443
0.3312499,9.338425088006653,-4.271772651407876,2.4018506254863143,1.699479243170827,6.3338681139532635,20.382769689819213
0.3412499,9.245081543006567,-4.34672608215341,2.4965291158875966,1.1873916959013882,6.34838788557711,17.835936978544037
0.3512499,9.058224375963722,-4.516634728009104,2.6399428389758657,1.0629975725856788,6.3779561854049645,16.288432273032626
0.3612499,8.799113143185526,-4.612848263916096,2.80568080493538,1.4264788857178146,6.379789989945056,15.171814319747996
0.3712499,8.672503311941105,-4.6749425251599055,2.9288822785427304,2.5353831518131495,5.914972775061943,14.38323092266209
0.3812499,8.574699142185647,-4.711089897868681,2.9243292311996307,4.27547736917131,5.071480737632358,13.913563854504716
0.3912499,8.39048524921482,-4.5933578625715565,2.8488075339233876,5.821046614285996,3.7955713323298723,13.298928763855642
0.4012499,8.313371903153595,-4.4071297154103055,2.778822279953581,6.531787853528672,2.2292338486885517,12.425086868284083
0.4112499,8.361471925006386,-4.290444670521836,2.7386022975673336,6.384668222096471,0.9028074303953949,11.629170798512229
0.4212499,8.435844980033117,-4.224396818781405,2.6975690180938163,5.323263722382688,-0.03581509833431258,10.919048376538754
0.4312499,8.556872428962224,-4.237366424698803,2.652041368999008,3.311321555912153,-0.6866705903958812,10.445852590212342
0.4412499,8.68609640082121,-4.342763816638198,2.6122651720392516,0.9420950262356439,-0.928818507012595,10.238313038396207
0.4512499,8.721444850597798,-4.495209220277906,2.5706612723939704,-1.2216476601705468,-0.9006441468538249,10.112723659898766
0.4612499,8.687199536882874,-4.636976325515988,2.466905256402538,-2.902717621774329,-1.1009451770293377,9.765555679403697
0.4712499,8.633451817490513,-4.768632355560451,2.340267230952647,-4.039421632082327,-1.7688165885384677,8.96190391936137
0.4812499,8.566207597683439,-4.957447662338631,2.300315370761969,-4.756050167751694,-2.6001910823015546,7.914007052194828
0.4912499,8.534963266473287,-5.127261578926279,2.2408695051729732,-5.378556579096629,-3.007577605863032,6.978332713003227
0.5012499,8.560159860229229,-5.196019623116489,2.1234307128845766,-6.289275525718802,-2.876327286552246,5.724610543196515
0.5112499,8.658239181260846,-5.207119469629153,2.083297754583908,-7.700126168812012,-2.4711568893379106,4.284802823126423
0.5212499,8.762162552495457,-5.240063164034164,2.1158043305957825,-9.628632598610055,-1.2740406854177841,3.3907127004918913
0.5312499,8.761920926938156,-5.317254758391054,2.1264251449442213,-11.896846462329737,0.7366353580325947,3.1093232209883754
0.5412499000000001,8.738128635299617,-5.396715528750479,2.102631588989397,-13.930305398832019,2.830462347459407,3.601720666685134
0.5512499000000001,8.764691906985009,-5.4839966744318955,2.0106106272723183,-15.100539594887637,4.706612256328267,4.807298135033485
0.5612499000000001,8.756003909682956,-5.525380618299512,1.8470531499728409,-14.926242705744883,6.224900667724882,6.170691049267672
0.5712499000000001,8.66496323424599,-5.464868216096856,1.6696921786238907,-13.926235769043581,6.877450960850245,6.906036831195737
0.5812499,8.56918541188464,-5.359496366554857,1.472168306448097,-12.388988558979738,6.455883578789412,6.661636215206056
0.5912499,8.490330142925552,-5.233997863565937,1.258162853114937,-10.504647751227363,5.283522896284168,5.703050118839213
0.6012499,8.442345634677212,-5.151531854683234,1.0846240402869605,-8.838840691255882,3.552223896508211,4.656777425643276
0.6112499,8.457730225443266,-5.085585244853285,0.9852343802469089,-7.327526191796136,1.500562578257368,3.8548178404787397
0.6212499,8.556155067140027,-4.96921162286034,0.9957371936121989,-6.685285701259342,-0.26865652012346347,3.415118884412881
0.6312499,8.690457334522229,-4.868475646276354,1.013049731041825,-7.4117979244586705,-1.5291934655204185,3.625620169336239
0.6412499,8.75881918787612,-4.838346983605915,1.0372513335674023,-9.22616411257301,-2.2740746958902913,4.369780006479138
0.6512499,8.768366809565487,-4.799967773061399,1.0742515794898997,-12.11283417631838,-2.548788136217577,5.24091064274818
0.6612499000000001,8.733193610589645,-4.736423836952693,1.0143753601157157,-15.285188284805947,-2.9035671188068646,5.726343271051438
0.6712499000000001,8.645311283489697,-4.729723409731993,1.0282926137366706,-18.641632367951104,-3.317393577492187,5.393112254595316
0.6812499000000001,8.531669098295186,-4.807060950362905,1.1396052083480896,-22.168664088324412,-3.407502161075218,4.86949564976445
0.6912499000000001,8.443287256529372,-4.98699659195296,1.232417605011452,-24.334709620115028,-3.1405319631370987,4.083728653612003
0.7012499000000001,8.40292029354823,-5.174233006169381,1.3217706175127486,-24.494370047049184,-2.5703026417381962,3.0863781526469856
0.7112499,8.2966104639104,-5.190542612490541,1.4106325277289178,-24.20691017565845,-2.226936283920781,2.1004236566555647
0.7212499,8.233140716245323,-5.244295054135841,1.4987782570154655,-22.483463546220325,-1.2598683341326475,1.4342551180158978
0.7312499,8.162681340742832,-5.2688286295119084,1.5562026818432355,-20.105862778543678,0.01774979902197714,1.0686550568063296
0.7412499,8.00969860416036,-5.193277106108331,1.5903376741433697,-17.216113996088964,0.9837759344814248,0.7559428945757405
0.7512499,7.941958019921344,-5.089395859107732,1.5744147225343885,-14.06630513343144,2.1672280134999995,0.9091905142394067
0.7612499,7.968027500999952,-4.984235787980737,1.523250402809712,-11.398801550214023,3.2263988546417837,1.5535195875102215
0.7712499,8.02600305745126,-4.90055678216581,1.5432076001855952,-8.816830059966788,4.379795627478354,2.4581788580520803
0.7812499,7.938146429979449,-4.790886279194713,1.4943566748578758,-7.188185257657203,5.587844419265976,3.9492509052346034
0.7912499000000001,7.809043358238351,-4.679896562140788,1.327245331798299,-7.148648010655833,6.656276950898756,5.627247553129355
0.8012499000000001,7.710979414341653,-4.619065171094146,1.1416021082969698,-8.001237656400276,7.13569027490887,7.377761419759163
0.8112499000000001,7.577335604009803,-4.678610863390459,0.9704262261982622,-9.109760569012668,7.147421887136339,9.38544868446325
0.8212499000000001,7.42279905794708,-4.812413245488541,0.7671716679606578,-10.351475452910842,7.237156128141698,11.82482991914567
0.8312499000000001,7.262254041484212,-4.935775445407144,0.5748852584545167,-11.894825203278874,7.60836248679082,14.713130338364142
0.8412499,7.080939836512823,-5.018682499545101,0.3718202163352669,-13.797388272321903,8.091762343761232,17.63775346625581
0.8512499,6.889354171844927,-5.1141956148184855,0.0990641580129112,-16.07805012151548,8.922975814759049,20.808302656244482
0.8612499,6.636617525292748,-5.184768831838679,-0.24174662443645353,-19.46106398515101,10.339570307567495,23.856217670574924
0.8712499,6.389756459055239,-5.247718985352748,-0.5660235118457717,-22.976265747967386,12.756143887458464,26.71041937660834
0.8812499,6.135613255514906,-5.280706227864092,-0.8188383452193938,-27.142228199921263,16.057181233858586,29.245212548586792
0.8912499,5.817209997693541,-5.27191462093868,-1.2247003525617197,-32.44253836961463,20.747822059702077,31.45274914484419
0.9012499,5.531130835678313,-5.205992528594027,-1.8094706970644387,-38.74727055659995,27.23449519268551,33.69420227584658
0.9112499,5.297790170040011,-5.1309014307696925,-2.209120102398964,-46.790701447706155,35.63372422838588,36.38368538262234
0.9212499,5.030909316683603,-5.151821917697777,-2.3610427119041826,-56.0063208042244,46.02796356786729,39.73115513926421
0.9312499,4.59332529615203,-5.259665345529822,-2.466192438384306,-64.26789579886544,57.73465861876601,44.211805519685676
0.9412499,3.9558104074959175,-5.5130600049857525,-2.477814209651254,-69.86883564175652,69.49116588632161,50.18851771032934
0.9512499,3.1852570870114514,-5.995158860660822,-2.3276529342671903,-70.50318505436564,80.64621153444476,57.65359981461621
0.9612499,2.182240522596296,-6.244325118034631,-2.230506937346557,-66.00300403964694,90.92451025163493,66.44556274771398
0.9712499,1.058580894313549,-6.089811070555721,-2.3567806620253666,-58.83143440364412,100.00492324252009,76.2286949834178
0.9812499,-0.1280607167385908,-5.713066571259392,-2.4272305490883173,-47.42006470329085,108.33596739039807,88.18857436362988
0.9912499,-1.1317207553442759,-4.9480703545862,-2.2792024496511236,-34.00928028476398,116.48534201557953,103.6607029696499
1.0012499,-1.4868108116770238,-4.02620273860619,-2.02915328967738,-23.820697180813024,123.7469696734598,119.86390583034641
1.0112499,-1.5562597292807154,-2.9376524476577406,-1.8097475779490781,-17.149416781356834,131.74442866209412,138.47902971251696
1.0212499,-1.4967828053117573,-1.8725859725947698,-1.6390143879775922,-14.052968580228292,141.15831270734776,160.46193715616639
1.0312499,-1.1473330666604293,-0.9126039781583306,-1.2653037298759355,-14.983939248488214,152.09337816674307,184.6099842511872
1.0412499,-0.7661225358556134,-0.07047640137550877,-0.606738316870326,-19.818118635003355,164.74521119277944,210.6190056041008
1.0512499,-0.7128696859075407,0.31770626289030224,0.04183435658399235,-26.35754171452498,178.48527649511726,238.36177704668074
1.0612499,-0.8380525207197981,0.43803536659310316,0.5746444615093759,-32.76122526229322,192.5222429244474,268.04334533043135
1.0712499,-1.0939162233601865,0.43931873455983445,1.0913797348861367,-38.50101110178494,205.45312627627143,298.81079259389696
1.0812499,-1.67725883597016,0.003221990965285318,1.634251549998046,-42.93560078128207,215.85793508421173,329.2141661268649
1.0912499,-2.6199201501830993,-0.6404908992740457,2.1153462825165077,-47.2321108061914,221.94347696658338,358.0432657171964
1.1012499,-3.557502802187255,-1.3306957326473767,2.9643610417083806,-51.663791659432,223.89620180749867,383.7066397022076
1.1112499,-4.35577621319577,-2.5609295205662987,4.506771609169788,-54.51290905757163,222.58271723488355,405.3100331217351
1.1212499,-4.96478627085969,-3.9466791377424593,6.101554158098637,-56.257693859662346,219.24334085924195,422.6276896793544
1.1312499,-5.232311826698965,-5.5192701467535334,8.01525981696007,-56.20079628627056,214.77814854012348,435.5008642326121
1.1412499,-5.487146547965587,-8.274257262551016,10.882935908998084,-52.35434274802311,208.15170473421534,444.76752305233
1.1512499,-5.899739505942911,-11.977181830585403,13.918693630000714,-41.48139419626823,199.39696218267807,451.0180462237141
1.1612498999999998,-6.1006697225747955,-15.877420906864963,17.52539617663846,-21.756745400825874,186.41980031169086,452.0665755398493
1.1712498999999998,-6.185324389173007,-20.465858897304223,22.617923661868737,7.0013969881039095,165.89500626973236,444.3855268384507
1.1812499,-6.431416272099454,-25.073118714886395,26.778533534049913,48.2347699707091,140.14197314709017,424.71860067245615
1.1912499,-4.602646849498642,-27.444010751551396,29.06410842022937,103.38074589731141,102.849773267475,385.7873963126282
1.2012499,0.2292095164161377,-28.75564007305182,32.34894351375711,154.51250354622906,46.16929820914726,333.071260950439
1.2112499,4.33016583391061,-30.596216476810394,35.22015758348026,186.73528942365505,-14.876333723685086,282.25987910887153
1.2212499,6.717946661968771,-30.767678423925382,36.16139416121728,205.93303593831834,-79.07243032810072,224.36340289961979
1.2312499,8.803856028766916,-28.140622350672533,37.801481607418474,190.1262942000843,-154.10555699490237,156.10196495412862
1.2412499,10.816535390463235,-25.457638314089802,41.369905680363956,136.0660591535773,-239.0217866139845,76.61633349177656
1.2512499,11.156011810730428,-25.44026146024542,45.816898990310996,71.56978167064456,-340.55866916214376,-15.44230640242511
1.2612499,8.566509669929244,-29.24992980335372,48.16330486595229,19.6482994826215,-453.0095514235047,-110.60843299126697
1.2712499,4.341670278507316,-35.36916134427717,48.38151299587966,-13.043044487456656,-503.9008917648996,-205.6708603687812
1.2812499,-1.1992399614683549,-41.071974077747214,47.040381637735365,-26.105087856823687,-499.59976132720783,-307.19167794457456
1.2912499,-7.154901448506909,-46.41439272018523,42.914320594679765,-20.692675541906556,-499.47053960404753,-405.2616457944949
1.3012499,-13.253223515008093,-53.89807885771422,37.208504987052514,1.7978608284078559,-500.4030525420749,-476.44592565920436
1.3112499,-22.54749666444699,-56.877237814734464,27.580911258561336,20.728410500903255,-499.732243436103,-501.463742026199
1.3212499,-30.23760464277171,-48.741824529952446,15.013603947427445,-6.772016603750099,-500.50666327211553,-500.3236073680212
1.3312499,-32.897430295338765,-36.40751717809595,5.514908304142866,-76.97178035873783,-499.0833479341582,-498.66880852775984
1.3412499,-37.144822131304636,-24.217984832396553,0.32597864499327867,-157.2448254732358,-500.4604460405808,-501.1849879827544
1.3512499,-45.18525725719934,-16.933210696869725,-4.059459971363701,-193.42874881437663,-502.35955512914916,-500.2760174878244
1.3612499,-48.573443750764504,-14.456756675983211,-10.404214661749865,-155.92533668542302,-440.7488790498034,-426.413598484736
1.3712499,-44.03537544184108,-7.2658107840934765,-14.883205568179745,-94.60352595155616,-335.15990768266727,-302.8367466448157
1.3812499,-36.99441769366536,3.469520162319155,-14.027905254484981,-52.76902462699669,-251.04091211280675,-214.705843184515
1.3912499,-31.505162989953373,9.273055246580453,-10.726966463543162,-39.25591632128713,-166.67750049594687,-153.15166721629163
1.4012499,-27.69560836065031,9.342665639485038,-7.498890507325096,-58.02035939071727,-78.90063476054715,-89.4571037513242
1.4112498999999998,-24.1798367322201,7.9029130579905225,-3.123354105681699,-101.34980221176812,-15.817802996252446,-38.3504452187944
1.4212498999999998,-21.549775536452646,4.61007592364186,1.260485472253529,-129.11717798707886,10.044342376931626,-14.212998302058505
1.4312499,-17.999242890655893,0.38131341732345,4.228805436448685,-130.61980460903683,15.09497438564405,-2.011823363102512
1.4412499,-11.871681770889431,-2.684937713475262,5.89651229290182,-116.86795152423997,13.034713002706813,7.9166549086446985
1.4512499,-5.206911356356158,-4.379835794317931,5.945618193860114,-96.06983844114878,10.42924457614538,17.870622003737466
1.4612499,0.6661690085961174,-5.266713599644281,4.339306962145722,-67.72494940258396,6.828007668678319,24.215478142801025
1.4712499,6.19501064990504,-5.5497422478527465,2.400507726644138,-41.42748317336883,5.136894431716327,25.32521222152256
1.4812499,10.327796769581864,-5.710210099532413,1.285987615858931,-25.892524756951545,7.446748454323136,20.999274678604852
1.4912499,12.455116668742779,-6.069739401287113,1.3401794614465068,-14.354231178075125,13.236993587722269,8.738560165398493
1.5012499,13.314868110857104,-6.646752814130765,2.5315486261973907,-5.560533747557403,21.537288692639965,-7.988921740984353
1.5112499,13.601750214615222,-7.365843532711702,3.9285398614220095,0.1572860782667709,29.893064589986743,-24.07721233165914
1.5212499,13.271599891602566,-8.003298714209993,4.716458462487102,6.760329850635474,35.236715812031434,-37.960482875491515
1.5312499,12.253528191477825,-8.383513982912014,5.175169196288302,17.35162379886278,35.338955471622086,-48.83737652088495
1.5412499,11.52878225526642,-8.428006383439824,5.439101279613028,34.33365258713913,31.57613525354266,-54.92945010850537
1.5512499,11.564137817878116,-8.124335521852705,5.443708917548045,55.06239712207697,26.06145194209198,-55.88608836713078
1.5612499,11.797073542756062,-7.383140018248373,5.249623444096246,71.92802992357946,19.86844303189061,-54.276243763829484
1.5712499,11.555857248243196,-6.515774756106784,4.434443745890693,83.05108200274702,13.190186150546303,-51.859852757896604
1.5812499,10.797386157519316,-5.485895282583622,3.045354386501333,86.6287251912003,4.420060916337821,-49.0462017519058
1.5912499,10.267532467297452,-4.262941488446458,1.8211130736070253,80.16999248166098,-4.67406054137573,-46.8358620123406
1.6012499,9.856454851311582,-3.3546183219852104,1.1622820638291038,65.4789206829443,-12.219614680559227,-46.589658679568274
1.6112499,9.182420332713688,-2.6657566660410095,0.977766641328242,42.750292464106764,-18.606877587071377,-50.36922094825063
1.6212499,8.635346998457257,-1.9419552377918752,1.1657738671216806,18.119796577250668,-22.57248460793662,-57.42809406419449
1.6312499,8.42207408952475,-1.597327916932974,1.5977236742818783,-2.2992035779718814,-23.455671029316186,-65.4122761695845
1.6412499,8.352759869866535,-1.8184580276711197,1.940267675713837,-17.860286950667106,-21.06350246135981,-72.24728737842514
1.6512499,8.11141860931418,-2.3845164428060617,1.9592672792597572,-26.731759362472708,-16.76495067695551,-75.36962861203259
1.6612499,7.659987261290774,-2.8589591209290917,1.525590520948225,-29.43975796521954,-12.832830260257138,-73.76901758646714
1.6712498999999998,7.188687746768015,-2.8232071151487466,0.9451833903950301,-29.259451508493132,-9.874096839027501,-68.49935775394242
1.6812499,6.846525808054003,-2.317711228537083,0.49891748549271003,-29.19670062859226,-7.561191048365916,-61.328613415497834
1.6912499,6.818765722430991,-1.6892061034235692,0.14895943014746224,-30.612694481627877,-5.387827514994567,-53.977544110722235
1.7012499,7.025832954574173,-1.235471729267252,0.025043786374486312,-32.063497096014835,-2.581073232913863,-47.52971785296101
1.7112499,7.196041558333904,-1.0130551078373269,0.1488817405141333,-33.250837044184884,1.0587352991613224,-42.19163708700366
1.7212499,7.410035861520105,-1.0183369055774882,0.2633010770028488,-34.06258127633952,5.867664653295209,-37.29601198505721
1.7312499,7.74134002610794,-1.156010323782233,0.3997301935259439,-33.63755221289869,11.902976549039819,-32.877036970489804
1.7412499,8.015040121314229,-1.1732262805626543,0.5392013683310785,-32.887536215165085,17.677223224336913,-29.399336018439698
1.7512499,8.181570032478012,-1.2172872696907018,0.4471448265225603,-31.62362772785157,22.00566270018654,-26.561879054797352
1.7612499,8.32575765280772,-1.5739910990627244,0.2553331931738543,-28.206978045242497,24.574621721027803,-22.926617963596406
1.7712499,8.450471305718708,-2.1283805099717603,0.36628782034030893,-23.14721509420368,25.916969574680262,-17.602421847941542
1.7812499,8.410300208860477,-2.6362939310659046,0.4944601548199143,-16.30278315849504,26.11217351579886,-10.9085239356636
1.7912499,8.311817477672472,-2.913947414197005,0.3450968332680191,-8.510234827463115,24.978462244658996,-4.227223155353816
1.8012499,8.410223412281502,-2.8596479584315793,0.28042332192033576,-2.9712951694796272,23.197909073766695,1.463276854000635
1.8112499,8.550266673739454,-2.6651859128312534,0.388468660432588,-0.5489568148038606,20.532296407122267,6.009548749676544
1.8212499,8.625201243922396,-2.5496877865772167,0.44975105893293305,-1.9697595001724313,17.045969243445445,10.378781478284843
1.8312499,8.811944928880777,-2.4384741686854494,0.3628977257194192,-7.560752685392592,14.010478213909286,14.752006571503221
1.8412499,9.053011065644341,-2.4518744640143164,0.24286503937635093,-15.622198771018969,10.833084306118941,18.767790374196892
1.8512499,9.223349467475398,-2.564037235294752,0.22400092595443824,-24.847271051063235,6.679311554911293,22.26970381580013
1.8612499,9.371920960057517,-2.4884496765136364,0.23469780188578232,-34.81700937654833,2.620204795948008,24.706732174850355
1.8712499,9.487144985699297,-2.3970872958812244,0.3558597254474478,-44.6596149424879,-0.7012547329712993,25.594113381165375
1.8812499,9.52826131636191,-2.4587759581938577,0.5824678238443022,-53.74612373900273,-3.148789106884785,25.161986934807903
1.8912499,9.487868858128515,-2.604602339024,0.7799563830321189,-61.57169525949491,-4.507622351034655,24.110143159969724
1.9012499,9.318478612559133,-2.8712163732999576,0.9760438865834955,-66.67592887987495,-5.519024583459998,22.989125386511994
1.9112499,8.947732701467368,-3.171108355876547,1.1898031498979107,-69.49343870367575,-7.5655631217754165,22.299238303766288
1.9212499,8.819927646439787,-3.496526704017206,1.3852858051612704,-69.32167407997594,-8.012617144773202,22.224225220753894
1.9312499,8.89024575768688,-3.7028589777759033,1.520639928939508,-66.65646874021661,-6.2120848604638494,22.85101131698973
1.9412499,8.879765708527339,-3.8011264416759105,1.5903502668051366,-61.36245369046793,-3.1797281207080412,24.29900705248008
1.9512499,8.54013059248802,-3.6616477888009955,1.752629735754803,-55.97157573080749,-1.451150695935068,25.962842210359735
1.9612499,8.577126795869878,-3.5484992337822914,1.9814268458617479,-50.04425490597777,1.292973608348394,27.57574172099267
1.9712499,9.189319912129326,-3.793875377294848,2.3831142158828027,-41.14141344912978,7.246985118288028,28.682901682112238
1.9812499,9.07419285261869,-3.804147022090138,2.7465095734772733,-33.702034817119234,11.784520109009618,28.716006678818495
1.9912499,8.854614295799585,-4.02947905207717,2.7745888594901933,-24.61141193884006,16.88968611413623,27.759526136073248
2.0012499,8.513054750003548,-4.26867421721996,2.590353836515784,-16.170544934098714,20.001588848450783,26.16758983461923
2.0112499,8.257487514297862,-4.5581489284255134,2.2981866930004924,-8.908677646831054,21.427154935386465,24.660529649693633
2.0212499,8.282939679971987,-4.878124882486117,2.109309176472862,-1.2056388449766622,21.840162377775215,22.97863869588337
2.0312499,8.364095414317191,-4.880838928830228,2.0930538829726117,6.367990413771391,20.512152133682857,20.411935840475454
2.0412499,8.481045792472774,-4.722899719155972,2.1405490282847492,11.15585752977394,18.564771740424145,18.108622561516224
2.0512499,8.562478188968736,-4.406130481801713,2.070197334727428,11.06287050793301,16.545948824229423,16.344315019701625
2.0612499,8.732118646973717,-4.139977277922605,1.8850414076094335,7.825728742354896,14.797210041461302,15.479966775187359
2.0712499,8.870352475718244,-4.0121457963683245,1.712999461174929,2.6102865506919497,13.105309850357989,15.425631487736062
2.0812499,9.005174813452472,-3.944671470545872,1.6296806993777617,-4.389121914824308,12.087091435034914,15.475238157358161
2.0912499,9.140370047610848,-4.050558749879259,1.6427243362948962,-10.642592469123707,10.72735132891495,15.365327370887409
2.1012499,9.174939730336062,-4.3859087631036076,1.7132661295162583,-14.591573949387861,8.938288457211629,14.82436115472343
2.1112499,9.212679660236915,-4.816591760716559,1.8013810183514056,-16.17297909363404,7.328116727873946,14.152483321404496
2.1212499,9.221005779195036,-5.2252736365096,1.940098986848314,-15.115399228271038,5.457172717629558,13.184965251995322
2.1312499,9.258897441031348,-5.557601425560817,2.1347892046596155,-11.522368139264794,3.913517899091562,11.864361094785322
2.1412499,9.379489430388919,-5.811024734612207,2.3152837505380788,-5.946508619955762,2.8437188203444643,10.37257612963218
2.1512499,9.414529922592765,-5.994715047076587,2.4154927221135964,1.0775694713519592,1.8340691420711606,9.00156126383602
2.1612499,9.315642212523302,-6.018337814557685,2.348280397060025,7.847926074418794,0.6234066117231811,7.934384441249494
2.1712499,9.206129554127783,-5.760064779153927,2.126396043498634,12.764259179267242,-0.6792078174905826,6.728514385121425
2.1812499,9.12821386268611,-5.334643276961607,1.8957562158705792,14.964535744197613,-1.7045478405933447,5.336150829111129
2.1912499,9.034543963313174,-4.9612976981748504,1.794452430299286,14.719644579843505,-2.6862599606523014,3.6155928629914116
2.2012499,8.990917939476317,-4.580107004390808,1.7083756880058336,11.908473628862275,-3.373804592451231,1.1945403533255463
2.2112499,8.96688605254449,-4.250291906502483,1.5974708643763909,7.186629190460299,-3.666502000996094,-1.2761305697359966
2.2212499,8.800745282691068,-4.039091266105644,1.4927364593590817,0.9400843710107478,-3.969188763318425,-2.987331347400483
2.2312499,8.615084764694235,-3.934370304707839,1.327111240431061,-7.121480388982171,-4.316080255215522,-3.750958913721271
2.2412499,8.497688769650539,-3.8587329454107064,1.174914482330288,-16.038719979935536,-4.8480838865971,-4.083437635669185
2.2512499,8.426658500339375,-3.8149032527091786,1.1688940066046531,-23.038712363539787,-5.725567304053194,-4.411211309898544
2.2612499,8.4674442919346,-3.927157063860346,1.315928190597478,-28.056115084804492,-6.396765201838231,-4.538794400260081
2.2712499,8.5528375918159,-4.138979613039054,1.4797540125419348,-31.345519824974815,-6.293179824020106,-4.259661866160184
2.2812499,8.559920628612096,-4.301366900298496,1.5013144108617456,-32.97530972198037,-5.568541380024351,-3.666962376930064
2.2912499,8.477343041968107,-4.467319078891627,1.4821217976630072,-32.77804328114545,-5.040172840080643,-2.9618914506225584
2.3012499,8.428778630322943,-4.797247972268736,1.5655390224435612,-30.077361722198727,-4.685972622045879,-1.8822008583924192
2.3112499,8.430646678511515,-5.163197486392145,1.6392082247876483,-25.31352404302724,-3.9689000799417915,-0.2847413977654541
2.3212499,8.384684888268012,-5.352340088071013,1.6152435551968443,-19.44490744899473,-3.3106069748437514,1.4048247398528046
2.3312499,8.399874803984117,-5.433178986922258,1.5910931538877235,-12.651562349792478,-2.9246973529376574,2.8159507553459338
2.3412499,8.472005456939685,-5.495336538500854,1.651263030057025,-5.492176533026129,-2.289447808065823,4.16707094816535
2.3512499,8.431764912508555,-5.434997565018875,1.6502853243968656,0.4881443751437669,-1.7115813041895638,5.410126595057839
2.3612499,8.344507825329313,-5.2553048555802935,1.4627891426404087,4.468038611762487,-1.4814866427934408,6.237145184743987
2.3712499,8.275429904550409,-5.0203583986533955,1.199238367540156,6.189652730552099,-1.6126709199756628,6.787965423898215
2.3812499,8.249676716772047,-4.793408985885087,1.0360409606665544,5.488094162429077,-2.219924407063338,7.287611835063947
2.3912499,8.286931291684832,-4.646107073199397,0.9439292393056403,2.51206361402697,-2.817671355161734,7.713791271904464
2.4012499,8.330936780831074,-4.57367917211627,0.8956262845568336,-1.8614050870220968,-3.3408429303234017,7.716548061209577
2.4112499,8.342358388435278,-4.574415181387872,0.9279782212384584,-6.933345312818775,-3.6599155820512235,7.584124759372536
2.4212499,8.267938588671617,-4.6594105522572224,0.897588606690353,-12.315479639178418,-3.893242956699881,7.898817838346144
2.4312499,8.201223635355598,-4.8222948360819125,0.7624652380575571,-17.363276628379353,-4.107403020412882,8.647128205956314
2.4412499,8.154099173910845,-5.026811289813529,0.7005178407978563,-21.71285616440051,-4.014882494626799,9.27134231614666
2.4512499,8.018198671927053,-5.281088327068218,0.7178301953253193,-24.875890649096192,-3.850130720332113,9.711510767841904
2.4612499,7.844036443464194,-5.544191740112934,0.6500257144664372,-26.269830732265003,-3.7631452987919136,10.121909653574102
2.4712499,7.673508937143064,-5.758890755070957,0.400033484687679,-26.822326549070752,-3.5750753086821185,11.067809755285712
2.4812499,7.487832527240952,-5.867558406963645,0.07400989504601795,-27.51034949063848,-3.414999443153072,12.46018189331922
2.4912499,7.336862110303481,-5.839433494565444,-0.14214904761968244,-29.287459317670994,-2.8231643494625516,13.871652291099634
2.5012499,7.212787513260344,-5.708438503419875,-0.3123248442784111,-33.00386368922319,-1.2237570677269505,15.42351397585921
2.5112499,7.023831146114025,-5.539714563711151,-0.5841659454439798,-38.610654690565504,1.177334740361862,17.291613798818922
2.5212499,6.744418593528455,-5.378155572548693,-0.9130653632525989,-45.941875763347774,4.3183781296174075,19.426388988483367
2.5312499,6.408180045792131,-5.223355807718338,-1.230733361087865,-54.55618481989736,7.965290712330337,21.95269883391242
2.5412499,6.048716292039293,-5.1314306569515775,-1.502296755336216,-62.92632258485588,12.011714248205584,25.267063856715698
2.5512499,5.55795015717332,-5.026130484155535,-1.7036878574789378,-71.40552375919542,16.46845710842688,29.21815642077731
2.5612499,4.903078274782388,-4.839450576358271,-1.8181586655878268,-80.32071702015584,21.25981853290594,33.827265056845825
2.5712499,4.419897386922103,-4.971634908480191,-1.871029665640383,-85.12011798700738,27.456558000915084,39.88764044901263
2.5812499,3.682649556978336,-4.9609842711753105,-1.9145377657050167,-88.57236849405405,32.70143665889464,47.9477883011115
2.5912499,2.8300201378421086,-4.808990803468017,-1.9730409621133251,-89.62801636682536,37.554298888197714,57.82463259714611
2.6012499,2.073183475445975,-4.623795945768843,-1.9758246111512658,-87.43258704315012,43.238883742971545,68.6413358797878
2.6112499,1.0923989510127325,-4.095605922611608,-1.9943677432708575,-84.71231384370363,47.994805815355456,79.74357179909927
2.6212499,0.3137056570216935,-3.668050941247309,-2.081953167023246,-79.94614059682053,52.77155213326222,91.04669400541616
2.6312499,-0.25162912596630593,-3.2728126368593795,-2.0616829543323885,-74.15220281145419,58.39585842417454,102.82345698722388
2.6412499,-0.9261742604980834,-2.6572365564809535,-1.9453936091912172,-69.36202402415915,65.02708583005311,114.88243441759661
2.6512499,-1.5468331436947176,-2.02859609940318,-1.7522212572887501,-64.19202203369134,74.39045218412834,129.1249281946751
2.6612499,-1.8832676115310167,-1.5025845379043217,-1.3971038733122243,-58.04868344397487,86.90377679949091,147.18166505864906
2.6712499,-2.0244458823228824,-1.181153215958676,-0.9933942596884386,-52.52603258004145,99.86616076684831,166.4308511367851
2.6812499,-1.918088571818066,-1.1170820086916156,-0.489664025622985,-46.234249565131414,114.652805121104,188.8644424291661
2.6912499,-1.5573939345557537,-1.1796084940389915,0.1712003985175991,-39.149055096997486,131.3873818011997,214.9627611258868
2.7012499,-1.1538181543771697,-1.3203931464334067,0.9508153758026723,-32.473349333965444,149.1427866840125,243.1662699854921
2.7112499,-0.8156785128214765,-1.6086570656047223,1.606107263545052,-26.231553547612755,168.10443192121133,272.3745774091691
2.7212499,-0.9243566396901178,-2.0471612801219554,1.9871528850108249,-19.907607486559993,185.85864893411926,300.97545129570307
2.7312499,-1.415548753339572,-2.702549945824642,2.399696759551463,-14.000745724356456,200.3789430776502,327.4031689422625
2.7412499,-1.8783950174921613,-3.6866128278417514,3.023066932102476,-8.669573130155207,212.24507183760434,350.1342653098788
2.7512499,-2.396541704687081,-4.864875846503703,3.6254565682566495,-1.2937231093632233,220.4299727979577,368.07478441528224
2.7612499,-2.908883258488922,-5.953802486704069,4.3655666515112355,6.471676091220408,224.89124947710638,381.77756880904474
2.7712499,-3.1897274608900865,-7.180361945142262,5.650974482924315,13.86570796214956,227.66640130690382,392.0157324266712
2.7812499,-3.3283436939362043,-8.715959681650604,7.50276224873282,20.668475700742654,229.4011450509811,399.44528082427985
2.7912499,-3.574991043733749,-10.578404305754548,9.69678120839823,26.715926456807495,228.37052941541864,403.68771517170353
2.8012499,-3.660172736412039,-12.737752845559749,11.832697455640416,34.076648839164264,224.28398635647673,404.1595265906437
2.8112499,-3.3565801375120525,-15.224523143350101,13.526782291423382,45.37709978643731,217.08053836908124,401.74936962490386
2.8212499,-2.7003201509897656,-18.19515456007017,15.479026174254434,60.645133178423805,205.63046758398588,396.9515893517312
2.8312499,-1.6576146639337548,-21.450819214128195,18.31939960100726,79.17022523259553,186.86766065568872,387.7560853605325
2.8412499,-0.015490648294712571,-24.21095130937551,21.147248993464792,102.34412572666784,159.5102261020246,370.3172726580711
2.8512499,2.5067352219752537,-25.964608668971458,23.395281046761674,128.13972047770883,123.02178601976506,342.7814916825911
2.8612499,6.231281881201838,-27.245362961906928,26.227337929633755,148.10121548059914,68.05794161243644,300.0516592655069
2.8712499,9.541578274046637,-27.755169945619016,29.089590295415153,152.60694010848724,0.6169287607615206,246.0552054605708
2.8812499,11.210507236908446,-27.06488154406765,31.26222762999551,137.92425690203896,-67.22953723017085,186.85608839357099
2.8912499,13.076126096573159,-26.5815416628395,33.67931520711128,109.80923113727037,-141.88065034696675,115.7533082581263
2.9012499,15.47670849094555,-27.388704612311543,36.508466530698435,80.73054000695375,-224.3041512947669,32.259233624997286
2.9112499,16.85943966645097,-30.30043453096367,41.12930777738763,59.9887595072365,-308.34645955278063,-57.25570032668312
2.9212499,14.914174977152939,-35.893161993218364,46.71672606031279,56.900792287146906,-387.0280101171619,-146.5378995578258
2.9312499,9.265085043911883,-43.0259366630213,50.24220480118136,84.2116635700716,-459.80966319800575,-238.55327492511836
2.9412499,1.607182209369417,-48.883790434391436,49.43572599352445,137.522260388629,-499.6298189484228,-332.7893042735554
2.9512499,-6.666858613982112,-50.89970323763873,44.725229123365416,186.09740406661595,-500.68257416180893,-414.48623801524843
2.9612499,-14.417568691289912,-50.13082999716874,37.9585650926582,203.76373417501384,-499.4134325421245,-473.2005237651887
2.9712499,-20.113539670556523,-48.12020500367041,30.44042645866724,185.132986684784,-500.1413160842905,-499.5830955256787
2.9812499,-25.30220511950539,-45.264819641458494,23.23692925148241,134.09914704818337,-500.2829739265598,-500.75378857209296
2.9912499,-31.966181455829922,-40.814214159925704,14.812096900212534,66.92040886612291,-499.55698103355377,-498.92061372333853
3.0012499,-36.88539777466388,-32.13039661165095,6.475088322646177,-9.200648273113933,-499.63383700584285,-500.671705453315
3.0112499,-43.93072004447169,-22.09279272365497,2.2062619841664723,-64.61092887605669,-503.3838495792568,-499.4904546334753
3.0212499,-57.724226269918255,-15.740187781489707,-4.786582538158523,-61.8293925306809,-463.76635971999883,-431.6324161922391
3.0312499,-63.72850258746411,-10.580479406820112,-18.379050742364345,-31.614414878425013,-377.06080163611205,-281.6575782496166
3.0412499,-50.566113031858784,2.338662330744865,-26.79386747512922,-31.677731429857438,-297.9370367351081,-140.00683575769077
3.0512499,-34.423669872805,20.132720819977997,-24.676742053770546,-71.09863311291006,-225.3051523777302,-65.76629164072193
3.0612499,-27.310416046062365,25.151506695136916,-19.47258498065223,-133.1931416882128,-158.30366780483106,-13.867565927111965
3.0712499,-22.674997153366,17.26508510957069,-15.007189618385242,-197.88540535257306,-82.08420610872818,65.81771190100739
3.0812499,-19.056983930777598,10.988001764852054,-8.655836383978816,-239.379411160384,-16.821048032341395,122.89419057552071
3.0912499,-16.540510732942465,5.331363969026989,-2.3612123752938996,-236.96885453094086,14.684957572006281,127.08672859318958
3.1012499,-11.462447087985216,-3.7870367447918367,1.3957018496142617,-201.32410926490346,29.47779610321235,114.76075205781933
3.1112499,-3.5807408796063003,-11.555456639249416,3.827223800182289,-143.55731688324875,36.47197552855667,99.79622172469531
3.1212499,4.758359377546484,-15.523996391843749,5.380747232546786,-74.33311817324193,43.85668834226437,82.96693814558944
3.1312499,10.817651593858825,-16.489928343268456,5.758335436530695,-13.227342717827634,52.48306592443865,65.878327575328
3.1412499,14.371832108923515,-15.491427481416554,6.290994471612763,28.463647908390154,60.08685879577119,45.119678502207876
3.1512499,16.01830719061972,-13.946303963476183,6.964679248567126,55.31240211693538,66.1204303825779,19.466308288625218
3.1612499,15.877663920177664,-12.502358184042546,6.733686528173445,71.44965851974706,67.91535620326754,-6.067162387524203
3.1712499,14.929278607297073,-11.384700638338364,6.271830119335765,79.1753757570963,65.01643518765957,-27.280159584972267
3.1812499,13.841011122800607,-10.579442667855938,5.847748720375022,81.56505875557359,60.055828452253905,-43.56918380164117
3.1912499,12.769705650819107,-9.373359464433067,4.760358942102012,80.65601071007275,53.6837759285503,-55.527112711038185
3.2012499,12.062904114381222,-7.847152709338358,3.548138456577434,76.13789783086605,42.950685775791285,-64.77692770386373
3.2112499,11.908058244185515,-6.665028378071358,3.0392977963903665,67.99430578327845,29.370806585571895,-72.40213852408405
3.2212499,12.021726747574313,-5.600547384382267,3.304198728603807,55.3258281488887,16.267700477571196,-79.01767942705496
3.2312499,11.788804017726598,-4.704202867343608,4.048861355016287,38.15692626352583,2.5666067403392843,-85.98489546821916
3.2412499,11.436979758862762,-4.555877562679002,4.7570757478746915,20.478180554823354,-11.270288947559775,-92.12210272156872
3.2512499,11.13964785589101,-4.960075289540818,5.098931886199987,4.026487846435784,-23.85558070190991,-95.63520490004045
3.2612499,10.627284111990368,-5.214906537746886,4.830423311012354,-10.894249980881318,-34.63297875479827,-96.06684615050966
3.2712499,9.955904582016407,-5.160690242685571,4.157001330728189,-23.58114068799471,-44.06197110670497,-94.77007019162552
3.2812499,9.31863337704171,-4.822305631687978,3.5146362387396235,-35.566587102988606,-52.309430668868,-93.24660494628327
3.2912499,8.786942553356816,-4.250160181254743,2.981628235042843,-45.178609407584155,-57.490940877196095,-92.00912790874537
3.3012499,8.340977386389625,-3.786137752077167,2.660047503039783,-50.41901832492972,-58.89640981600575,-91.08864314298067
3.3112499,7.951943082339135,-3.363025929870155,2.5513257574199932,-54.074277302979894,-57.87830824564862,-89.40572217900991
3.3212499,7.62161398986464,-2.8678012624520957,2.468897902649222,-57.55234419656686,-54.593192938713834,-86.62924208184333
3.3312499,7.443804516672134,-2.562553895358347,2.337492521172977,-57.202794219568204,-48.84943264229488,-83.29923504390408
3.3412499,7.20916384253616,-2.3424537013961637,2.116743047169133,-52.35166394859039,-42.21853067156921,-79.57841679104698
3.3512499,6.705511991968068,-1.9388232865214843,1.8025811825158375,-45.717457605899696,-36.46427208062651,-75.1392932225422
3.3612499,6.231620965124392,-1.5958528508454304,1.3463936411529007,-37.58854658436491,-31.219855646025042,-69.47903499119319
3.3712499,5.976835429085947,-1.4509288845117874,0.7591781525179045,-28.257820966008094,-25.87615494003128,-62.30503353437767
3.3812499,5.905308237463331,-1.2108524694179932,0.24660221942089194,-19.60114912950098,-20.949915897022898,-53.953918714991985
3.3912499,6.040631677484009,-0.8454789780981696,0.12243828748888352,-13.114695478757517,-16.43962125184305,-44.94788690134577
3.4012499,6.364420797233843,-0.5805594885675557,0.3291416741667792,-8.775141797361236,-10.929865101343838,-36.413673255565996
3.4112499,6.74460884468885,-0.42600266457237695,0.5189886847998783,-6.506393891708179,-3.902354640370057,-28.6173753136934
3.4212499,6.98716518699572,-0.3307453344853729,0.6520625405791397,-5.825743001898673,2.6669242041101247,-21.609723418298906
3.4312499,7.205745235586655,-0.4072328723736606,0.664411362716343,-6.043983751552412,8.849276908617627,-14.953677482713555
3.4412499,7.364646473610502,-0.476396231925448,0.45017674493450066,-8.625174846756511,14.401675146223601,-8.492425767081869
3.4512499,7.1050126799208355,-0.5313503455916395,0.27982384515195463,-13.526891250842915,15.854288780554294,-2.871330421090268
3.4612499,7.147367258707108,-0.9920921229292814,0.1802870275510968,-17.354413623052555,16.49756427992324,1.7035062324091668
3.4712499,7.827323712422558,-1.981901555895784,0.18937299946469943,-15.832134794389031,20.34364514790125,6.291328290512473
3.4812499,7.665550123753134,-2.4744267147667873,0.29192290656945663,-13.86517127121419,19.29332790258566,11.476093047960832
3.4912499,7.6041141776931,-2.720864101861322,0.2532158568348677,-11.352292704394369,15.262130730575269,16.793671035017493
3.5012499,8.20695925917854,-3.084273562887498,0.26327822631575903,-6.5771481575478905,12.952185330397889,21.223610297229925
3.5112499,8.722147761837874,-3.2034892282623124,0.3984972488580832,-4.510861682213338,11.382237993903434,25.117603473586744
3.5212499,8.918592119350725,-3.266716208996301,0.5204126081445875,-5.890343610370447,8.67573909894709,28.763715589955787
3.5312499,9.059177345725177,-3.2997389328701088,0.5019495136874347,-8.37546526332913,6.293274711398567,31.22690352677666
3.5412499,9.38705389086605,-3.1646087501203772,0.4418738422932102,-12.263860465414098,4.478763023723793,32.082312215413296
3.5512499,9.878209896559035,-3.085544575867748,0.5173346575684185,-17.025794766572393,3.3031246728176415,31.640716414403606
3.5612499,10.289227990229294,-3.2260039465591706,0.8167830438649234,-20.692635987872695,2.763974553458688,29.93995167811872
3.5712499,10.499929665040506,-3.4808025599218957,1.217423288699753,-22.673317845610867,2.6625702463131433,27.458936675971405
3.5812499,10.51020973319676,-3.7000816032490857,1.4690864177706586,-23.750452342916873,3.2995391434411645,24.782800778424196
3.5912499,10.32809649236965,-3.893986060568964,1.5702555281253956,-24.06578846928291,4.12730909662358,21.945752467369584
3.6012499,10.03652043678948,-4.24057160462855,1.653614316626095,-22.64937749664568,4.372435586136952,18.881145795607345
3.6112499,9.710707909630354,-4.568909270162879,1.7005333385815973,-19.454432781183037,4.099542428277061,15.972199652167014
3.6212499,9.515904500075678,-4.622720367261853,1.7089688328392032,-15.726768571090311,3.6862728833093548,12.86748105212151
3.6312499,9.534207391942191,-4.580474749616094,1.7763810193762146,-11.869803438921576,3.6841131881887135,9.237847824635598
3.6412499,9.498705268575097,-4.583985596765572,1.902980447037977,-7.957286301354998,3.729868941672139,5.862633717678488
3.6512499,9.315661212671344,-4.5148312410302,2.0085420126117275,-4.593865683810306,3.219988953883061,2.880687384502057
3.6612499,9.341773556097742,-4.566642186768542,2.0474578419969784,-0.06631639475658982,4.032849099707245,0.601748246497113
3.6712499,9.237383283045162,-4.515074360937542,1.9469310640164412,3.538516352966125,4.030530556326949,-0.7922461723054324
3.6812499,8.890096332488827,-4.2292684338343065,1.7287132305168564,4.872171388326776,2.020323252563476,-1.9559213438033056
3.6912499,8.757238363865008,-3.964451600408115,1.56130949544099,5.253455013003658,0.046197023485110976,-3.139646672951872
3.7012499,8.744253276862043,-3.597286561153604,1.4944420082033436,2.8897341277697626,-1.8994117828484378,-4.555350069659492
3.7112499,8.802331653619959,-3.421243042512018,1.4604097482154508,-0.22135468525139232,-2.5804246751696494,-6.010608737525958
3.7212499,8.883326932199392,-3.5382195944831163,1.3983414762989617,-2.261414176324836,-2.571725275527867,-6.544789626036444
3.7312499,9.004212570084153,-3.652417446748097,1.365398632077182,-3.9340115815225585,-2.409012772851262,-5.916906766933665
3.7412499,9.092918975937431,-3.6861235637460434,1.346637479659037,-4.579840444028037,-1.9622401566640724,-4.592951533097594
3.7512499,9.15807908153553,-3.696473468220061,1.3913353841772973,-3.777648422025512,-1.4873250757079253,-3.2860674331297988
3.7612499,9.230604101627451,-3.7548804567972693,1.5265059801366923,-2.0915229102519803,-0.8604204096999344,-2.0201267232811606
3.7712499,9.137599822748497,-3.8167772533119084,1.5715926427262334,0.539477116716558,-0.34733348660094826,-0.7075785276679265
3.7812499,8.912130023917223,-3.8432290844581445,1.4829345595496088,3.9481078153045277,-0.3012380679164004,0.4203733204579612
3.7912499,8.747196306882296,-3.862470754398003,1.4037246787203157,7.136674859481792,-0.7960122563184744,1.3128265310745746
3.8012499,8.64878343238777,-3.878232154384751,1.3609330944097113,9.628584202740207,-1.5376973409184895,2.2986937120281317
3.8112499,8.58222971426407,-3.7999545096726846,1.3283734722373155,10.392236248389999,-2.242937108705206,3.4377178987056585
3.8212499,8.652467112000743,-3.6047384510836555,1.3576251817563436,8.963588963816473,-2.304204319782963,3.9876098142757663
3.8312499,8.813253989302725,-3.50659700844858,1.4722890583447727,6.248714209771376,-1.9364736705529728,3.7965159481208812
3.8412499,8.872845363064624,-3.5834234689400297,1.5468404193811165,3.3175028915702627,-1.5474288887187262,3.436069877130402
3.8512499,8.886469358721795,-3.683145345443271,1.6115097618292276,0.5495901651742442,-1.0985478687822121,3.562916332375651
3.8612499,8.842731248300169,-3.8200021054615214,1.7466953077701743,-1.192786392592544,-0.3999133385672795,3.7123267892183813
3.8712499,8.673356918572054,-3.978291134305958,1.7274331505813858,-1.7586317104307405,-0.08387262272355951,3.5163837243417007
3.8812499,8.522414505774595,-4.0727479080635804,1.577240757101673,-1.4313106362914025,-0.4655287573888086,3.485785049051955
3.8912499,8.435207647352597,-4.150560047767525,1.5367199591003902,-0.4836038583371001,-1.2909143740296696,3.64976785656552
3.9012499,8.496232210229772,-4.234784135645145,1.5876105289093256,1.0974649712327098,-2.141539631143463,4.00309352354455
3.9112499,8.65015665898112,-4.1943933308717565,1.611577937256665,2.8788739420718135,-2.6279145981212766,4.528197472714525
3.9212499,8.731276828012218,-4.129256515575993,1.5577373113840052,3.746746990119994,-2.92537763902073,5.287557949195669
3.9312499,8.779310445318613,-4.096564845519072,1.4602495377691105,3.4935000003844823,-2.753040496127589,6.123102695139633
3.9412499,8.802788568578539,-3.9716138912442234,1.3855167247834503,2.1984953912372123,-2.425336786447037,6.760792986988262
3.9512499,8.80418145601919,-3.8790286469322677,1.3370026621141826,0.4478368659674584,-1.9931887548504459,7.060660859046312
3.9612499,8.828829729497247,-3.951277458077642,1.3493289834950513,-1.132562736336662,-1.2397376378511968,7.025226168153423
3.9712499,8.839101342268048,-4.072299423231202,1.3370631743959567,-2.439743263890793,-0.44339281527277674,7.066633625780111
3.9812499,8.882475693284684,-4.183393460234191,1.2765857843241222,-3.027913934952151,0.539737542165994,7.461982345813946
3.9912499,8.95286121854031,-4.278796986239524,1.260609754729023,-3.662322338534885,1.5728179958527901,7.984284104002372
4.0012499,8.925091002025423,-4.382248783052401,1.2334213207629598,-4.442564141297865,2.7741054575758217,8.186739272570017
4.0112499,8.798304509439678,-4.437549558724634,1.1623515832915803,-5.622772216518855,4.109948543445938,8.257548384747146
4.021249900000001,8.710816570457279,-4.418322568748391,1.1127578517778256,-8.05639666786187,5.4979844938412175,8.395185917591611
4.031249900000001,8.760905047985267,-4.465308733462491,1.0622608631523436,-10.850491868193092,6.686621246786818,8.48462688960386
4.0412499,8.761724502048613,-4.575717430811004,1.0335798328451982,-13.38229441895066,7.635595218208629,8.760259190246167
4.0512499,8.618764540050382,-4.726877394449346,1.0711238286830365,-15.631938376568247,8.35365349605566,9.366629033574945
4.061249900000001,8.49000749056726,-4.902890830561732,1.0736948342012875,-16.975338353887178,8.765887309886084,10.294198143304461
4.071249900000001,8.387911281439886,-4.991144209301126,0.991144872240172,-17.348567103348106,8.602663185945248,11.547645049996948
4.0812499,8.296214877270897,-4.991777428522539,0.9678568514444135,-17.497051387676382,7.821854334438689,12.617123205167172
4.0912499,8.272015595284183,-4.951683417971811,0.988630035519449,-17.773182981386395,7.176106365969111,13.190685571412022
4.1012499,8.275673408930018,-4.898688743853772,0.9954871846686151,-18.206170344605805,6.664548161767101,13.165172885410819
4.111249900000001,8.202456007772472,-4.892157969533339,1.0041368131365973,-19.42882501727612,6.381758089963964,12.931379144400607
4.1212499000000005,8.00152776582077,-4.920707653029973,0.9410507660513765,-22.24489189488431,6.473370479824971,13.04905516750265
4.1312499,7.812763720861356,-5.000343642475076,0.7815295809593685,-25.608735956573046,6.98192115489185,13.700963483823811
4.1412499,7.672911442227975,-5.117444892594655,0.6054488974133336,-29.365011143731618,7.979863897211902,14.991178063459987
4.151249900000001,7.469000615522567,-5.2220748138136575,0.4206048142116662,-33.63981913136229,8.976586232997763,17.14125642316144
4.1612499000000005,7.203002311068192,-5.2541276739934855,0.17814040566759096,-38.36695498151256,10.124504590819507,20.00748083858178
4.1712499,6.9830798029829575,-5.213580347842617,-0.10498645523380203,-43.979495522683884,11.837174319949247,23.140513388644617
4.1812499,6.810202386597854,-5.111126454352391,-0.35814256842225745,-51.003870356493,14.140814522449508,26.06582981418493
4.191249900000001,6.548886196833647,-5.022020549751958,-0.5451536555583409,-59.01537024259542,17.323678766358164,28.859384573762718
4.2012499000000005,6.0960276940794405,-5.008317874610604,-0.7220769067640397,-67.2329850394126,21.16721364895233,32.05566370340794
4.2112499,5.455043901321832,-5.091191567398099,-0.9483479709819894,-74.61717336741967,25.30835112158256,36.28986686375864
4.2212499,4.619536925447556,-5.200808572862401,-1.2473991926323706,-80.55466440563434,29.999852653440403,42.34746116778662
4.231249900000001,3.6982410026103123,-5.188298602676056,-1.5154559516105235,-85.4812943181762,35.53179131187315,50.46542752751918
4.241249900000001,2.896898334503264,-5.0708887968809915,-1.6652466557209322,-89.16037725037161,41.6054631500316,60.2442370848151
4.2512499,2.320008781570742,-4.897871717355373,-1.761814560854503,-92.03435322075018,48.304427108347106,71.68084188393424
4.2612499,1.7840254863881555,-4.70931526926836,-1.7570279899047525,-95.31433787886418,55.691175907997284,85.02906137096983
4.271249900000001,1.1771041683027845,-4.491211602099976,-1.6938245687311815,-98.28161163090641,63.59856958044117,99.38043906613505
4.281249900000001,0.6342370221388971,-4.213488712390606,-1.7082157493522019,-100.90017804825231,71.80200189485615,114.12323806346122
4.2912499,0.19205276423022227,-4.043033949152822,-1.671247124871695,-103.55247320842834,79.6717680883679,129.16991636250103
4.3012499,-0.13335536777335713,-3.9714057924628605,-1.5171580387791075,-104.75192597187322,87.53629567223028,143.95177014068815
4.311249900000001,-0.3502014161204188,-3.84090948633094,-1.3658506779605337,-104.15307977109157,95.41587035338485,157.970833728735
4.321249900000001,-0.4182791205772106,-3.7704391499630407,-1.1625756434364238,-101.32898938956025,104.18465488687092,173.61672478718123
4.3312499,-0.4037005338680512,-3.7277992480634135,-0.8665318735655563,-96.31360731748585,114.00646828210061,191.7834250861514
4.3412499,-0.3246123707006936,-3.592929044555252,-0.5568777691216797,-91.7729178647592,123.21278925469824,208.373264470868
4.351249900000001,-0.18973558373158303,-3.4425916342708307,-0.21275794658459654,-87.1298319424635,132.8367746884019,224.54225724326255
4.361249900000001,-0.06959929836180719,-3.3429230595627324,0.14084201992545464,-81.32402926529717,142.89524055920938,240.981527970262
4.3712499000000005,0.05309235120365881,-3.5061368855306814,0.637126238726084,-73.92260805130104,152.87398292944883,257.3908930029458
4.3812499,0.11990149375204454,-3.9461939774918657,1.389345523719092,-64.07672417640379,162.41661968467025,273.86835326007224
4.3912499,0.05545273694149788,-4.365061356874066,2.0755447285821242,-51.71818724787865,171.5289250118838,289.83290102538535
4.401249900000001,-0.12978366070676128,-4.801575473576091,2.6566119956611502,-38.20938449316482,180.39900880220958,305.4318504388097
4.4112499000000005,-0.33358532874649716,-5.114942964313845,3.123624930586645,-25.434780610540432,188.51614422651235,320.9283105802002
4.4212499,-0.49472754687849907,-4.952164624255457,3.446116175604966,-15.79581560804748,194.89065837802173,334.9611089411905
4.4312499,-0.6747576299773138,-4.78583564450391,4.130890315128186,-11.159651963854087,199.60381248838377,346.88806850556534
4.441249900000001,-1.004522071197447,-5.068422193853125,5.2217453165779455,-11.86315066570537,203.69232586796582,357.64172576955207
4.4512499000000005,-1.558500883074188,-6.032392234111586,6.691843549580458,-14.858917730329837,206.23448017463878,367.82147005814915
4.4612499,-2.1423721869266386,-7.911713646171204,8.73323624236724,-15.624357077569778,206.327087302208,377.42795712937624
4.4712499,-2.7912676940708336,-10.47947795837007,10.815411967333324,-9.185384814835329,202.37583755120312,385.86525074953965
4.481249900000001,-3.5702790645746814,-13.46513204063641,12.90906321218956,7.7195788873197655,191.9352144298312,391.6831244270785
4.491249900000001,-4.366005272172641,-16.91963148933058,15.782286133544835,33.247346651569416,174.26633340111238,393.3070411280996
4.5012499,-4.771526884268443,-19.9756989818434,18.114831213846156,63.48012912620042,151.92540661730092,387.48100760826657
4.5112499,-4.369300155551367,-21.682381486632927,18.942786099293823,92.30009743467438,125.37255489758282,372.3910519291306
4.521249900000001,-3.027345734785755,-22.905157161642865,20.795865668199504,110.66300660786472,93.29417500949695,351.2152381690517
4.531249900000001,-0.22354069358450285,-24.555812836984714,23.831874820724018,117.67412870014647,50.464438135138394,320.37544230197904
4.5412499,3.803319687787688,-26.232519631925776,26.275625482983457,120.14542555896088,-5.37091410176188,274.2839658136779
4.5512499,8.32448513074397,-27.808052348877535,28.237866328951316,121.55083739570843,-61.24004536680506,219.3319878371561
4.561249900000001,13.086778828933648,-29.91685931687467,29.587572613985877,124.51841000699997,-122.23643524799891,151.55142444760978
4.571249900000001,17.02706264435459,-31.38285723972452,30.626697308772883,122.78402458665244,-191.96260538628826,71.72872668659569
4.5812499,18.97460841131453,-31.980047278394096,32.76182011053537,104.63393946325746,-264.9244952079318,-14.195234665030483
4.5912499,18.23683750254346,-34.064505894085286,36.11395322105379,75.62620223500532,-335.3396910117077,-107.41722970166411
4.601249900000001,14.429040383007388,-38.45968494848507,39.71889466031066,53.54559986294481,-398.68966320486817,-208.66297691143626
4.611249900000001,8.44975459254981,-44.256403749456155,42.238972976253834,50.79623876406429,-456.9816903448159,-318.47716052763315
4.6212499000000005,1.733139825981209,-50.89183453175262,42.01357265954864,74.51813076886825,-495.7527787850528,-433.5762299630735
4.6312499,-5.97482884634926,-57.1256439283527,38.729458744702136,126.48585829537772,-501.3170642641718,-499.21409196276875
4.6412499,-14.09600754063569,-60.1204441497379,33.45544663483781,186.20251463606223,-499.3491838260825,-501.1794065247784
4.651249900000001,-22.367187469365327,-57.49428418197112,27.252272423009828,210.8634789296975,-500.1598389580699,-498.8620544857382
4.6612499000000005,-32.4978652049827,-51.36038997337755,20.453591824163862,192.23283033248364,-500.3205156148527,-500.7235576192849
4.6712499,-42.743672843908165,-42.394832920064324,11.281300478407209,140.13787893655837,-498.87954287804513,-499.74269978648914
4.6812499,-45.01921822330276,-27.399057799842,1.268219752043955,54.13747369856446,-502.16084206155585,-498.9406184489396
4.691249900000001,-43.46973845873893,-10.809744014304638,-1.2728164371923651,-48.76659704949459,-493.5175037120161,-504.2892700033405
4.7012499000000005,-47.27725561339992,-6.103500962578631,-4.190717420575134,-91.35180531963654,-425.4333774030507,-461.1200070417692
4.7112499,-45.38016595506917,-7.530120919714318,-14.617010155462125,-60.36802709016545,-335.21879151391465,-329.3205503968861
4.7212499,-34.85409909089071,1.1278132789878408,-19.363543430217852,-19.131585052982892,-271.15808210150004,-194.56472950737012
4.731249900000001,-25.777839504121577,13.813106692185015,-15.686766008086622,-6.767261095147476,-209.39693891266936,-113.38134086851693
4.741249900000001,-20.472223164526277,16.77994530920649,-10.756132816416201,-26.718565674095714,-136.45501485084787,-42.748548174736854
4.7512499,-17.782566102540997,11.64135753028783,-7.233023235607368,-66.58238185800359,-78.77816089603614,36.05021066281179
4.7612499,-17.208026993431776,7.12183475724998,-2.866307151222344,-101.95419043890402,-50.89287086375754,78.91074671287417
4.771249900000001,-16.35823791214713,2.704575099275511,1.3816691296640453,-119.26139161087174,-39.49950944570682,85.32634553888522
4.781249900000001,-13.056151416826669,-3.3515231117979924,3.078650226283896,-116.32691823004426,-35.849451970218624,76.17599713970391
4.7912499,-8.003148864868761,-8.508607957093433,2.897374907898801,-96.40013101222318,-36.81837202875785,62.56165167311525
4.8012499,-2.3441946999525265,-10.297726812392094,2.709987054733162,-69.6071109312685,-37.30391273485997,47.27321842785305
4.811249900000001,2.530867311894074,-9.221083967848248,2.7388114776664407,-46.412964889877934,-34.15393713475759,31.994106130724127
4.821249900000001,6.077028920735466,-7.874012010258934,2.551707718861425,-31.436294859378442,-28.088755777136026,19.0057049079778
4.8312499,9.01729821650571,-7.283360361128613,2.544727338919455,-23.13727532930181,-19.118425694527655,8.662391879881936
4.8412499,10.90817419752357,-7.037755885885371,2.467594499983339,-18.367075172708685,-9.411241047547973,-0.8120655428502208
4.851249900000001,11.407717936525811,-6.875272979293767,2.3485135343057575,-14.579158844058794,-1.8732769491836287,-10.633858151194584
4.861249900000001,11.488006421478257,-7.02625998376023,2.5630189791018494,-9.201544987819837,4.994489616362293,-20.311027996299998
4.8712499000000005,11.625775208781603,-7.256236053377256,2.6160213460231976,-2.9044034864307733,11.485405359056145,-28.92745206380931
4.8812499,11.645063019806699,-7.1668345138015574,2.169475805687262,3.746837090444864,16.16642057391332,-35.58133103594095
4.8912499,11.652525296027692,-7.04014048427627,1.7708460009243976,13.080706022934312,19.11290065571041,-39.69309368565275
4.901249900000001,11.70868860554535,-6.907514081392349,1.8843024926611796,24.43130356557046,20.09194290563119,-41.679879513697145
4.9112499000000005,11.66963412011334,-6.6322994559063595,2.3683005640169497,35.579845892730575,19.641054748932827,-42.735846752416826
4.9212499,11.290173737930091,-6.2343604098549985,2.5320512308526557,45.57930461704655,18.27765561659636,-42.97200296887066
4.9312499,10.572846869681047,-5.773050544148211,2.355474342835429,53.28642952758205,15.854201648166699,-42.42044634252877
4.941249900000001,9.823385720602204,-5.367854363780895,2.30503771960692,56.65075185606046,12.990582809019514,-41.454057582161326
4.9512499000000005,9.165483769006755,-4.723361630097542,2.0823219324550815,54.050999362765594,10.261461857485765,-40.52730950584982
4.9612499,8.842599369938476,-3.861562584127143,1.7468852433797848,45.94495700729305,7.821184854088272,-40.50908089763111
4.9712499,8.82020095685087,-3.2146711889828175,1.6863732527744968,34.343879670478124,5.7973611446279865,-41.91362864982108
4.981249900000001,8.690537787040256,-2.731124236474153,1.5986841776941625,21.44816140792408,3.805932041819525,-44.459167988834736
4.991249900000001,8.577872175570624,-2.2128748421010735,1.3428821519722407,8.787772728689568,1.7519410700255031,-47.73180683107626
5.0012499,8.682584171328337,-1.8283002029922801,1.2317128123936953,-3.3758823956749917,-0.4348055438308102,-50.83032659181181
5.0112499,8.806051661139657,-1.822301172780503,1.327349757693958,-14.377564035433393,-1.9158718875438963,-51.84597492445922
5.021249900000001,8.803427440475977,-1.8358610552036227,1.2138614357615194,-24.455818494044244,-1.661292650371904,-50.47447723119434
5.031249900000001,8.735760776828933,-1.7272236920826705,1.0253274353049462,-33.66134800564335,-0.3702324327321053,-47.58512206897397
5.0412499,8.746391419500181,-1.6844212063010404,1.118873897142734,-41.75958887633417,2.42266114318377,-43.96154499298014
5.0512499,8.715335986386807,-1.7024684046148972,1.347047825233233,-48.20123590873373,6.603768462041564,-40.78633377836345
5.061249900000001,8.577540841044941,-1.7854236648898314,1.573321928013444,-50.48882507116667,10.725488066645086,-38.0161367104043
5.071249900000001,8.5670178290135,-2.0333852071748506,1.7687531943901227,-48.02280527935527,13.467642626088994,-34.92333779227663
5.0812499,8.72603206741382,-2.4928788352718736,1.7226166953332767,-40.51056748875086,14.868680011527811,-31.02304721410262
5.0912499,8.823368670110531,-2.9842521919844995,1.550484220391082,-28.01769641263511,15.37721701470743,-25.85158976626655
5.101249900000001,8.655156394039862,-3.103655903345282,1.584552177001757,-15.28987719041514,14.11246796250276,-20.202877803803073
5.111249900000001,8.437366390022062,-2.9393591152569902,1.708703950199748,-4.521294826531254,12.215610941549144,-15.324560317379358
5.1212499000000005,8.429102308721374,-2.839924138002637,1.7174462003056155,4.436023301728619,10.97126108253991,-11.652183315598887
5.1312499,8.504005511606719,-2.795050040418909,1.5731663507202749,10.061152725298882,9.157492169144753,-8.693030010059992
5.1412499,8.570445885576074,-2.8761175682631497,1.3164018610904327,12.497132703885864,6.903964835425922,-6.140143043729276
5.151249900000001,8.53094655885641,-2.965164869139524,1.0452571812050877,11.94052967680241,4.3252510719295865,-3.5285607785184676
5.1612499000000005,8.484073027375707,-2.9064456074949545,0.7928235148350993,7.475825572228084,0.8460199274611475,-0.49836077931029443
5.1712499,8.580352043741987,-2.7880059544624363,0.5617857121846163,0.2351256318089377,-3.3987248663988257,2.286137220251806
5.1812499,8.797267387358895,-2.6714458236123897,0.42365278512643545,-7.658026164936039,-7.219377062319774,4.211607505102158
5.191249900000001,9.044069856739476,-2.5805065715062074,0.5119511062985875,-16.395501733477296,-10.375674776521326,5.9602838958872875
5.2012499000000005,9.29757812916548,-2.7074398112599734,0.7739673683819732,-24.366257812628533,-12.969268141781514,7.679665955104194
5.2112499,9.523121039559488,-2.9202546811734575,0.9347567881716302,-30.64668578051387,-14.842893736175093,9.438753231975566
5.2212499,9.74693382146202,-3.0700163011463766,0.9595959525969949,-35.35187409351201,-15.841568399040082,10.856812439056743
5.231249900000001,9.899201480625209,-3.208490034138046,1.0013707370785991,-37.96864590238846,-16.067210769185962,11.238127851278364
5.241249900000001,9.78479827121024,-3.338877224861064,1.1394434453254862,-39.189430777619805,-16.162355952578537,10.620992380598738
5.2512499,9.646839599200455,-3.4816812014144114,1.2812738178045366,-39.79319976603432,-15.404577008484466,8.973517398900926
5.2612499,9.820860469830823,-3.645069922712504,1.339047629249263,-38.89141311498698,-12.833184114562114,6.414748789986121
5.271249900000001,9.925791713740647,-3.721199166127518,1.3970484002752024,-37.36899642008763,-10.149258033332508,3.43846980478879
5.281249900000001,9.773260158076997,-3.779607284985236,1.5515898305603941,-34.82079956243431,-7.075861978019393,0.28807335271464407
5.2912499,9.54634805087653,-3.8562521885185186,1.7600970331476653,-31.131512965210536,-3.606818720800808,-2.9889010655653885
5.3012499,9.386433022353978,-3.882515088981343,1.8779333534846543,-26.720222495992495,-0.7168949761765855,-6.287120338874947
5.311249900000001,9.243676263436507,-3.9316805951406626,1.9043055914586544,-20.92519269544758,1.5371534982309265,-9.010442268187601
5.321249900000001,8.813358112840422,-3.8904636577541787,1.8480637852629174,-15.287796129729847,2.194396960778724,-9.974314749350212
5.3312499,8.393612003356777,-3.70721047765069,1.752379980373028,-10.760506433145922,2.839226298220567,-10.005379229023447
5.3412499,7.898340818184525,-3.396544687776333,1.6843772193630946,-8.21533352459539,2.28720280420265,-8.44563854725632
5.351249900000001,6.846049149815897,-2.7683043380765633,1.4412971471987641,-12.52312666908313,-4.7166625423899475,-3.960677960860505
5.361249900000001,7.635525345979754,-2.291940477138502,1.1266761657925706,-19.68708460596454,-5.311199858578417,-5.201736687449465
5.3712499000000005,9.31379484347914,-2.3307941553207137,1.1107423020831182,-24.42410259104213,3.0795806850673197,-6.344524770358251
5.3812499,8.600204151460744,-2.4426499779567292,1.1905355680958698,-31.42986691301506,4.773400973781471,-3.7845352514787503
5.3912499,8.304868539107096,-2.9358488632702473,1.3252311976807063,-34.72458958267897,5.247204448368525,0.5466072383764767
5.401249900000001,8.971619742040403,-3.4123973235770935,1.6599526912874747,-34.37105853653309,6.344566919505818,5.2756608782241114
5.4112499000000005,9.267142577003936,-3.9289386907131103,1.8866380221025398,-29.217618248094823,6.436577051187566,7.791816392264868
5.4212499,9.219724960927143,-4.519971179978584,1.879357580578819,-18.433400104370502,6.483557293705927,8.679383523272067
5.4312499,9.0118306468282,-4.620463149552756,1.759136476499371,-7.746968517089579,5.340741722475204,9.029275110583825
5.441249900000001,8.996490338940298,-4.571758049025344,1.6232858398131125,2.39245415384985,4.52605137846895,8.869056284250933
5.4512499000000005,8.980142257463037,-4.356252489872675,1.3860601304474742,9.691246937928957,4.003894751253772,8.118541975694143
5.4612499,8.994368578531622,-4.011495789842223,1.1786742371633656,12.653628323858747,3.298978849667834,7.26169248588307
5.4712499,9.234165346051332,-3.7271526522898375,1.1723893407022634,11.710934865899471,3.0661216849030377,6.655841956918553
5.481249900000001,9.465651055798038,-3.431299906228096,1.2241166525424843,7.293311760312078,3.6359529634053684,5.916198909208082
5.491249900000001,9.55088023570267,-3.2989823818804624,1.2260159506039991,2.0269750098995516,4.767308217152955,5.1635209858861515
5.5012499,9.454743758664039,-3.3740487705859725,1.271468636030718,-3.572183264804217,5.532926021616151,4.622371666281813
5.5112499,9.289741098874817,-3.502762099014875,1.3040608900695758,-8.650017063445492,5.659553984194394,3.8844904362281394
5.521249900000001,9.265210431494763,-3.680111651061839,1.3060504296923565,-10.438432916008823,5.319418437501299,2.923934808808282
5.531249900000001,9.203763917577602,-3.8693240338221817,1.367024828827632,-10.94441892144801,4.072726430146769,2.245848709580156
5.5412499,9.052546260167203,-4.121728923440671,1.4501299064281234,-10.234303548821112,2.89613411726293,2.025516398148536
5.5512499,8.910288997896114,-4.298509494793432,1.5275995746319586,-8.100895579749823,1.6720976330216462,2.0767723369802424
5.561249900000001,8.823722920241043,-4.3706929316338705,1.5862957454249642,-5.974017243140601,-0.23815630511725228,2.2160506159212314
5.571249900000001,8.810226271008274,-4.430454750090347,1.60100513033881,-3.8618745192110615,-1.6184298743090808,2.421165112515576
5.5812499,8.779154117391403,-4.345422606877101,1.5800778659487262,-2.5756581318009792,-3.0669176466017367,2.325347774446296
5.5912499,8.802962029027475,-4.1349467640753,1.521549197233643,-2.8420349847393833,-4.128267018819422,1.629047507338965
5.601249900000001,8.926301869266007,-3.9242605011856826,1.4207600097141126,-4.110635435405339,-4.2812403668903,0.673418965048164
5.611249900000001,9.053251374091067,-3.809287320238545,1.3484886057573695,-5.84675369091559,-4.002475814700714,-0.4497650531612552
5.6212499000000005,9.133174127678348,-3.846902096779356,1.3065685787927879,-7.044737424367866,-3.3185214311623064,-1.2155480363788673
5.6312499,9.100418737361252,-3.936303998293656,1.2317066811580544,-7.767253866677404,-2.855885757104974,-1.1975867389770853
5.6412499,9.027779247575586,-3.96440312253118,1.1466031305063045,-7.651234440167427,-2.458774385990202,-0.6432623317873912
5.651249900000001,9.00818497528502,-3.9208781092804785,1.1079673945022628,-6.744835644235802,-2.0926854413960245,0.024360643157849263
5.6612499000000005,8.956589484495725,-3.8715938316632887,1.1038089734370684,-5.641634828873462,-1.6564209846899898,0.5032222491489984
5.6712499,8.879957873518315,-3.8829409991082486,1.120267316951702,-3.9267698756725777,-0.9694238331502567,0.8732548119287238
5.6812499,8.866326623783682,-3.855440825411783,1.128380831055756,-2.1154557429213985,-0.1633942290215345,1.4833087061521557
5.691249900000001,8.952045857674884,-3.883395705636832,1.1629478748155921,-0.23934711160968175,0.7971699031564919,2.051303829131906
5.7012499000000005,8.95466394897479,-3.968328076258705,1.2184590569279958,1.6351850172559328,1.6238086245174987,2.759204684331156
5.7112499,8.791293714160831,-3.9293523889943676,1.1535937972430617,2.302396171125662,2.0945245884527184,3.7652027727638315
5.7212499,8.610192459483544,-3.8160354733280153,0.9936713208299873,1.539079143406708,2.255872840599904,4.53712621947155
5.731249900000001,8.478873681990414,-3.7248406632834214,0.9040098726583864,-0.7076853398307353,2.0495920278508177,5.132652930058175
5.741249900000001,8.42297021505598,-3.6472492474287597,0.8814820515601554,-4.680789776659445,1.9576290141026178,5.589642903006449
5.7512499,8.405316353295271,-3.615583696045127,0.8584480511801226,-9.493012669034956,2.1033988573513844,5.811042349011117
5.7612499,8.399927892163785,-3.6458539578842903,0.8448365933106241,-14.075112153143069,2.2110440430654044,6.056473173824211
5.771249900000001,8.48418168793524,-3.759168633728887,0.9137614760432702,-17.928856462899798,2.751027296632824,6.52997455051111
5.781249900000001,8.57594275993895,-3.977660849399481,1.0639511176416048,-20.630528915219116,3.878236512790621,7.555413068291481
5.7912499,8.508570034687589,-4.20208139158375,1.1217534376101796,-22.436110456618895,5.403664566465129,9.261546114526992
5.8012499,8.45851996247213,-4.334934608163124,1.0399195615203387,-22.96352645170295,6.899549866132727,10.730862848988364
5.811249900000001,8.415737111873236,-4.471927511870905,0.9839116785875387,-21.966231542674247,7.741334623294082,11.796597256756016
5.821249900000001,8.311502464209527,-4.6528098738298125,0.9367785677626969,-20.200821130360065,8.348197081762398,13.219791145484676
5.8312499,8.254127929519665,-4.7505876092528805,0.8603419426935539,-18.778507380231265,8.896897994814005,14.91827701493321
5.8412499,8.26111590279957,-4.710154541330075,0.7128908450367675,-18.21454921800362,9.390240840162695,16.671823073653734
5.851249900000001,8.242872612806217,-4.6586718293428255,0.5450817328260242,-18.997495436722946,9.87297079918595,18.347523406912334
5.861249900000001,8.15303872262519,-4.691701092825933,0.42550543304071087,-21.539999312760692,10.474977848189164,19.96936459571995
5.8712499000000005,8.047127664488736,-4.783376319181508,0.2578690342190691,-25.40135840871802,11.652653537869952,21.578661527855196
5.8812499,7.922480593719629,-4.865851177228894,0.06451180856244208,-30.287917263323767,12.590376262094585,23.248080733417552
5.8912499,7.778926012572598,-4.962422641638167,-0.08338939329614103,-35.390628863506166,13.637289404463225,24.709243196272414
5.901249900000001,7.543608113611155,-5.059830412005604,-0.26230598713580644,-40.81983893282423,14.82877536115931,26.43233730777928
5.9112499000000005,7.237824477270206,-5.102918472177013,-0.46382461143638387,-47.09898189326507,16.222793922404357,28.628011083498173
5.9212499,6.905550241399579,-5.110525026535776,-0.6560190770392207,-53.96565905058436,17.806031104801455,31.129260554052642
5.9312499,6.52864068479417,-5.053920145497631,-0.8960299218115504,-61.40107214643,19.404615978192,34.29862212788398
5.941249900000001,6.098528141666318,-4.945827833351197,-1.1343437190840089,-69.58460419784628,21.58532892779908,38.03662753109161
5.9512499000000005,5.655232192276421,-4.832136384573989,-1.3023857485716523,-78.36665137293977,24.512024871037916,42.72827602018678
5.9612499,5.237383170586976,-4.702834152523015,-1.4647523010552348,-87.11923371919568,28.08373285355693,48.57485040103562
5.9712499,4.835027220351789,-4.5568765050701305,-1.6001898410186335,-95.59823683283693,32.278205101059505,55.665034929522676
5.981249900000001,4.493258974691334,-4.457237161131145,-1.689318385813096,-103.36453661431393,37.12731648571897,64.18763207979012
5.991249900000001,4.168766027191078,-4.311858902256313,-1.7744936538513802,-110.5591011155026,42.914473925411954,73.7285322784234
6.0012499,3.6713601168541046,-4.142740485127509,-1.67304447878147,-117.94546159901458,50.05971011218287,85.75004687702764
6.0112499,3.11486836278459,-4.18581239058284,-1.3719208609868847,-123.84961659113563,57.57526558623266,98.64551349423112
6.021249900000001,2.6179108211988416,-4.3286004399320825,-1.1678327336003713,-127.29785760764267,64.69367693608797,110.48977950574935
6.031249900000001,2.1263812058066094,-4.389765925962107,-1.0406725025349224,-128.5152068522599,71.40416077231998,122.20954704726694
6.0412499,1.6986270605764766,-4.42162429822382,-0.8429431305805276,-127.42780800264522,77.44221806274315,133.85114816930314
6.0512499,1.323274924851829,-4.475309989065668,-0.6299400180914358,-123.86405161392983,83.16675231292065,145.58451364986706
6.061249900000001,0.9695574616742663,-4.460666826355459,-0.4542906629259797,-118.25428016375186,88.87836861145674,157.88207640943693
6.071249900000001,0.7160664146743398,-4.310840401780694,-0.2920902952840373,-111.67989807668711,94.5336492939135,170.66600834596667
6.0812499,0.6164813594711479,-4.027438451057546,-0.09751011376486443,-104.82310577132782,100.41453428004263,183.92603096981904
6.0912499,0.6366647036377754,-3.746043896602439,0.16058831802402254,-98.03699244697673,106.89639227468216,197.52893086748708
6.101249900000001,0.6093967413825045,-3.5605827259481133,0.45167224412862633,-91.95848726350695,113.73590605976159,211.4721910027552
6.111249900000001,0.5631545852459523,-3.5489413074738723,0.772844742897532,-86.49206077280016,120.93007041300064,225.96901675521596
6.1212499000000005,0.5021323904203072,-3.738660683857848,1.1981173818731907,-81.06068057492239,128.4707894896583,240.6017759016522
6.1312499,0.29731150908205684,-4.0848110865264164,1.7236260401890027,-75.48196457325894,135.54120642418098,254.7563691067131
6.141249900000001,0.06377035206363288,-4.589820036954813,2.1754088874289437,-69.2922945443286,141.9105495605357,268.098923842406
6.151249900000001,-0.21391207660354042,-5.074565589627178,2.494467384057647,-61.757433315861164,147.13819350027862,280.59370382522496
6.1612499000000005,-0.5117441327321847,-5.569890863401725,2.832168633475172,-53.45555966550564,151.56978190544834,292.47777791307954
6.1712499,-0.7709658348388072,-5.978008301015881,3.1287618582958654,-45.85642226493055,155.4173094859806,304.1055925658552
6.1812499,-1.03687314893926,-6.306275329136223,3.5779192450045354,-38.66963289335381,158.18076127990076,315.6868461175827
6.191249900000001,-1.237346227919565,-7.079712342933763,4.527378884881677,-31.701503453007426,159.86457438734524,327.34550107136255
6.2012499000000005,-1.3417491006425069,-8.059561148604383,5.527986879802187,-23.765419762451554,161.30056591361753,340.13255460380424
6.2112499,-1.7020947911483515,-8.931626124206614,6.090142319471429,-12.673973642927878,160.4765864669421,353.6624218725486
6.2212499,-2.1705503831018085,-10.030032697423243,6.421693767962458,-1.024930163851892,156.63288082150206,364.147427779554
6.231249900000001,-2.470683587392389,-11.305885926099176,7.044066381338693,10.944263793920403,150.5880361512158,371.92525976992533
6.241249900000001,-2.6331045486532405,-12.772826810041355,8.091962753547353,25.021360658124767,143.3840211817522,378.03402255783186
6.2512499,-2.7722194811736776,-14.370899606056255,9.157477345785276,40.15080027244065,134.64334525093332,382.2942987987881
6.2612499,-2.9266305307592924,-16.119554284807414,10.404084699586855,53.046324669489714,122.58975266633396,383.5325096360098
6.271249900000001,-2.880211706326892,-18.37638246086057,11.884425325037201,65.35295699485566,107.29368926377943,378.79411685104935
6.281249900000001,-2.294608719466313,-20.52334684778987,13.009530758123976,79.84155604229949,88.09911456317452,365.6062005920976
6.2912499,-0.7370068075204875,-22.36538919864909,14.52185704463535,96.14558602453549,63.736023293344665,344.1368442637044
6.3012499,1.7795414886783925,-24.779718551393984,17.480329375571916,114.68463001610492,36.377999898977514,315.8781944391025
6.311249900000001,4.285468019752389,-27.767925252541215,20.93268896024157,133.45010618512526,4.90624928354214,281.5505482920954
6.321249900000001,6.738930975662319,-30.450704240140016,23.272585578006606,153.74913617473592,-33.97047286910309,238.3211479809423
6.3312499,9.845225815683653,-30.93262983580148,24.93490881930037,168.54069418697367,-81.12716329227787,182.34383870798268
6.3412499,12.008290090827154,-29.495155912412628,28.05490007638501,165.96032627387444,-139.04311063669894,113.50802922376465
6.351249900000001,11.74524094387122,-29.05075599876759,32.12466169564955,150.5449518170767,-204.8676132984123,35.40452939286452
6.361249900000001,9.599364299502978,-31.088173854721553,36.46644920310123,130.37650980825038,-275.4906245978917,-47.08854150391217
6.3712499000000005,6.159466142796633,-36.15134029162515,41.90082782500341,115.17634033097312,-349.25330632502727,-130.98186895524202
6.3812499,0.5074619191349625,-42.92689794625619,46.4078667574649,121.17156972941787,-430.2064928164331,-220.52260007774422
6.391249900000001,-6.359808044485024,-47.84191430840657,46.408853881967474,152.1770533830258,-492.17142364071805,-317.0482413783073
6.401249900000001,-12.377970088801426,-48.69671747574621,43.54326791328832,183.03616687633442,-502.3297820704993,-413.0545619074846
6.4112499000000005,-18.52581242092875,-48.04465133585974,39.66372244318684,191.80722920068254,-499.03126454074135,-484.5514197905404
6.4212499,-25.083784899168286,-47.650327628976775,32.18078593219995,180.58099158515637,-500.1373238806581,-502.61062767331464
6.4312499,-31.234377704765848,-45.41950045429767,22.92134231626832,148.90098382342143,-500.0685123324107,-499.0653469218192
6.441249900000001,-38.500023043150634,-41.507242816248,13.509103343065657,93.64952250679418,-500.4175769890114,-500.5379200556278
6.4512499000000005,-43.0043443452538,-34.201676906289684,2.0247301138469505,32.25333195660978,-498.24333405991706,-499.1869360909034
6.4612499,-39.82482392940925,-19.012491777760918,-6.604672153075259,-57.466910271318014,-503.6138437993718,-500.4074298665178
6.4712499,-38.327458841971456,-7.6241542891999785,-7.085065472381315,-143.71707519237148,-489.8867674735924,-501.51721889488914
6.481249900000001,-41.64294236557646,-10.35040068054833,-12.13446567464272,-128.72061224178086,-390.3893871819957,-429.04445608802223
6.491249900000001,-36.720921971350954,-9.227307683969812,-21.32355378610647,-56.02733887710169,-280.8393630530864,-288.41949524587454
6.5012499,-25.176384681736362,3.139802649546803,-20.732644396796392,1.0456055430081577,-214.08047414588083,-179.273372705632
6.5112499,-17.909174129104805,13.567201174157073,-14.132364216854075,21.98552836880729,-145.59641573296508,-120.75549637355643
6.521249900000001,-18.52656218787366,14.794183894163739,-9.553764779636978,8.67762180023205,-89.28548299508743,-71.23700782024929
6.531249900000001,-20.322540130170193,10.816507401002633,-6.690712973802986,-33.68672936064248,-55.81223632607176,-11.626925321335774
6.5412499,-19.059641066133945,6.533476458872292,-2.1424484098715144,-76.93907198227565,-33.15920696457861,31.39606674783834
6.5512499,-17.106382784768883,1.7121854825823604,3.0644276921734575,-89.19467714603466,-25.200361060997682,43.0394368945098
6.561249900000001,-13.901967334482904,-3.099950201600772,6.768514220438932,-78.30514649109246,-25.706954514750926,39.92224708439546
6.571249900000001,-8.799353759132494,-5.837546541852147,8.096341969916098,-61.28024151876273,-25.1298091006832,32.91798532658357
6.5812499,-3.1676015612835204,-6.163868898787279,7.084008119242612,-43.433942613524906,-23.818029002754788,23.26694145757669
6.5912499,2.310980341070413,-5.084488932599781,5.290069861556713,-29.069127358998504,-21.165986640786517,13.798004102403791
6.601249900000001,6.85374577887852,-3.931043211994995,4.14882171020795,-23.182398507908886,-15.407710073358311,5.594892102648371
6.611249900000001,9.826689934836876,-3.560523728978225,3.7782434186704443,-21.272003186634322,-8.110918125506084,-2.6920548904458887
6.6212499000000005,11.35444979553245,-4.2399222997426245,3.3643745853476523,-14.425384267342336,0.6676554905975601,-12.909284770214153
6.6312499,11.518796367880975,-5.498505874587753,2.4518835183965315,-2.1729519688737047,7.5178120476773405,-22.767669013831405
6.641249900000001,11.158140774011956,-6.4137702015429,1.6375542868065598,10.285937441917545,8.681923923384849,-27.75972089080293
6.651249900000001,11.049184160629334,-6.536749233084048,1.341580573443264,17.00761420632414,8.058245965215141,-30.456139485199785
6.6612499000000005,10.793502449981284,-5.995218563547908,1.2072928272722916,16.237487447842277,6.94170544919531,-33.18590988786005
6.6712499,10.294290561340501,-5.510784777958985,1.247693375739797,12.599419568252939,5.57482581729548,-35.961619724480705
6.6812499,9.938230175736376,-5.016746235440441,1.7714522552032175,4.689892587731492,4.743096129713676,-39.217522031275585
6.691249900000001,9.89665718329741,-4.3875643406538885,2.2530705138301204,-7.166721059984862,4.807325854482186,-43.34353395509796
6.7012499000000005,9.987526968975143,-4.058892769313714,2.5988261868151286,-18.056486854066144,4.9277694468710775,-48.188751401966165
6.7112499,9.920114088020563,-4.127652187850289,2.9404002875982727,-24.968523164995073,3.9950649248671746,-52.911402519921054
6.7212499,9.707921597645395,-4.529249326201483,2.880113792323798,-26.42019181869904,1.8125163229660939,-55.658840656658725
6.731249900000001,9.481752481307122,-5.056438467578353,2.5130918711436716,-22.53233560395214,-1.6872296089928034,-55.58070021980664
6.741249900000001,9.285100674622367,-5.097150123769884,2.133991954003273,-16.120932504020956,-5.217996884518391,-53.234419136662254
6.7512499,9.057395341757395,-4.624175386155041,1.8003538293563859,-9.504401997255405,-7.842673687772926,-49.974252164394514
6.7612499,8.708176377523941,-4.118550354051971,1.4921966795454713,-4.450838860884174,-9.680089615691074,-46.37396873804267
6.771249900000001,8.325995351676044,-3.5668849188702945,1.1563212560806957,-2.407280646887304,-10.291005354198742,-42.933494214698186
6.781249900000001,8.082919955586558,-2.887203442026269,1.0489278010931657,-4.486035429141211,-9.538019693436954,-39.95283614339932
6.7912499,8.018489385795478,-2.300580981380929,1.1771374572040534,-9.915871395430871,-7.345161510919541,-37.502880178436165
6.8012499,8.09513358709388,-1.7242916673532869,1.1925694734053733,-16.996863094399632,-4.876444762815504,-35.621998777704434
6.811249900000001,8.334808415621913,-1.2599770129523549,1.1413172272350918,-24.28069386340204,-2.632448666452424,-34.278617520984554
6.821249900000001,8.551422844008423,-1.2453744721403126,1.1210579236794196,-30.084300771506303,-0.12649315833095312,-33.20682194337084
6.8312499,8.608272529958905,-1.4775665583715671,0.8626026971609029,-33.19479181352445,1.8365467494610872,-30.841326593168727
6.8412499,8.721679281164798,-1.6388268195076525,0.4931158317104231,-33.67770356474583,3.194832755726265,-26.20849842672365
6.851249900000001,8.830873128253309,-1.6402009561230189,0.3788859178235335,-33.379128133891555,4.08260517820504,-21.011593834002994
6.861249900000001,8.894293060103497,-1.6033943084845763,0.5237993890926623,-33.692226912358606,5.413110379512095,-16.10833601591696
6.8712499000000005,9.11836802788899,-1.5315428908365358,0.7421989815683608,-34.7105223583164,8.017649034287146,-12.282943403192562
6.8812499,9.467036591422193,-1.510218145092852,0.9481462839590947,-35.17743557490246,11.633507310273108,-10.065461212223996
6.891249900000001,9.612941153532704,-1.7077334781075353,1.2187638647366368,-33.94650617096789,14.822363989013244,-8.65804662631716
6.901249900000001,9.406140145242713,-1.9747119580203618,1.3903815775249433,-32.01816818942515,17.110616258661143,-6.926209778407725
6.9112499000000005,9.1068325996736,-2.369270883103557,1.4259198473245902,-28.395646238763906,18.799109712966747,-4.4035612043082155
6.9212499,8.918923979716146,-2.7691994280704435,1.393422020838816,-22.15953047528285,19.072772834240407,-1.2437896495609495
6.9312499,8.839952436883152,-3.0324788549608797,1.4460614400708467,-14.1326931545079,17.197086965064063,2.3771979704864163
6.941249900000001,8.763049467180185,-3.323237630453982,1.482402852985968,-4.739908413309205,14.006768255354695,6.573540051784603
6.9512499000000005,8.733747726367962,-3.4123416645619487,1.2908482412110285,3.998617734058112,10.477170948840632,11.083924894990638
6.9612499,8.844917688244763,-3.0435170718811393,1.053761027079925,8.301066224719287,6.482425920034563,14.954943427902636
6.9712499,9.137153571694466,-2.5595916129186245,0.9110104022126724,7.336351839261899,2.8653438973078256,17.614932435916845
6.981249900000001,9.456620635102428,-2.334141875539034,0.878206209692666,2.85420346816399,0.0013638925132081724,18.870445096249075
6.991249900000001,9.642395020098078,-2.1865827837618714,0.8384460153003043,-4.2533831651427265,-2.4558948148846604,18.756526991096898
7.0012499,9.72025891804021,-2.019007228715753,0.8096006350950689,-13.04378744656167,-4.965126630878993,17.635058041267914
7.0112499,9.90169469764392,-2.212067140578386,0.8593666548601353,-20.5464449563236,-6.8114875937131005,16.437476804118308
7.021249900000001,10.021100171941743,-2.5146941303928374,0.9000078258125696,-26.684621795479778,-8.056954297897667,15.715031319584524
7.031249900000001,9.86525333040864,-2.595925994474577,0.9631208490323225,-32.74506913515946,-9.496401752234178,15.229545151575126
7.0412499,9.798919522704733,-2.794434023115436,1.0683565652922993,-37.22607784160987,-9.682420402286002,14.169709793173412
7.0512499,9.876979525758781,-2.9432115322123886,1.220480496071355,-39.96840134693554,-8.363849978098955,11.68109672569522
7.061249900000001,9.941813363838827,-3.0840090201524633,1.4467797876060382,-40.982160662189955,-6.596615211732198,8.829683995494003
7.071249900000001,9.853281768590263,-3.485323709104179,1.6758823149630604,-40.09064267965841,-4.289991964824276,6.554818445768734
7.0812499,9.615241955948624,-3.930627234934566,1.889415219936937,-36.4322103256467,-1.7187818352355382,4.814714914224161
7.0912499,9.390655847914708,-4.253940623185988,1.9935746691850942,-29.519538123011852,0.5467389114866966,3.631639026955441
7.101249900000001,9.136750156925189,-4.397482445421285,1.9770212321617937,-20.789265213113158,1.5079955686925393,2.661372162692763
7.111249900000001,8.905334667568317,-4.449651001756211,1.9478495479952609,-11.356621330321653,1.7269765649714433,1.857178036529994
7.1212499000000005,8.805663650319877,-4.346924007993771,1.8755386287989069,-2.9520959608442108,1.846260989019225,1.5059929367220535
7.1312499,8.74357553192271,-4.0613371992662595,1.7537812483107176,2.8956490833720347,1.6283380662831406,1.3753068088781801
7.141249900000001,8.651346033788778,-3.7100973266720683,1.692881111911943,5.448515824443432,1.2683248082659093,0.9157834889748464
7.151249900000001,8.559694159978372,-3.341531019496382,1.6482903633896644,4.632536966064563,1.0077331344763751,0.7382649832996075
7.1612499000000005,8.509608930685856,-3.000476253574072,1.566266048021652,0.9396729632731134,0.6597234836331248,0.5878292698892921
7.1712499,8.573147898001176,-2.924122893826216,1.5276396620082813,-3.4569691897271553,0.6744933265512533,0.42015688274361696
7.1812499,8.844452271575804,-3.2759226052789283,1.5149275627647683,-4.6292948462588335,2.292601333043428,1.606747978895486
7.191249900000001,8.955218861604726,-3.646173346030512,1.5708122745405348,-3.744535222702328,3.4908662004284485,3.9538257310009413
7.2012499000000005,8.764138283179463,-3.7520160105692764,1.7252830606450333,-3.072581643537854,2.121307177365538,5.895542830225097
7.2112499,8.891751492095402,-3.862902853262031,1.8344423470555515,0.050075940063688006,1.5066805636636627,7.245977320750029
7.2212499,9.127651757218516,-3.80036076729521,1.7476140379858358,3.696504666246267,1.4601875890197067,8.188242000835
7.231249900000001,9.188507634770472,-3.652301539598221,1.5611798522263258,5.571332500682667,1.2094605620329397,8.785521991655425
7.241249900000001,9.196205016429273,-3.6368030836751974,1.4858016766570832,6.569146476827981,1.2330295941189153,9.34931453991131
7.2512499,8.985372306175156,-3.4787381596874654,1.4475995869294302,4.375976503522368,-0.033031876189263766,9.539636735860903
7.2612499,9.096668539787704,-3.528248251697566,1.3636025958335887,2.85893068766793,0.03454764184701193,9.380369713020187
7.271249900000001,9.236208361692,-3.6963448722462635,1.2896607497940857,2.371369058269198,0.2918363828497697,9.528977638820262
7.281249900000001,8.918637930344731,-3.7043578700794275,1.2984941596480917,0.31510394997968,-1.1253587884942033,9.841488534821034
7.2912499,9.103193026607055,-4.093124361583594,1.384106313640214,1.6228017287731171,0.006504674604153006,10.272034960589075
7.3012499,9.177683445043176,-4.124627253554768,1.3645134394457052,1.6273967297776817,-0.045343693946745534,10.224375809337081
7.311249900000001,8.811251538529863,-3.782433440539329,1.3413066096571848,-1.8778992360759912,-2.547308394382367,9.236530802154457
7.321249900000001,8.721703005727587,-3.755983519679368,1.302236992567984,-4.063343301622503,-3.6352414899968806,7.973469347424966
7.3312499,8.917818359123759,-3.8741171397195537,1.1675023593072824,-5.159391738770552,-2.5868959840755985,7.255729950899482
7.3412499,8.872851292237092,-3.8975462327790225,1.118080533115361,-7.053683310601391,-2.372569715677107,7.367530680285371
7.351249900000001,8.802681982133556,-3.987499566411239,1.1936883832367682,-7.93002665631695,-2.028112019796529,7.711552818162876
7.361249900000001,8.859595706320965,-3.981286834056631,1.3531605877335162,-8.32314168563245,-0.9664163171290406,7.749223241410841
7.3712499,8.964237061258594,-4.007024766194751,1.4736332263140752,-8.276937325647436,0.23327896109028473,7.49885158794029
7.3812499,8.964280510983398,-4.144683701399214,1.4431392601188984,-7.041516770249795,1.3760094298620045,7.306269375562586
7.391249900000001,8.879771782242385,-4.202690398497186,1.3957517468101122,-5.31869542777754,2.019175297137575,7.179675837283031
7.401249900000001,8.902121944393503,-4.179041460356372,1.4310213382218848,-3.9005987267996964,2.533031810762426,7.124057706069712
7.4112499,8.903367958870462,-4.131952489650821,1.4395801190458308,-2.9374886747231765,2.788122218631199,7.362114377385931
7.4212499,8.812092381919465,-4.033123039028308,1.3961735246481148,-2.80544878472585,2.8594049065294382,7.970793639673016
7.4312499,8.780669485576295,-3.8987178275918044,1.33076578929853,-4.249416944865377,3.4785906136050735,8.405596709803788
7.441249900000001,8.7693511835871,-3.8023483100730746,1.283917741882213,-6.777162979558936,4.631413916253315,8.649018574202806
7.4512499,8.709281756065659,-3.8647463427360136,1.277254961297929,-9.788535283973008,5.5185354748540165,9.15590441935514
7.4612499,8.661137692260018,-4.068002290483358,1.2065639848803333,-13.199085224269648,6.386307905445416,10.252665357624734
7.4712499,8.587245377555071,-4.184535053130108,1.13805663605179,-16.111059739814586,7.437016517083392,11.623943618503567
7.481249900000001,8.471203063964145,-4.254845757959001,1.140526128768507,-18.409800026422545,8.063986002456835,12.973830811257018
7.491249900000001,8.398520999035767,-4.401933770700732,1.1077651532044375,-20.039796907582964,8.715518987658182,14.581461282792326
7.5012499,8.279027254194359,-4.578448520412473,1.034717157506432,-21.602441442665153,9.25554354794929,16.676965606043886
7.5112499,8.09877972560033,-4.755720464437361,0.9796999724345651,-23.320105213121796,9.690636146833326,19.270509367149284
7.521249900000001,7.956204864267286,-4.90367387205486,0.9306836970290896,-25.328550290401985,10.18788370991366,21.967844880981044
7.531249900000001,7.83759147658161,-5.1110901088379626,0.9535289749393377,-27.74289912576441,10.408731348465368,24.511863687526546
7.5412499,7.702552705310148,-5.472907526267681,0.9776931524682637,-29.75159616054643,10.595853897775271,27.360624357253823
7.5512499,7.525424757318092,-5.766984335432225,0.921362467031419,-31.75905779981394,10.48842067702568,30.524372038524515
7.561249900000001,7.379175135548823,-6.0075477787255345,0.90548259665866,-34.19584859334587,9.87470103050769,33.870073239498346
7.571249900000001,7.240976605140699,-6.359659192408279,0.8910233668493884,-36.7818258487434,9.342082357618775,37.64443466950021
7.5812499,7.004082577316736,-6.657527165667301,0.7287378058380263,-40.627123510753975,9.264686785736275,41.40609161914407
7.5912499,6.7295008215507846,-6.6887760118007025,0.43072062652478743,-46.5934702817904,8.771728959692783,44.56610033576592
7.601249900000001,6.551726725006633,-6.536602049293012,0.09919175157149525,-54.113126587519815,8.437756331168407,46.49383500985673
7.611249900000001,6.441609519289097,-6.358295234739177,-0.14475154131433934,-62.879523475303046,8.98110899296038,46.76110737239086
7.6212499,6.2955470392487145,-6.228974753065268,-0.32699550721456916,-72.26272859182306,10.342875642453755,46.13993035497632
7.6312499,6.089549891382196,-6.151972460001508,-0.5064319136114406,-81.48198362589116,12.339517267672493,45.744199928037695
7.641249900000001,5.865262815261479,-6.023093394855269,-0.6899505371859433,-90.53416016696433,15.019174900700381,46.22434111422893
7.651249900000001,5.654353688489807,-5.81848703102735,-0.8742658458256941,-98.70053449905382,18.63664279929625,47.88412700353407
7.6612499,5.429832706709615,-5.611172335610304,-1.018682453869478,-105.59676908783828,23.344060386598887,51.001423427907405
7.6712499,5.101948548563096,-5.307572924110753,-1.1803293867863018,-112.35458800916528,29.385098488521162,56.31918170668325
7.6812499,4.812804617764099,-4.969314231248542,-1.336679008043129,-117.75990467451206,36.08468223251796,62.86271554406886
7.691249900000001,4.550296185044452,-4.673798880608322,-1.4163656238327686,-121.2443976383967,43.0122499543039,69.93991579760915
7.7012499,4.190500113188566,-4.391682132649313,-1.4361960197543533,-123.64008819307129,50.33293439557573,78.21424714822788
7.7112499,3.794735363176219,-4.1227814089967465,-1.4188977827500084,-124.48726634713017,57.87780874340516,87.71896859013195
7.7212499,3.3566246370793222,-3.8363289693535325,-1.4118597130315065,-123.56868765795416,65.70340559523608,98.27581847649617
7.731249900000001,2.9120183610218695,-3.5559495031033777,-1.4297609135374856,-120.67983380240861,73.58502946408126,109.71970270946578
7.741249900000001,2.5345703439601794,-3.250912276321858,-1.396920832441681,-115.9320983252896,81.35790640828358,121.98611338641044
7.7512499,2.173331670353921,-2.927644293805927,-1.3310852590065163,-109.85325998017001,88.87600813412556,134.9881437276418
7.7612499,1.7914047715259152,-2.675069836938574,-1.1870071458829068,-102.08837962229724,96.55385950547154,148.64405850154776
7.771249900000001,1.4588803284450733,-2.45284699323438,-0.9918003071477587,-93.06748203095357,104.76154786248722,163.12820143142545
7.781249900000001,1.2840243064824792,-2.21660115502321,-0.7792878789947365,-83.61176418991086,113.31027737919707,178.47381064976585
7.7912499,1.1735907275262667,-2.0560369060024195,-0.5438242274407359,-74.15508999498827,122.00804100064714,195.13431533801105
7.8012499,0.9631699536328248,-1.9529405983313965,-0.33750622960301,-65.7611330728408,131.06420607466475,213.4550420404691
7.811249900000001,0.7881383096543482,-1.89569449198206,-0.06625515713337847,-58.472514054101225,140.76451120847133,232.53675743121678
7.821249900000001,0.6446127090316448,-1.9155438335260635,0.3229692261372744,-51.631134000111544,151.28393819042012,251.72674348114805
7.8312499,0.36254447533878625,-2.016468977161206,0.6751508753919868,-45.17157381503173,162.36960440770008,270.7026016179657
7.8412499,-0.1220162262073531,-2.1198635054591253,0.7720009871273703,-38.87397728698252,171.87699487499782,289.0385845317375
7.851249900000001,-0.7044314338791886,-2.3340672766072545,0.8763226248929049,-33.5743673060348,179.30038539105828,307.04697722270487
7.861249900000001,-1.313892748997164,-3.0594519779504576,1.4138577316522833,-29.36141545787434,185.9729754711171,325.0569038647091
7.8712499,-1.857024449460386,-3.905476842757029,2.08716823950967,-25.546320689571047,191.5551600102308,342.74601171718183
7.8812499,-2.3751615987117467,-4.622342013017739,3.017897007856499,-21.198542500964443,195.5905845627684,360.6244535580157
7.891249900000001,-2.781985397293503,-5.685215395464381,4.3006966324852645,-17.02914550534896,197.8221065506461,374.36791644300706
7.901249900000001,-3.2455508709318446,-7.223691043442092,5.394825032318191,-13.161986012159316,197.70466135176957,383.2364313718088
7.9112499,-3.997371161525606,-8.91310298490417,6.263233754311023,-9.482046307183658,194.10149151739,390.3970490391843
7.9212499,-4.717726862981075,-10.75208554901142,7.470936414782328,-5.830271783153249,186.50528751894248,395.9036003439296
7.931249900000001,-5.227299544210652,-13.290090988615512,9.644689941707979,-0.0007506977011243129,174.9791241136794,398.9290667076404
7.941249900000001,-5.671877677945834,-16.957001068764274,12.524811506079839,11.529749037941661,159.6339997979224,398.02689927319557
7.9512499,-6.0428728880198435,-20.583713740931714,14.856966281748798,31.594471381455854,139.45102345418044,390.78087060499246
7.9612499,-5.838051341414774,-23.011549541769572,16.41888265658216,59.2064044529615,112.4810689770767,374.67959774497166
7.9712499,-4.328476177795978,-24.390961807601496,17.377128781750198,87.40441110252617,80.36953995311848,350.76774311034217
7.981249900000001,-1.8213505366234433,-25.11087537246975,18.161560579435545,105.4829518691948,43.12324004206946,323.1290440964158
7.991249900000001,0.9912947257924866,-25.452903932830985,19.796863661099113,104.90101757478043,-0.14256872087092767,293.38334994599535
8.0012499,3.916652987146835,-25.36809663636045,21.567506140015396,84.64138196267787,-46.16216206064718,257.8209576079981
8.0112499,6.232100962741466,-25.092500961162056,22.999054820257097,53.400236834657086,-96.90597846126109,210.651221809245
8.021249899999999,8.427545872617376,-26.502389996259815,24.681392449961248,32.59509648276676,-153.19995832056324,150.0821840369913
8.031249899999999,10.44001885487478,-29.362969587937954,25.952242820716368,27.16171641422587,-210.71718616568342,82.5697644146548
8.0412499,11.364499886132075,-32.59115429886338,28.238044516097236,30.04776313667088,-265.94721120417404,14.496748274497106
8.0512499,11.032388588557968,-36.36107485136188,31.706793810978404,46.66660317699994,-314.5716098869122,-56.56657990147079
8.0612499,8.729594374510556,-39.0593151880273,35.11429250889573,65.95233354896506,-363.2022015031444,-136.43748112189934
8.0712499,4.384957850069606,-42.02734217649126,38.2263624463825,77.97291072949538,-412.9883047528738,-222.20707967301942
8.0812499,-2.2802221146558743,-46.71027380077964,40.088336526412476,99.51634990510722,-463.794348821487,-319.8408605795403
8.0912499,-10.547179350000635,-51.67652046162939,41.10469636793834,145.89615097240986,-498.3308770860687,-433.98885584273313
8.1012499,-18.646700652045052,-55.93025482733247,40.12697507517085,204.08264159007197,-501.0479636640888,-498.51879974359525
8.111249899999999,-28.225528641519418,-56.30716764184156,35.805628337779055,237.5386655563159,-499.35729112588945,-500.94893841
8.1212499,-37.956794948087335,-51.4784722098016,28.157426727501353,230.8029052875933,-500.10632782736496,-499.1090136917256
8.1312499,-45.43305746483344,-42.77595497603682,18.95524854938365,178.71734868206315,-500.49377539144024,-500.2526816250458
8.1412499,-48.33648014055348,-32.002734666638055,9.009782126923282,91.0147557753569,-498.84231202908313,-500.6002290560621
8.1512499,-43.612406451153426,-18.58552743708026,0.7124634696912571,-23.370581405365687,-501.1045585970983,-498.41463142504057
8.1612499,-38.61057283099439,-8.701431020095997,-2.3639000625734807,-119.30194164890528,-500.58970207426046,-501.7412752288782
8.1712499,-42.30517900536318,-9.458540955306853,-7.938406118649791,-108.75364959760671,-432.78716940630585,-499.38407218089907
8.1812499,-43.44134719597368,-8.89263586935005,-19.201626620848483,-32.52432731553895,-330.9444912438504,-403.45076734292644
8.191249899999999,-34.758340893433605,2.7315648076600345,-23.147811020830936,19.87286674460305,-253.75990121140688,-261.15346485948174
8.201249899999999,-26.644077646845663,16.177423378540816,-16.717468000676266,34.26992197411824,-173.2563848902351,-175.3279231896601
8.2112499,-24.136833248456373,17.806815779039884,-10.973355468475113,24.592566333581885,-100.58828696440685,-100.26706888001766
8.2212499,-23.39446394862564,12.47022110874617,-9.709652840300986,-14.3945873725515,-46.714455102684155,-8.635896877793531
8.2312499,-22.730802623893247,9.859130378548313,-6.946695371185201,-65.01031516714015,-16.8267353874638,46.354170194957156
8.2412499,-20.15546056305745,6.08983931618358,-2.3618914985704693,-101.5789354605908,-12.162083227617112,57.90333632392857
8.2512499,-14.353428186516313,-0.7540143141484809,1.82968213960698,-119.27459628489261,-12.018324692385407,59.32669081633094
8.2612499,-8.258774789979174,-5.920417914766726,4.077606469639267,-114.08353276133906,-8.822995827717486,59.35566098897682
8.271249899999999,-2.875368701599989,-7.775428073930848,4.078962610419203,-92.5943754387845,-7.13849539080082,54.58876731833171
8.281249899999999,2.6596253402868117,-7.7700124094496665,3.672268346790949,-62.49779342475842,-7.071121093557834,47.144952217732786
8.2912499,7.796193149278718,-6.836303771379362,3.484501547430683,-33.74963430147865,-3.6235844159471013,41.27218193813012
8.3012499,11.477690795967856,-6.209146872886416,2.1204753510842105,-14.339474647706073,5.2149573832459275,36.8214185895006
8.3112499,12.882250612997119,-5.838258046071727,0.26642932803211794,-6.557394191555348,9.322856846947221,30.60077112950563
8.3212499,12.938221838095998,-5.411506769705761,-0.013612041745390198,-12.242636025516578,6.151095237086284,20.561530563051186
8.3312499,12.293928954195097,-6.01316286172477,0.7539598328381341,-26.02615215125649,2.753218598407242,8.34362721281926
8.3412499,11.375575208752887,-6.949545013854599,1.2695667027781785,-40.7740226528823,0.5030694088775431,-2.9879408612323908
8.3512499,11.073968875022421,-7.242984936766142,1.7092772180427995,-53.36035872272383,-0.8413656664658001,-13.12167845358232
8.361249899999999,11.412942973420567,-7.316045026777133,2.3998204773298473,-60.14404949867329,-0.05396641470480623,-22.798570233175095
8.3712499,11.631126187820053,-7.263539585910715,3.2631882202962745,-58.61738863101341,2.4912321309434917,-31.268272253845296
8.3812499,11.309961297033551,-7.19033892092132,4.196628937281579,-48.311438284795315,4.3024270628795165,-36.87133354141831
8.3912499,10.705080604546636,-7.248396379303751,4.769938059004427,-28.92850332175496,3.630767338368823,-38.82101136349762
8.4012499,10.006805516286942,-7.3071300531652,4.393736022266988,-3.0529775307913627,-0.7772893614008988,-36.9029133998019
8.4112499,9.466099434630667,-7.122459112079882,2.858550501940821,22.616706306317262,-8.6663466513729,-30.804787977207077
8.4212499,9.317068908371231,-6.295087611904176,0.9330082651487456,40.780120202098274,-17.044576404258116,-22.36508349007232
8.4312499,9.116752393150259,-4.805020381586513,-0.2216367691966329,46.49897553783839,-24.018339182912708,-15.378444690928104
8.441249899999999,8.627802346019322,-3.1703018986732645,-0.522169757848313,39.270268938552846,-29.139663343526877,-12.577228091878606
8.451249899999999,8.116597959456323,-1.8283391711994372,-0.5403976408223469,21.910386799312565,-31.31417670041729,-14.100459665220033
8.4612499,7.890582292915426,-0.8772950152574776,-0.44199029319484234,-2.1353366502052644,-29.589149416908274,-18.478489016855093
8.4712499,7.925392453619371,-0.5821866078483786,-0.08090551464518093,-29.316554419399928,-24.601277756362972,-24.005561664268537
8.4812499,8.048208249025489,-1.0431215965319458,0.25626070669006396,-54.78535134835183,-17.35713553441545,-28.462368047197824
8.4912499,8.085702415738904,-1.7052123491377413,0.17663225787701936,-75.22791144801813,-9.525980600368577,-30.46910615788682
8.5012499,7.99101485277963,-2.428175128625443,0.02844081994474343,-88.77324492931831,-2.5964478803197544,-29.32450275087519
8.5112499,7.880922850484627,-3.12388259171151,0.117050611429554,-94.52752660333192,2.941804315562091,-25.017765846863618
8.521249899999999,7.734948717839918,-3.4165318813576757,0.2530888788080217,-92.30417013047094,5.978263924634275,-19.868833615143377
8.531249899999999,7.517221648941471,-3.4198880894122468,0.4504433790090425,-85.83922522799826,7.36504861776262,-14.67776973459158
8.5412499,7.365206718217154,-3.367420765718955,0.6274428677747148,-78.07200501047048,8.613674208662454,-9.316422182067823
8.5512499,7.31079713520808,-3.1753837410403074,0.5850984625632338,-70.03853520626068,9.550920110651077,-3.626839001810557
8.5612499,7.461854117992887,-2.892861871830272,0.6292865242150831,-62.89502909060724,10.524257773334945,2.2213313393773206
8.5712499,7.8027248770549855,-2.8097665801310847,0.9835719026467082,-56.45915206465577,11.694121264112322,7.438996389670616
8.5812499,8.066938844135205,-2.8747969895799157,1.1760152032339146,-49.598493036067055,13.360658647867673,11.886561529172845
8.5912499,8.162503305951327,-3.097892798410549,1.1447664771311943,-40.82844231355796,15.415326693601353,16.170139598716208
8.6012499,8.236889327453284,-3.360634203561326,1.119257523464477,-30.910608453114694,17.61013796921256,20.714952430284338
8.611249899999999,8.340137094309451,-3.3800777666304946,0.9729462520311173,-21.657054295029898,19.203505619696678,25.056205157967195
8.6212499,8.65148345795316,-3.167963089670842,0.7695877104295804,-14.387526087031574,20.336170970018834,28.292942679741017
8.6312499,9.273976090060968,-2.821899994293043,0.6169937663939026,-9.698784825971455,21.723785849364752,30.08820091026229
8.6412499,9.839506024121146,-2.5698240307568443,0.5730042621141047,-7.050775278418324,23.170426965563383,31.150605536837467
8.6512499,10.235748946678317,-2.5178853121255846,0.7647329060131012,-6.731612054983274,25.021724055818662,31.984367172055656
8.6612499,10.544199319436606,-2.4858201408037286,1.0169452125909286,-9.323346218349716,27.315142516082783,31.91588182600785
8.6712499,10.737644090023675,-2.504974371472681,1.0854190435638498,-14.258021566000247,29.441889357995294,30.7097910013781
8.6812499,10.825209882708345,-2.697642440378572,0.9915144987683763,-19.62380017168574,30.66099134133992,28.95901804834841
8.691249899999999,10.812482412529913,-2.9783752656375335,0.9359992364988726,-24.93058840984464,30.63057635198463,26.70339416960346
8.7012499,10.727169126120877,-3.340964002303593,0.9948239955965981,-29.67750362046487,29.793038447618443,24.155881708013403
8.7112499,10.698786405392555,-3.7509926059151923,1.2321805559369776,-33.870213015315194,29.371814344859175,20.775347466657706
8.7212499,10.60732101544122,-4.225274347798529,1.605068058987047,-36.370812968591146,29.266662433045383,16.38401578561224
8.7312499,10.436074375529838,-4.699982158813916,1.8856701895370047,-35.52897753829949,28.774102543780327,12.338603808940373
8.7412499,10.378269956966719,-5.033952176036,2.0724388071961175,-32.36882892811067,28.050716165584014,8.609530971510553
8.7512499,10.312853625885733,-5.276708970261148,2.2422883754279077,-27.878531904966824,27.4022869176766,5.126038045390521
8.7612499,10.09183353242035,-5.483313098454975,2.437576970324249,-22.57443036431207,26.786274286891732,2.247791048991738
8.771249899999999,9.781144520738284,-5.5272145260658885,2.50852593185688,-16.850012325068406,26.021878144326312,-0.03142413594027588
8.781249899999999,9.455662270557808,-5.460377774808871,2.3981400279783824,-11.581602802264285,24.836949037263587,-1.849748337075877
8.7912499,9.133665358928898,-5.303014459294718,2.1887200332194725,-7.634108554321802,23.44770965475505,-3.082826985591496
8.8012499,8.710233503491468,-4.783611185936559,1.900483148752205,-6.712141639194284,20.21386427172766,-4.395412518464884
8.8112499,8.600696660795181,-4.382401341770652,1.6075890815132108,-6.390927734255929,16.952973895768118,-5.742803630889599
8.8212499,8.808690662738764,-4.241211990465857,1.3366065971660603,-6.257467971453467,15.111847826663057,-6.198933012949405
8.8312499,8.693283235337304,-3.7729798757640065,1.122784286291774,-10.264028265777362,11.845279080102285,-5.756604414887627
8.8412499,8.734311667803949,-3.4387143845656496,1.056301265703015,-15.260685190211353,9.863522774307494,-4.959765881656979
8.8512499,8.824574966050019,-3.2240854919699453,0.9572994911945308,-21.604811606419183,8.678644285548076,-3.650282252500271
8.861249899999999,8.82133146330851,-3.178566868453522,0.782316112558876,-28.94026497812941,7.250222814934239,-1.749912377448337
8.8712499,8.86589009072653,-3.360592615162085,0.7312595268809499,-34.985323231651456,6.653460409449838,0.3663480121999375
8.8812499,8.818660427707636,-3.5494418340732605,0.731472638838928,-39.55471190978833,6.584002757718545,2.591933490983883
8.8912499,8.700399070753848,-3.8143934335542578,0.7017020872451809,-42.63359492551644,6.786025704943571,4.9814308839570804
8.9012499,8.564474466358872,-4.154251832972206,0.7100485500896089,-43.53802532029388,7.189559449448095,6.972927740747626
8.9112499,8.482379479099672,-4.474436074339208,0.8243671403872818,-42.140004070085865,7.941681034065039,8.696568872750548
8.9212499,8.447914442501538,-4.7671095244549475,1.0354952472746968,-39.0975875276798,9.212722528051899,10.155368540556841
8.9312499,8.440058306316669,-4.960848086437194,1.200234560204814,-34.74946775280071,10.60625160323475,11.079444893045894
8.941249899999999,8.48963051004042,-5.062398735559762,1.2354945974673115,-30.043285758433655,11.893070578735415,11.276503366998451
8.9512499,8.460070217036783,-5.1038947213847745,1.2796363361920258,-26.129117989045398,13.031814017572374,11.037577183072097
8.9612499,8.358380052121088,-5.106428283151454,1.343462198093167,-23.413496861348982,14.344860660909015,10.36621202690306
8.9712499,8.220095192522294,-5.110370856207357,1.2700065796379745,-21.703333641470905,15.505370185394463,9.235897141629515
8.9812499,8.002577908924552,-5.127611664564465,1.1755173811671682,-21.01113550032285,15.860487199998294,8.18648292872883
8.9912499,7.823671046702919,-5.259851951843713,1.2352652040705343,-20.861293421599772,15.906149141860471,7.462929249905701
9.0012499,7.670919312391744,-5.507328132267829,1.297885650546414,-19.987332920849745,15.4982901970855,6.802164094553146
9.0112499,7.470315732689861,-5.746309067185239,1.2510934690129116,-17.891323894691027,13.958197485277392,6.223006599294083
9.0212499,7.385732085831173,-5.961682272736481,1.1585861496305723,-14.418827475563214,11.915201727576575,6.064430737308958
9.0312499,7.326138906969299,-6.063450453127939,1.0967791164323324,-9.957508132432078,9.701488081705829,6.060999839665113
9.0412499,7.2092902846446725,-6.015036803373756,1.047387885154042,-6.095258084509304,7.042351301768109,6.048305752784857
9.0512499,7.248436292638798,-5.914622023680365,0.9731161941006093,-2.638174032886913,4.676062982589028,6.129575118955921
9.0612499,7.435428798651601,-5.785366207443135,0.9565599081850618,0.14570758746543278,3.0776045851501435,6.312839053687185
9.0712499,7.609191871305311,-5.715214077987552,1.0318739012901796,1.7420249154050167,1.9096981995397353,6.602763262261303
9.0812499,7.75303066016916,-5.773373134307569,1.074554767506167,2.8524136940324616,1.185508474919137,7.381393742911596
9.0912499,7.899561932374297,-5.890572012431177,0.9969789763590167,3.915851142829706,0.44010565121989664,8.860104984048736
9.1012499,8.025580135888623,-6.015020294140225,0.8838262980243331,5.068280291254371,-0.8248837379779165,10.63043757110995
9.1112499,8.08006097065184,-6.094099244111478,0.8056506910354734,5.979524892840586,-2.384851174305753,12.280343226069991
9.1212499,8.047440538775453,-6.103413511436688,0.720441456825912,6.047806987966602,-4.268941925355539,13.056182516333859
9.1312499,8.076874676614208,-6.0420731269292,0.5324360138080791,5.288262581848767,-6.613846786358634,12.818139244844547
9.1412499,8.204274452801059,-5.949984422482395,0.3706114880881456,3.372561350637205,-8.839190279184095,11.968735310201913
9.1512499,8.339295437785761,-5.907653441743977,0.419951185605288,0.36030575453960045,-10.175541897794961,10.579488606375751
9.1612499,8.468943862965174,-5.898226622516747,0.524259395130667,-3.5136131322336435,-10.634648178042658,8.897143422377136
9.1712499,8.626472350808372,-5.929366898087078,0.5935766855236597,-7.765976233065867,-10.070825755449645,7.439691914172573
9.1812499,8.763286160780304,-6.026446638321815,0.628950083801479,-11.620222662412512,-8.506920140955854,6.514965853530499
9.1912499,8.701623727612136,-6.152098543337138,0.5970200661028087,-15.259766683374641,-6.790717540368258,6.0035774944811955
9.2012499,8.52252919276126,-6.301751962178897,0.5376360712522834,-18.065463560561433,-5.021488371697859,5.741060173300761
9.2112499,8.269464901181651,-6.427456042519662,0.4476730505662831,-19.890227385908933,-3.3364612026108063,5.550394187940578
9.2212499,7.94151226986004,-6.474719488377075,0.32492379126000936,-20.748338683520277,-2.290947932267643,5.331018589159542
9.2312499,7.725920898416287,-6.489345576788363,0.24731035930400203,-20.623703722317625,-1.309477801435561,5.185630171179758
9.2412499,7.557993522155636,-6.407140684805766,0.2069365144026241,-20.937389659498688,-0.27499708969551306,4.905286383115077
9.2512499,7.407189523207494,-6.283663715332895,0.22480503216260492,-22.335727718767192,1.0821923310856738,4.618946474030906
9.2612499,7.32811980253758,-6.140505073305616,0.25922086818877155,-24.963432516025307,3.159557082527581,4.469080578223151
9.2712499,7.309542876640699,-6.066353717587019,0.23845892610985084,-28.114186421082557,5.923967603976602,4.545236196394631
9.2812499,7.113905528061254,-5.9816490823195085,0.2398061777105352,-32.93604894661949,8.085271534079784,4.9411380260197655
9.2912499,6.87365551141905,-5.9742717467089435,0.23794757780753997,-38.571859494993674,10.168863356404596,5.944588437612075
9.3012499,6.829033796665804,-6.131576691460114,0.12224670691997863,-42.53620691883253,13.444659350338634,7.569589024127634
9.3112499,6.642140483328257,-6.17097141917766,-0.04067012234019159,-46.990889286382476,16.335768508637358,9.65141656921751
9.3212499,6.426191026848403,-6.252655312417194,-0.11198743898737212,-51.12313695758819,19.442329743223464,12.057820069426
9.3312499,6.251708594704429,-6.293608176882679,-0.16198438064643034,-54.64524023510287,23.273845241101068,14.552779764484093
9.3412499,6.003549603461395,-6.304553632128731,-0.28036230435856063,-57.711386385220564,27.404486945167893,17.608744701872073
9.3512499,5.709235104457844,-6.348079747564807,-0.4147406016954853,-59.36868411768575,31.537873915028822,21.434047513348716
9.3612499,5.4437431494767425,-6.237554958453371,-0.5585175949103407,-60.32281157710999,35.33071975690556,25.13971520621336
9.3712499,5.238469953408201,-6.033663671236101,-0.7204361461618288,-61.469848964003255,39.52477708254901,29.231682085040884
9.3812499,4.963919448106749,-5.792127456980639,-0.9444674155856502,-63.42440999861441,44.22254476001865,34.0450833854802
9.3912499,4.610604880927424,-5.434041342663632,-1.2840835744144867,-66.77592280596859,49.39813824673013,39.64714547922559
9.4012499,4.331628176103133,-4.968638174265029,-1.5656400174368303,-71.56061959453638,55.44771083159721,45.82178584508645
9.4112499,4.094548021912914,-4.506663164377286,-1.7033494464266876,-77.09509035862222,61.98531804107937,52.394918465363574
9.4212499,3.798553925506944,-4.113953636191159,-1.8027281119253553,-82.9919666214077,68.8782278619818,59.50230379005424
9.4312499,3.4566878074159666,-3.7475929155070897,-1.8414605805805189,-88.09382703450734,76.23720716866744,67.06368129954342
9.4412499,3.1203589859370036,-3.4143918010827976,-1.7687322228282816,-91.76333392826028,83.8144486004941,75.12522089549668
9.4512499,2.754908928906819,-3.208912483884809,-1.6615834814671757,-93.50694359491958,91.13550382761358,84.22166938029133
9.4612499,2.356507396897673,-3.125775636796551,-1.5616807107531605,-92.37412297966223,97.939309186614,94.6994663740377
9.4712499,1.9644793293194989,-3.003123666029803,-1.4458824363949376,-88.86772025597101,104.63614919040404,106.678935359309
9.4812499,1.5878707080899408,-2.8214779616398693,-1.2442140154847483,-83.71033660911755,111.4973943062795,120.02276815997499
9.4912499,1.2811655627547642,-2.632221796530989,-0.9945470231851941,-77.22328763119276,118.77979100815394,134.52249006370673
9.5012499,1.0405742722288853,-2.4093021416818017,-0.7966565066066987,-70.27090524595904,126.56039116793947,150.54220830987774
9.5112499,0.8860445497734011,-2.172320639411652,-0.558473064237081,-63.49922965490626,135.09148572516784,167.89059586365798
9.5212499,0.8513330630831829,-1.9225760936446064,-0.25567964969937473,-57.371194947136274,144.27017015622766,185.82450617970719
9.5312499,0.8803281830210186,-1.687025887476006,0.08012056825972666,-51.96936853919776,153.29408839247336,203.75071959811288
9.5412499,0.8199349131011547,-1.717508579288151,0.6335051544313692,-46.46454055921281,162.81573033551422,221.96045854639908
9.5512499,0.4096760221205568,-2.0591432876384888,1.4253166648101092,-39.29513238107224,173.20729069089293,242.36775863470265
9.5612499,-0.14095712963530735,-2.356457931446262,2.0082913772716564,-31.163500257135315,180.882921996793,260.42019668131036
