# Time (seconds),Accel_X,Accel_Y,Accel_Z,Gyro_X,Gyro_Y,Gyro_Z
0.0099999,8.734047889709473,-2.0254945755004883,1.9943699836730957,-15.2740478515625,-2.2430419921875,1.46484375
0.029999900000000003,8.236053466796875,-2.0590133666992188,1.946485996246338,-3.448486328125,7.781982421875,14.312744140625
0.0499999,8.166622161865234,-1.9847931861877441,1.7860745191574097,-5.9661865234375,11.5966796875,20.3857421875
0.0699999,8.178592681884766,-1.9177556037902832,1.5490485429763794,-12.9547119140625,14.70947265625,27.40478515625
0.08999990000000001,8.236053466796875,-1.8962076902389526,1.2761094570159912,-21.5301513671875,17.425537109375,35.2783203125
0.10999990000000001,8.336610794067383,-1.9632453918457031,1.0271124839782715,-29.47998046875,20.5535888671875,43.39599609375
0.1299999,8.494627952575684,-2.1284453868865967,0.9026140570640564,-36.62109375,24.3377685546875,50.0640869140625
0.14999990000000002,8.734047889709473,-2.4181437492370605,0.9481038451194763,-39.703369140625,29.35791015625,52.215576171875
0.1699999,9.050082206726074,-2.8419175148010254,1.1899182796478271,-36.407470703125,34.1796875,49.3316650390625
0.1899999,9.404424667358398,-3.3925838470458984,1.601720929145813,-27.008056640625,35.15625,42.724609375
0.20999990000000002,9.732429504394531,-4.027047157287598,2.094926595687866,-11.6729736328125,30.7769775390625,33.5235595703125
0.2299999,9.99100399017334,-4.651933670043945,2.6144683361053467,6.28662109375,22.491455078125,23.681640625
0.2499999,10.153809547424316,-5.17626428604126,3.0526070594787598,21.1639404296875,13.3819580078125,12.969970703125
0.2699999,10.211270332336426,-5.494692802429199,3.35667085647583,29.052734375,3.2501220703125,2.8839111328125
0.28999990000000003,10.163386344909668,-5.578489780426025,3.4739866256713867,29.72412109375,-8.2244873046875,-5.828857421875
0.3099999,10.017339706420898,-5.415684223175049,3.375824451446533,22.7203369140625,-18.310546875,-13.0462646484375
0.3299999,9.806650161743164,-5.085284233093262,3.114856481552124,9.27734375,-25.6500244140625,-19.9737548828125
0.34999990000000003,9.545681953430176,-4.656722068786621,2.75812029838562,-4.852294921875,-30.120849609375,-25.7720947265625
0.3699999,9.26795482635498,-4.2329487800598145,2.3918075561523438,-13.1378173828125,-31.8756103515625,-28.6712646484375
0.3899999,8.973467826843262,-3.890577793121338,2.056619167327881,-11.474609375,-31.6925048828125,-28.7628173828125
0.40999990000000003,8.686163902282715,-3.643975019454956,1.8076223134994507,-2.7008056640625,-30.2734375,-25.9552001953125
0.4299999,8.432378768920898,-3.4739866256713867,1.6184803247451782,7.4920654296875,-27.7099609375,-22.0947265625
0.4499999,8.250418663024902,-3.3303346633911133,1.50355863571167,14.373779296875,-23.9410400390625,-18.5699462890625
0.4699999,8.178592681884766,-3.177105665206909,1.4508862495422363,15.7318115234375,-18.9056396484375,-16.3421630859375
0.4899999,8.219294548034668,-3.00711727142334,1.460463047027588,13.1072998046875,-13.5040283203125,-15.2740478515625
0.5099999,8.358158111572266,-2.8395233154296875,1.5059528350830078,9.674072265625,-9.063720703125,-14.34326171875
0.5299999,8.564059257507324,-2.6886885166168213,1.5873557329177856,7.01904296875,-5.859375,-12.847900390625
0.5499999,8.803479194641113,-2.5665841102600098,1.6639702320098877,5.2947998046875,-3.6163330078125,-11.23046875
0.5699999,9.047688484191895,-2.47560453414917,1.7525556087493896,5.55419921875,-1.9073486328125,-9.7808837890625
0.5899998999999999,9.287108421325684,-2.3965959548950195,1.824381709098816,8.11767578125,-0.762939453125,-8.331298828125
0.6099998999999999,9.47146224975586,-2.3295583724975586,1.8842366933822632,12.3138427734375,-0.8087158203125,-7.171630859375
0.6299999,9.600749015808105,-2.248155355453491,1.922544002532959,15.9454345703125,-2.227783203125,-5.828857421875
0.6499999,9.651026725769043,-2.1595699787139893,1.9321208000183105,16.9219970703125,-3.4332275390625,-5.4473876953125
0.6699999,9.63187313079834,-2.0614075660705566,1.9488801956176758,16.204833984375,-4.425048828125,-5.828857421875
0.6899999,9.567230224609375,-1.965639591217041,1.9752163887023926,15.655517578125,-4.5318603515625,-6.988525390625
0.7099999,9.473855972290039,-1.886630892753601,2.0398597717285156,15.8233642578125,-3.5552978515625,-8.5601806640625
0.7299998999999999,9.363722801208496,-1.8315643072128296,2.123656988143921,17.08984375,-2.532958984375,-9.27734375
0.7499998999999999,9.253589630126953,-1.8124107122421265,2.209848165512085,17.1966552734375,-1.6021728515625,-8.36181640625
0.7699999,9.141061782836914,-1.821987509727478,2.279279947280884,14.5416259765625,-1.434326171875,-6.1492919921875
0.7899999,9.035717010498047,-1.8579005002975464,2.3127987384796143,9.2010498046875,-1.739501953125,-3.997802734375
0.8099999,8.96149730682373,-1.8986018896102905,2.31758713722229,2.38037109375,-1.8463134765625,-2.7008056640625
0.8299999,8.923190116882324,-1.941697597503662,2.3032219409942627,-4.669189453125,-1.8310546875,-1.77001953125
0.8499998999999999,8.927978515625,-1.9800047874450684,2.2601263523101807,-8.4686279296875,-1.6632080078125,-0.1068115234375
0.8699998999999999,8.98543930053711,-2.0207061767578125,2.209848165512085,-8.0413818359375,-1.7547607421875,2.8228759765625
0.8899999,9.081207275390625,-2.051830768585205,2.142810583114624,-5.157470703125,-1.434326171875,6.3629150390625
0.9099999,9.215282440185547,-2.075772762298584,2.0853497982025146,-1.28173828125,-0.5340576171875,8.514404296875
0.9299999,9.354146003723145,-2.0901381969451904,2.030282974243164,3.448486328125,0.2288818359375,9.1552734375
0.9499999,9.473855972290039,-2.1068975925445557,1.9919757843017578,7.9345703125,0.1373291015625,8.9111328125
0.9699998999999999,9.564835548400879,-2.1356279850006104,1.965639591217041,10.1470947265625,-0.579833984375,8.1024169921875
0.9899998999999999,9.624691009521484,-2.169146776199341,1.9704279899597168,9.368896484375,-0.9765625,5.9051513671875
1.0099999,9.651026725769043,-2.2002713680267334,1.98958158493042,7.2021484375,-1.1749267578125,2.9144287109375
1.0299999,9.651026725769043,-2.22660756111145,2.0254945755004883,6.317138671875,-2.197265625,0.8544921875
1.0499999,9.619902610778809,-2.2409727573394775,2.054224967956543,6.2408447265625,-3.8604736328125,0.3509521484375
1.0699999,9.569623947143555,-2.233790159225464,2.0614075660705566,4.669189453125,-4.57763671875,0.579833984375
1.0899999,9.50737476348877,-2.2026655673980713,2.0614075660705566,1.1138916015625,-4.1046142578125,1.068115234375
1.1099999,9.44991397857666,-2.1547815799713135,2.0374655723571777,-1.7852783203125,-4.1961669921875,0.701904296875
1.1299999,9.418789863586426,-2.0925323963165283,2.0254945755004883,-4.1961669921875,-4.4708251953125,1.15966796875
1.1499999,9.390059471130371,-2.054224967956543,2.008735179901123,-7.904052734375,-3.875732421875,1.0223388671875
1.1699998999999999,9.3828763961792,-2.049436569213867,2.011129379272461,-9.429931640625,-2.655029296875,0.244140625
1.1899998999999999,9.366117477416992,-2.0877439975738525,2.030282974243164,-7.2784423828125,-1.9073486328125,-0.91552734375
1.2099999,9.32541561126709,-2.164358377456665,2.0422539710998535,-3.6163330078125,-1.3885498046875,-1.77001953125
1.2299999,9.272743225097656,-2.248155355453491,2.0590133666992188,-0.0762939453125,-1.0223388671875,-2.7313232421875
1.2499999,9.198522567749023,-2.3104045391082764,2.0446481704711914,2.3193359375,-0.732421875,-3.2196044921875
1.2699999,9.141061782836914,-2.3127987384796143,2.0183119773864746,1.1138916015625,-0.6256103515625,-2.44140625
1.2899999,9.114726066589355,-2.2649147510528564,1.9776105880737305,-1.861572265625,-0.8392333984375,-2.0599365234375
1.3099999,9.124302864074707,-2.1763293743133545,1.946485996246338,-4.1046142578125,-0.640869140625,-0.946044921875
1.3299999,9.17697525024414,-2.0877439975738525,1.922544002532959,-5.2337646484375,0.06103515625,1.434326171875
1.3499999,9.255983352661133,-2.027888774871826,1.9105730056762695,-5.4779052734375,0.91552734375,3.8909912109375
1.3699999,9.354146003723145,-2.0015525817871094,1.9057846069335938,-5.9661865234375,1.922607421875,5.950927734375
1.3899999,9.44991397857666,-2.0207061767578125,1.900996208190918,-4.3182373046875,2.105712890625,7.0343017578125
1.4099999,9.543288230895996,-2.0661959648132324,1.8938134908676147,-1.1444091796875,1.4190673828125,8.0108642578125
1.4299998999999999,9.607931137084961,-2.1356279850006104,1.8914192914962769,1.7547607421875,0.3204345703125,8.880615234375
1.4499999,9.634267807006836,-2.22660756111145,1.8914192914962769,4.1961669921875,-0.6103515625,8.8958740234375
1.4699999,9.607931137084961,-2.3367409706115723,1.900996208190918,6.500244140625,-1.46484375,8.514404296875
1.4899999,9.531316757202148,-2.470816135406494,1.920149803161621,9.979248046875,-3.1280517578125,8.7738037109375
1.5099999,9.437943458557129,-2.5977089405059814,1.9488801956176758,13.0462646484375,-4.2877197265625,9.6282958984375
1.5299999,9.351752281188965,-2.7030537128448486,1.9847931861877441,13.61083984375,-3.9520263671875,8.48388671875
1.5499999,9.296685218811035,-2.7557260990142822,2.006340980529785,12.0849609375,-2.2125244140625,6.1187744140625
1.5699999,9.27034854888916,-2.765302896499634,1.9967641830444336,8.1634521484375,-0.9613037109375,3.11279296875
1.5899999,9.224859237670898,-2.7485435009002686,1.9249382019042969,0,-0.274658203125,0.762939453125
1.6099999,9.131484985351562,-2.7222073078155518,1.778891921043396,-10.4827880859375,0.7476806640625,-1.4495849609375
1.6299999,8.983044624328613,-2.715024709701538,1.6184803247451782,-20.843505859375,2.4566650390625,-3.4332275390625
1.6499999,8.779537200927734,-2.7222073078155518,1.4413094520568848,-27.0843505859375,5.7373046875,-2.4261474609375
1.6699999,8.556877136230469,-2.717418909072876,1.3048399686813354,-27.4200439453125,9.5367431640625,2.13623046875
1.6899998999999999,8.336610794067383,-2.6862943172454834,1.194706678390503,-26.6265869140625,12.8021240234375,7.843017578125
1.7099999,8.17141056060791,-2.5689783096313477,1.1085153818130493,-25.3143310546875,15.869140625,14.6331787109375
1.7299999,8.063671112060547,-2.38462495803833,1.070208191871643,-21.759033203125,18.9361572265625,23.0255126953125
1.7499999,7.939172744750977,-2.164358377456665,1.0438719987869263,-15.0146484375,20.56884765625,35.9649658203125
1.7699999,7.747636795043945,-1.944091796875,0.9552865028381348,-7.8887939453125,16.8914794921875,57.9376220703125
1.7899999,7.501033782958984,-1.764526605606079,0.7541735172271729,-5.889892578125,7.1563720703125,87.005615234375
1.8099999,7.398083209991455,-1.6136919260025024,0.37828385829925537,-19.8516845703125,-3.265380859375,122.0245361328125
1.8299999,7.60637903213501,-1.4963760375976562,-0.22026655077934265,-53.5736083984375,-13.336181640625,159.48486328125
1.8499999,8.480262756347656,-1.3215993642807007,-1.0654197931289673,-110.4888916015625,-26.153564453125,196.2738037109375
1.8699999,10.702081680297852,-1.213860273361206,-2.1116859912872314,-171.356201171875,-51.69677734375,224.700927734375
1.8899999,15.167267799377441,-0.9624691009521484,-3.002328872680664,-203.0029296875,-94.940185546875,251.9378662109375
1.9099999,21.385009765625,-0.33997663855552673,-3.7158010005950928,-203.0487060546875,-141.17431640625,282.1044921875
1.9299998999999999,28.629863739013672,0.7733271718025208,-4.067748546600342,-259.9945068359375,-183.013916015625,304.107666015625
1.9499999,34.6153678894043,2.6623523235321045,-3.6080620288848877,-359.0087890625,-212.860107421875,288.7420654296875
1.9699999,36.487632751464844,3.8498764038085938,-2.5067291259765625,-500,-194.000244140625,274.2462158203125
1.9899999,32.316932678222656,3.974374771118164,-0.6751648783683777,-500,-152.6641845703125,306.488037109375
2.0099999,20.202274322509766,2.03507137298584,0.8403648138046265,-500,-137.0086669921875,356.62841796875
2.0299999,0.6009446382522583,-1.5873557329177856,0.38546648621559143,-488.2659912109375,-131.5460205078125,437.3626708984375
2.0499999,-20.21903419494629,-4.228160381317139,-0.2992752194404602,-391.937255859375,-50.7354736328125,434.6923828125
2.0699999,-37.730224609375,-5.5545477867126465,-1.4987702369689941,-262.4359130859375,101.531982421875,166.6717529296875
2.0899999,-47.12746810913086,-6.007051944732666,-2.8419175148010254,77.178955078125,125.4425048828125,-190.673828125
2.1099999,-48.00135040283203,-5.015852451324463,-3.670311212539673,456.207275390625,16.265869140625,-296.93603515625
2.1299999,-42.18104553222656,-3.737348794937134,-5.499481201171875,498.291015625,-56.3201904296875,-217.987060546875
2.1499999,-33.25785446166992,-3.00711727142334,-7.955932140350342,272.7813720703125,-41.595458984375,-206.756591796875
2.1699999,-21.909339904785156,-1.9560627937316895,-10.137049674987793,59.0972900390625,24.7802734375,-211.1968994140625
2.1899999,-9.6989107131958,-2.2026655673980713,-11.142614364624023,-21.942138671875,83.19091796875,-175.84228515625
2.2099999,1.522712230682373,-3.8977603912353516,-10.96304988861084,25.1312255859375,128.41796875,-134.8114013671875
2.2299999,10.675745010375977,-6.2416839599609375,-9.916783332824707,134.246826171875,171.417236328125,-88.8519287109375
2.2499999,16.982072830200195,-8.283937454223633,-8.401253700256348,248.2452392578125,187.0269775390625,-61.2945556640625
2.2699999,20.099323272705078,-9.246406555175781,-6.88332986831665,319.9310302734375,176.0406494140625,-68.4051513671875
2.2899999,20.55182647705078,-8.983044624328613,-5.746084213256836,329.6051025390625,168.0908203125,-98.0224609375
2.3099999,18.91179847717285,-7.723694801330566,-4.857835292816162,301.33056640625,163.6199951171875,-131.134033203125
2.3299999,16.086641311645508,-6.095637321472168,-3.9887399673461914,263.8397216796875,146.087646484375,-158.5235595703125
2.3499999,13.072340965270996,-4.697423934936523,-2.985569477081299,242.49267578125,115.7684326171875,-177.276611328125
2.3699999,10.436325073242188,-3.600879430770874,-1.8626888990402222,233.9324951171875,87.5244140625,-177.0782470703125
2.3899999,8.463502883911133,-3.0597896575927734,-0.7206547260284424,211.212158203125,67.8863525390625,-170.196533203125
2.4099999,7.168240070343018,-2.832340717315674,0.2322375625371933,175.2166748046875,46.7071533203125,-158.6151123046875
2.4299999,6.45476770401001,-2.8562827110290527,0.8188169598579407,148.773193359375,21.0723876953125,-137.1917724609375
2.4499999,6.339846134185791,-2.832340717315674,1.0773907899856567,133.6517333984375,-0.213623046875,-115.2801513671875
2.4699999,6.730101108551025,-2.736572504043579,1.0989385843276978,106.048583984375,-5.4931640625,-105.5908203125
2.4899999,7.501033782958984,-2.47560453414917,1.0773907899856567,73.91357421875,3.936767578125,-106.5673828125
2.5099999,8.406042098999023,-2.1116859912872314,0.9840168952941895,47.36328125,17.2576904296875,-96.3134765625
2.5299999,9.23682975769043,-1.8698714971542358,0.9433154463768005,27.801513671875,23.7579345703125,-81.817626953125
2.5499999,9.840168952941895,-1.8171991109848022,1.0079588890075684,21.0418701171875,20.9808349609375,-68.3135986328125
2.5699999,10.1753568649292,-1.9177556037902832,1.2401964664459229,27.9388427734375,15.6097412109375,-51.45263671875
2.5899999,10.29746150970459,-2.094926595687866,1.6376339197158813,35.2020263671875,10.55908203125,-35.33935546875
2.6099999,10.259154319763184,-2.31758713722229,2.126051187515259,26.8096923828125,4.180908203125,-24.139404296875
2.6299999,10.089165687561035,-2.513911724090576,2.5546131134033203,7.4310302734375,-3.082275390625,-13.9923095703125
2.6499999,9.880870819091797,-2.631227731704712,2.8874073028564453,-14.1448974609375,-10.009765625,-3.7841796875
2.6699999,9.708487510681152,-2.676717519760132,3.1028854846954346,-30.4718017578125,-16.0369873046875,-1.1749267578125
2.6899999,9.658209800720215,-2.609679937362671,3.31118106842041,-32.4859619140625,-20.7672119140625,-7.1563720703125
2.7099999,9.677363395690918,-2.382230758666992,3.442862033843994,-24.8565673828125,-20.8740234375,-12.5732421875
2.7299999,9.701305389404297,-2.0590133666992188,3.4332852363586426,-18.00537109375,-18.61572265625,-16.448974609375
2.7499999,9.619902610778809,-1.6831238269805908,3.2106244564056396,-12.603759765625,-16.876220703125,-20.538330078125
2.7699999,9.440337181091309,-1.2832920551300049,2.7485435009002686,-7.3394775390625,-15.8538818359375,-19.775390625
2.7899999,9.186552047729492,-0.9768342971801758,2.142810583114624,-4.7454833984375,-14.862060546875,-14.923095703125
2.8099999,8.968679428100586,-0.8212111592292786,1.5658079385757446,-3.021240234375,-13.1988525390625,-5.0201416015625
2.8299999,8.841787338256836,-0.8834604024887085,1.137245774269104,0.5950927734375,-10.1165771484375,6.6986083984375
2.8499999,8.832210540771484,-1.2066776752471924,0.9840168952941895,9.1552734375,-7.6141357421875,15.869140625
2.8699999,8.935160636901855,-1.7501614093780518,1.070208191871643,24.9176025390625,-7.2174072265625,22.2015380859375
2.8899999,9.0859956741333,-2.4229321479797363,1.3239935636520386,43.3807373046875,-8.697509765625,25.238037109375
2.9099999,9.258378028869629,-3.002328872680664,1.6352397203445435,49.8046875,-10.1470947265625,23.0255126953125
2.9299999,9.425971984863281,-3.3734302520751953,1.9105730056762695,34.0118408203125,-9.70458984375,11.5203857421875
2.9499999,9.560047149658203,-3.49314022064209,2.0853497982025146,5.8746337890625,-7.7362060546875,-4.33349609375
2.9699999,9.627084732055664,-3.4189200401306152,2.1475989818573,-12.6800537109375,-6.3934326171875,-15.2435302734375
2.9899999,9.627084732055664,-3.292027235031128,2.1140801906585693,-12.1612548828125,-8.056640625,-18.5394287109375
3.0099999,9.552865028381348,-3.1914708614349365,1.9632453918457031,-0.213623046875,-10.8795166015625,-15.899658203125
3.0299999,9.421183586120605,-3.093308687210083,1.7597382068634033,8.270263671875,-11.3525390625,-10.1470947265625
3.0499999,9.287108421325684,-2.9688100814819336,1.5298948287963867,4.9896240234375,-8.7738037109375,-4.57763671875
3.0699999,9.169792175292969,-2.8203697204589844,1.3407529592514038,-7.38525390625,-4.2724609375,-1.3580322265625
3.0899999,9.069235801696777,-2.698265314102173,1.216254472732544,-19.073486328125,0.42724609375,0.5340576171875
3.1099999,8.978256225585938,-2.650381326675415,1.1659762859344482,-26.9775390625,4.1961669921875,4.058837890625
3.1299999,8.887276649475098,-2.7461493015289307,1.2042834758758545,-30.2886962890625,5.859375,7.1563720703125
3.1499999,8.793902397155762,-2.9233202934265137,1.259350061416626,-25.4669189453125,5.7525634765625,7.75146484375
3.1699999,8.71728801727295,-3.07415509223938,1.3072341680526733,-20.9503173828125,4.638671875,6.8206787109375
3.1899999,8.702922821044922,-3.1196448802948,1.3311761617660522,-26.18408203125,3.84521484375,5.2032470703125
3.2099999,8.722076416015625,-3.0334534645080566,1.3120225667953491,-33.1573486328125,3.9215087890625,2.9144287109375
3.2299999,8.734047889709473,-2.896984100341797,1.278503656387329,-29.205322265625,3.0975341796875,1.739501953125
3.2499999,8.731653213500977,-2.717418909072876,1.2689268589019775,-16.082763671875,-0.3509521484375,5.6610107421875
3.2699999,8.69095230102539,-2.5234885215759277,1.292868971824646,-5.9814453125,-4.2724609375,10.3759765625
3.2899999,8.671798706054688,-2.2385785579681396,1.3263877630233765,-5.18798828125,-5.340576171875,14.6331787109375
3.3099999,8.652645111083984,-1.8986018896102905,1.3455413579940796,-10.772705078125,-4.7607421875,20.050048828125
3.3299999000000002,8.650250434875488,-1.5945383310317993,1.2665326595306396,-15.0604248046875,-5.1727294921875,30.6549072265625
3.3499999,8.53293514251709,-1.4413094520568848,1.0079588890075684,-14.0838623046875,-7.2174072265625,48.309326171875
3.3699999,8.307879447937012,-1.5298948287963867,0.5674257874488831,-11.1083984375,-10.6658935546875,70.9075927734375
3.3899999,7.977479934692383,-1.8579005002975464,-0.05985504388809204,-9.490966796875,-14.3890380859375,96.8780517578125
3.4099999,7.613561630249023,-2.27209734916687,-0.751779317855835,-15.3045654296875,-16.6473388671875,127.7313232421875
3.4299999,7.333439826965332,-2.760514497756958,-1.3862427473068237,-33.7677001953125,-15.7623291015625,156.8603515625
3.4499999,7.331045627593994,-3.315969467163086,-1.86508309841156,-57.0831298828125,-11.1846923828125,183.563232421875
3.4699999,7.800309181213379,-3.936067581176758,-2.233790159225464,-70.556640625,-9.46044921875,212.188720703125
3.4899999,9.157821655273438,-4.486733913421631,-2.564189910888672,-79.6356201171875,-19.2718505859375,239.7308349609375
3.5099999,12.090718269348145,-4.797980308532715,-3.0382418632507324,-108.3984375,-46.630859375,255.706787109375
3.5299999,17.31247329711914,-4.3861775398254395,-3.337517261505127,-182.464599609375,-96.6796875,258.880615234375
3.5499999,24.3011474609375,-3.421314239501953,-3.3039982318878174,-277.03857421875,-160.1409912109375,231.93359375
3.5699999,31.684865951538086,-2.231395959854126,-2.7557260990142822,-324.27978515625,-207.9925537109375,187.4237060546875
3.5899999,37.05506134033203,-0.8331822156906128,-1.556231141090393,-366.4398193359375,-215.6829833984375,190.338134765625
3.6099999,37.60811996459961,0.26336219906806946,-0.028730420395731926,-460.3424072265625,-186.981201171875,234.7564697265625
3.6299999,31.4023494720459,1.0965443849563599,1.158793568611145,-500,-133.4228515625,298.52294921875
3.6499999,16.608577728271484,0.9265560507774353,0.6655880808830261,-500,-81.878662109375,396.942138671875
3.6699999,-5.884947776794434,-0.4213795065879822,-2.2002713680267334,-500,-53.2989501953125,499.9847412109375
3.6899999,-27.28911018371582,-1.6639702320098877,-3.818751811981201,-495.6817626953125,50.3692626953125,394.59228515625
3.7099999,-44.27836608886719,-3.976768970489502,-5.48272180557251,-186.370849609375,203.0029296875,0.9002685546875
3.7299999,-51.98769760131836,-6.244078159332275,-6.081272125244141,395.172119140625,129.058837890625,-326.5533447265625
3.7499999,-49.75151062011719,-6.224924564361572,-5.813121795654297,499.9847412109375,-37.1246337890625,-314.544677734375
3.7699999,-41.9583854675293,-5.580883979797363,-7.309497833251953,499.9847412109375,-100.4180908203125,-243.3319091796875
3.7899999,-31.11743927001953,-3.227383852005005,-9.198522567749023,139.068603515625,-43.5791015625,-269.317626953125
3.8099999,-18.016366958618164,-0.5985504388809204,-10.290278434753418,-76.873779296875,50.6439208984375,-258.4991455078125
3.8299999000000002,-5.015852451324463,0.05506663769483566,-10.371682167053223,-78.9031982421875,122.7874755859375,-212.8753662109375
3.8499999,5.975927352905273,-1.316810965538025,-9.68933391571045,53.3294677734375,154.6630859375,-156.9671630859375
3.8699999,13.874399185180664,-3.60566782951355,-8.576030731201172,214.630126953125,161.6058349609375,-107.452392578125
3.8899999,18.54069709777832,-5.518634796142578,-7.448361396789551,300.1251220703125,172.9888916015625,-81.7413330078125
3.9099999,20.23579216003418,-6.22731876373291,-6.543353080749512,293.5943603515625,180.206298828125,-87.46337890625
3.9299999,19.74737548828125,-5.6670756340026855,-5.8442463874816895,258.85009765625,157.04345703125,-119.781494140625
3.9499999,17.86074447631836,-4.170699596405029,-5.2672438621521,223.20556640625,126.4495849609375,-137.6495361328125
3.9699999,15.207969665527344,-2.6001031398773193,-4.596867084503174,181.9305419921875,113.6627197265625,-140.4266357421875
3.9899999,12.588712692260742,-1.3718775510787964,-3.794809579849243,137.2222900390625,118.22509765625,-135.4522705078125
4.0099999,10.453084945678711,-0.9241618514060974,-2.7748796939849854,114.501953125,119.2626953125,-129.058837890625
4.029999900000001,8.887276649475098,-1.1468225717544556,-1.7573440074920654,126.7852783203125,108.917236328125,-115.3106689453125
4.0499999,7.8314337730407715,-1.8770540952682495,-0.8188169598579407,148.681640625,96.0235595703125,-98.7701416015625
4.069999900000001,7.086836814880371,-2.7078421115875244,-0.05506663769483566,154.23583984375,84.6405029296875,-90.9576416015625
4.0899999000000005,6.730101108551025,-3.3231520652770996,0.4836287498474121,136.5509033203125,76.1871337890625,-84.4573974609375
4.1099999,6.799532890319824,-3.670311212539673,0.7757213711738586,107.025146484375,63.1866455078125,-79.681396484375
4.1299999000000005,7.3238630294799805,-3.7229835987091064,0.8259995579719543,70.49560546875,50.5523681640625,-69.88525390625
4.1499999,8.17141056060791,-3.643975019454956,0.667982280254364,32.196044921875,39.794921875,-61.6607666015625
4.1699999000000005,9.157821655273438,-3.485957622528076,0.4118026793003082,7.0648193359375,29.693603515625,-56.3201904296875
4.1899999,10.067618370056152,-3.3518824577331543,0.24899697303771973,2.685546875,16.6015625,-50.5523681640625
4.209999900000001,10.764330863952637,-3.2585084438323975,0.2322375625371933,12.1307373046875,3.448486328125,-43.853759765625
4.2299999,11.154585838317871,-3.1052796840667725,0.43095630407333374,16.082763671875,-3.6468505859375,-35.2020263671875
4.249999900000001,11.21204662322998,-2.9041666984558105,0.7733271718025208,11.4288330078125,-6.65283203125,-33.3251953125
4.2699999,10.99656867980957,-2.6384103298187256,1.1683704853057861,9.918212890625,-6.4239501953125,-35.003662109375
4.289999900000001,10.615890502929688,-2.3750481605529785,1.5394717454910278,12.1307373046875,-5.4473876953125,-32.65380859375
4.3099999,10.18493366241455,-2.1499931812286377,1.8052281141281128,13.427734375,-5.5999755859375,-26.30615234375
4.329999900000001,9.775525093078613,-1.9823989868164062,1.8938134908676147,14.4500732421875,-7.5225830078125,-21.759033203125
4.3499999,9.418789863586426,-1.8698714971542358,1.8387469053268433,15.380859375,-10.009765625,-17.7154541015625
4.369999900000001,9.124302864074707,-1.8483237028121948,1.6903064250946045,15.289306640625,-11.3677978515625,-13.97705078125
4.3899999,8.899248123168945,-1.9081788063049316,1.5490485429763794,13.5650634765625,-10.92529296875,-8.8043212890625
4.409999900000001,8.772355079650879,-2.027888774871826,1.4676456451416016,10.4217529296875,-7.87353515625,-3.692626953125
4.4299999,8.705317497253418,-2.1547815799713135,1.4437036514282227,8.4228515625,-3.8299560546875,-2.0599365234375
4.449999900000001,8.69334602355957,-2.2457611560821533,1.4628572463989258,7.1563720703125,-0.946044921875,-2.5482177734375
4.4699999,8.722076416015625,-2.3247697353363037,1.4867992401123047,7.99560546875,0.5950927734375,-4.302978515625
4.489999900000001,8.734047889709473,-2.43011474609375,1.4724340438842773,7.3394775390625,2.50244140625,-5.1727294921875
4.5099999,8.892065048217773,-2.5761611461639404,1.4987702369689941,5.1422119140625,3.936767578125,-4.7760009765625
4.529999900000001,9.141061782836914,-2.7724854946136475,1.5298948287963867,10.772705078125,5.9051513671875,-4.2266845703125
4.5499999,9.500192642211914,-2.956839084625244,1.5753847360610962,22.76611328125,5.9051513671875,-1.5106201171875
4.569999900000001,9.86889934539795,-3.0837318897247314,1.5945383310317993,28.106689453125,2.044677734375,1.617431640625
4.5899999000000005,10.15141487121582,-3.1004912853240967,1.5538369417190552,23.162841796875,-4.2877197265625,0.762939453125
4.609999900000001,10.268731117248535,-3.00711727142334,1.460463047027588,10.345458984375,-8.819580078125,-1.5106201171875
4.6299999000000005,10.230423927307129,-2.832340717315674,1.3623007535934448,-5.279541015625,-11.383056640625,-3.0517578125
4.6499999,10.053253173828125,-2.6623523235321045,1.3096283674240112,-15.80810546875,-11.9171142578125,-4.5928955078125
4.6699999000000005,9.75637149810791,-2.557007312774658,1.3192051649093628,-14.7247314453125,-10.986328125,-4.974365234375
4.6899999,9.39245319366455,-2.542642116546631,1.37906014919281,-3.6163330078125,-9.3994140625,-2.5177001953125
4.709999900000001,9.033323287963867,-2.5713725090026855,1.4844050407409668,7.0953369140625,-7.7362060546875,1.6326904296875
4.7299999,8.7484130859375,-2.583343744277954,1.599326729774475,10.3302001953125,-5.035400390625,3.8604736328125
4.749999900000001,8.592789649963379,-2.5091233253479004,1.6903064250946045,7.4615478515625,-1.40380859375,4.669189453125
4.7699999,8.580819129943848,-2.3918075561523438,1.7477672100067139,1.800537109375,1.8768310546875,5.1116943359375
4.789999900000001,8.674192428588867,-2.300827741622925,1.7334020137786865,1.3580322265625,4.364013671875,4.974365234375
4.8099999,8.846575736999512,-2.31758713722229,1.6950948238372803,7.9345703125,5.4779052734375,5.18798828125
4.829999900000001,9.047688484191895,-2.4636335372924805,1.601720929145813,17.27294921875,5.9661865234375,6.256103515625
4.8499999,9.21288776397705,-2.734178304672241,1.479616641998291,23.9105224609375,6.6070556640625,6.89697265625
4.869999900000001,9.306262016296387,-3.0550012588500977,1.3192051649093628,24.3988037109375,6.2255859375,7.049560546875
4.8899999,9.320627212524414,-3.359065055847168,1.1492167711257935,16.143798828125,5.3253173828125,6.1187744140625
4.909999900000001,9.27034854888916,-3.5697548389434814,0.9983820915222168,-1.03759765625,6.6375732421875,3.96728515625
4.9299999,9.184157371520996,-3.665522813796997,0.9193734526634216,-22.5067138671875,9.796142578125,-0.06103515625
4.949999900000001,9.08838939666748,-3.6535518169403076,0.9409212470054626,-37.872314453125,13.031005859375,-3.1280517578125
4.9699999,8.96389102935791,-3.5889084339141846,1.0438719987869263,-38.4674072265625,14.70947265625,-2.0904541015625
4.989999900000001,8.810662269592285,-3.4763808250427246,1.192312479019165,-27.313232421875,14.58740234375,3.6468505859375
5.0099999,8.645462036132812,-3.294421434402466,1.314416766166687,-17.63916015625,14.1143798828125,11.1541748046875
5.029999900000001,8.47786808013916,-3.002328872680664,1.3838485479354858,-18.3258056640625,14.3585205078125,17.0135498046875
5.0499999,8.317456245422363,-2.6408045291900635,1.3431471586227417,-28.289794921875,15.533447265625,20.99609375
5.069999900000001,8.145073890686035,-2.2912509441375732,1.2114660739898682,-38.6810302734375,17.120361328125,25.8331298828125
5.0899999000000005,7.884106159210205,-2.075772762298584,0.9648633003234863,-43.5791015625,18.49365234375,31.92138671875
5.109999900000001,7.4986395835876465,-2.0422539710998535,0.5913678407669067,-43.701171875,19.195556640625,39.8101806640625
5.1299999000000005,7.050923824310303,-2.1380221843719482,0.14365209639072418,-41.5802001953125,18.798828125,53.009033203125
5.1499999,6.687005519866943,-2.2888567447662354,-0.29209262132644653,-40.0543212890625,17.9443359375,75.042724609375
5.1699999000000005,6.646304130554199,-2.403778553009033,-0.6009446382522583,-44.12841796875,18.646240234375,109.5428466796875
5.1899999,7.0988078117370605,-2.5306711196899414,-0.6991068720817566,-55.5877685546875,18.1121826171875,151.641845703125
5.209999900000001,8.10437297821045,-2.7772738933563232,-0.6153098344802856,-73.4405517578125,10.4827880859375,195.2972412109375
5.2299999,9.761159896850586,-3.2800562381744385,-0.5027823448181152,-94.2840576171875,-9.6893310546875,234.222412109375
5.249999900000001,12.392388343811035,-4.101267337799072,-0.5674257874488831,-119.598388671875,-44.1131591796875,259.9029541015625
5.2699999,16.316484451293945,-4.965574264526367,-0.7589619159698486,-168.2281494140625,-88.0584716796875,265.2435302734375
5.289999900000001,21.92849349975586,-5.099649429321289,-0.8259995579719543,-261.9171142578125,-136.6729736328125,241.1346435546875
5.3099999,28.56521987915039,-4.256890773773193,-0.40222588181495667,-372.222900390625,-190.460205078125,166.168212890625
5.329999900000001,34.656070709228516,-2.3056161403656006,0.4357447028160095,-456.5277099609375,-217.8192138671875,65.8721923828125
5.3499999,38.28567886352539,-0.4141969084739685,1.3335703611373901,-500,-207.794189453125,18.8446044921875
5.369999900000001,37.028724670410156,-0.16998831927776337,1.9560627937316895,-500,-200.2105712890625,67.6116943359375
5.3899999,29.45347023010254,-1.5394717454910278,2.1954829692840576,-500,-209.228515625,207.000732421875
5.409999900000001,13.57751750946045,-4.218583583831787,1.0319008827209473,-402.984619140625,-213.9892578125,365.8599853515625
5.4299999,-8.164227485656738,-6.327875137329102,-1.4221558570861816,-348.6175537109375,-188.53759765625,499.9847412109375
5.449999900000001,-28.61789321899414,-5.652710437774658,-2.7485435009002686,-358.734130859375,-23.590087890625,392.7154541015625
5.4699999,-43.44757843017578,-4.412513732910156,-4.335899353027344,-235.321044921875,167.48046875,6.195068359375
5.489999900000001,-48.66215133666992,-2.9257144927978516,-4.836287498474121,182.43408203125,137.664794921875,-287.628173828125
5.5099999,-45.410823822021484,-1.6759412288665771,-5.116408824920654,499.9847412109375,32.9437255859375,-317.0013427734375
5.529999900000001,-37.48362350463867,-1.3646949529647827,-6.581660270690918,499.9847412109375,-23.6663818359375,-255.1727294921875
5.5499999,-28.242002487182617,-0.7709329724311829,-8.453926086425781,271.9268798828125,-12.6495361328125,-248.7640380859375
5.569999900000001,-17.66681480407715,0.05267243832349777,-9.945513725280762,98.93798828125,40.7867431640625,-221.8017578125
5.5899999000000005,-6.8809356689453125,-0.26096799969673157,-10.508151054382324,63.7359619140625,85.174560546875,-188.262939453125
5.609999900000001,2.9664158821105957,-1.7166426181793213,-10.220847129821777,123.809814453125,109.9395751953125,-147.5982666015625
5.6299999000000005,10.795455932617188,-3.8355112075805664,-9.210494041442871,206.3140869140625,136.4288330078125,-113.7237548828125
5.6499999,16.27338981628418,-5.719748020172119,-7.802703380584717,265.44189453125,168.914794921875,-89.630126953125
5.6699999000000005,18.84236717224121,-6.689399719238281,-6.4595561027526855,298.248291015625,172.3175048828125,-80.9326171875
5.6899999,18.974048614501953,-6.521805286407471,-5.284003257751465,302.215576171875,148.0255126953125,-89.263916015625
5.709999900000001,17.413028717041016,-5.413290023803711,-4.438849925994873,282.501220703125,128.814697265625,-107.7423095703125
5.7299999,15.016432762145996,-3.8091750144958496,-3.869029998779297,240.5548095703125,129.8370361328125,-124.7100830078125
5.749999900000001,12.492944717407227,-2.3558945655822754,-3.450044631958008,189.8345947265625,125.2288818359375,-141.0675048828125
5.7699999,10.47942066192627,-1.5179238319396973,-3.0119056701660156,161.712646484375,105.9722900390625,-146.8658447265625
5.789999900000001,9.107542991638184,-1.2976573705673218,-2.5785553455352783,154.327392578125,91.30859375,-133.8958740234375
5.8099999,8.38449478149414,-1.7501614093780518,-1.968033790588379,151.67236328125,84.2437744140625,-124.3438720703125
5.829999900000001,8.202534675598145,-2.4803929328918457,-1.2952631711959839,151.8707275390625,72.2503662109375,-116.8060302734375
5.8499999,8.44434928894043,-3.2561142444610596,-0.6416460275650024,151.30615234375,50.96435546875,-102.6458740234375
5.869999900000001,8.880094528198242,-3.77565598487854,-0.17956513166427612,140.1824951171875,29.571533203125,-91.064453125
5.8899999,9.373299598693848,-3.9695863723754883,0.10534487664699554,109.5733642578125,17.27294921875,-90.0421142578125
5.909999900000001,9.816226959228516,-3.734954595565796,0.26096799969673157,66.9708251953125,12.8631591796875,-88.9892578125
5.9299999,10.266336441040039,-3.2968156337738037,0.35434186458587646,27.8472900390625,12.176513671875,-82.7484130859375
5.949999900000001,10.632649421691895,-2.8802247047424316,0.49799394607543945,9.124755859375,8.1634521484375,-73.0438232421875
5.9699999,10.855310440063477,-2.583343744277954,0.7230489253997803,9.796142578125,2.38037109375,-58.65478515625
5.989999900000001,10.879252433776855,-2.4157495498657227,1.0630255937576294,17.88330078125,-2.410888671875,-43.548583984375
6.0099999,10.697293281555176,-2.279279947280884,1.4987702369689941,24.6734619140625,-5.279541015625,-30.8837890625
6.029999900000001,10.35252857208252,-2.1164743900299072,1.9177556037902832,21.942138671875,-4.82177734375,-24.5361328125
6.0499999,9.909601211547852,-1.889025092124939,2.319981336593628,5.92041015625,-2.3651123046875,-21.9573974609375
6.069999900000001,9.461885452270508,-1.6400281190872192,2.6455929279327393,-13.5650634765625,-1.1749267578125,-19.500732421875
6.0899999000000005,9.042900085449219,-1.4700398445129395,2.8419175148010254,-21.453857421875,-2.5787353515625,-15.93017578125
6.109999900000001,8.707711219787598,-1.3958195447921753,2.9017724990844727,-16.41845703125,-6.3018798828125,-10.223388671875
6.1299999000000005,8.520963668823242,-1.3982137441635132,2.8203697204589844,-8.819580078125,-10.5743408203125,-3.753662109375
6.149999900000001,8.530540466308594,-1.4508862495422363,2.6431987285614014,-9.429931640625,-11.3525390625,-0.7781982421875
6.1699999000000005,8.676587104797363,-1.53707754611969,2.382230758666992,-15.838623046875,-7.415771484375,0.5950927734375
6.1899999,8.918401718139648,-1.6663644313812256,2.0614075660705566,-18.6004638671875,-3.7078857421875,3.4332275390625
6.209999900000001,9.153033256530762,-1.8411411046981812,1.6903064250946045,-15.8538818359375,-3.997802734375,6.927490234375
6.2299999,9.351752281188965,-2.0614075660705566,1.2880805730819702,-13.5955810546875,-4.547119140625,7.8277587890625
6.249999900000001,9.512163162231445,-2.248155355453491,0.9265560507774353,-14.007568359375,-3.0975341796875,8.1024169921875
6.2699999,9.677363395690918,-2.3918075561523438,0.6967126727104187,-14.34326171875,0.0457763671875,8.087158203125
6.289999900000001,9.787496566772461,-2.4827871322631836,0.629675030708313,-12.9241943359375,3.9215087890625,6.866455078125
6.3099999,9.804255485534668,-2.5546131134033203,0.7350199222564697,-14.0228271484375,7.2784423828125,5.0811767578125
6.329999900000001,9.696516990661621,-2.631227731704712,0.9600749015808105,-16.0980224609375,9.246826171875,2.5177001953125
6.3499999,9.485827445983887,-2.7269957065582275,1.2761094570159912,-14.2364501953125,9.8724365234375,0.06103515625
6.369999900000001,9.222464561462402,-2.806004285812378,1.577778935432434,-8.209228515625,9.033203125,-1.5411376953125
6.3899999,8.990227699279785,-2.829946517944336,1.8195933103561401,-3.0364990234375,6.011962890625,-1.800537109375
6.409999900000001,8.83939266204834,-2.782062292098999,1.9081788063049316,-1.739501953125,2.0599365234375,-0.885009765625
6.4299999,8.820239067077637,-2.676717519760132,1.8626888990402222,-4.4403076171875,-1.1444091796875,0.8087158203125
6.449999900000001,8.93037223815918,-2.5665841102600098,1.6950948238372803,-9.857177734375,-1.708984375,2.471923828125
6.4699999,9.126696586608887,-2.513911724090576,1.4772224426269531,-13.3514404296875,0.0152587890625,3.204345703125
6.489999900000001,9.35654067993164,-2.5474305152893066,1.292868971824646,-10.19287109375,0.946044921875,4.3487548828125
6.5099999,9.53849983215332,-2.6575639247894287,1.1659762859344482,-1.190185546875,1.1138916015625,5.462646484375
6.529999900000001,9.636661529541016,-2.806004285812378,1.1324573755264282,7.232666015625,0.8087158203125,5.8135986328125
6.5499999,9.646238327026367,-2.9233202934265137,1.1803414821624756,9.5977783203125,-0.1678466796875,5.5389404296875
6.569999900000001,9.591172218322754,-2.9664158821105957,1.2665326595306396,5.18798828125,-0.885009765625,4.486083984375
6.5899999000000005,9.488221168518066,-2.959233283996582,1.3479355573654175,-1.7547607421875,-1.89208984375,2.685546875
6.609999900000001,9.363722801208496,-2.918531894683838,1.414973258972168,-7.87353515625,-3.082275390625,3.1280517578125
6.6299999000000005,9.23443603515625,-2.9233202934265137,1.4317326545715332,-8.270263671875,-4.2572021484375,4.119873046875
6.649999900000001,9.0859956741333,-2.985569477081299,1.414973258972168,-3.23486328125,-5.096435546875,5.889892578125
6.6699999000000005,8.7484130859375,-3.265691041946411,1.2330138683319092,-1.4801025390625,-2.9449462890625,8.575439453125
6.6899999,8.552088737487793,-3.4356794357299805,1.0319008827209473,-6.561279296875,0.030517578125,9.246826171875
6.709999900000001,8.348581314086914,-3.579331636428833,0.7709329724311829,-13.8092041015625,3.6773681640625,13.0157470703125
6.7299999,8.190564155578613,-3.5673606395721436,0.545877993106842,-19.927978515625,5.9814453125,21.8353271484375
6.749999900000001,8.094796180725098,-3.4572272300720215,0.4118026793003082,-21.087646484375,7.7972412109375,26.092529296875
6.7699999,8.128314971923828,-3.224989652633667,0.40222588181495667,-16.4337158203125,11.2152099609375,26.6571044921875
6.789999900000001,8.250418663024902,-2.940079689025879,0.5267243981361389,-8.819580078125,13.8397216796875,33.0810546875
6.8099999,8.413225173950195,-2.7030537128448486,0.6655880808830261,-2.5787353515625,13.2598876953125,43.5638427734375
6.829999900000001,8.525752067565918,-2.5115175247192383,0.7852981686592102,-2.288818359375,8.3770751953125,56.6864013671875
6.8499999,8.530540466308594,-2.3942017555236816,0.8020575642585754,-10.3759765625,0.5950927734375,73.8067626953125
6.869999900000001,8.487444877624512,-2.3989901542663574,0.6871358752250671,-26.153564453125,-8.5296630859375,93.93310546875
6.8899999,8.437167167663574,-2.5234885215759277,0.42377370595932007,-48.9349365234375,-17.242431640625,117.1112060546875
6.909999900000001,8.552088737487793,-2.7102363109588623,0.12449848651885986,-76.3397216796875,-22.76611328125,139.556884765625
6.9299999,8.968679428100586,-2.96162748336792,-0.1364694982767105,-102.0660400390625,-22.7203369140625,158.0047607421875
6.949999900000001,10.043676376342773,-3.287238836288452,-0.26815059781074524,-117.61474609375,-21.2860107421875,181.82373046875
6.9699999,11.911153793334961,-3.603273630142212,-0.4572925269603729,-125.0762939453125,-29.47998046875,214.5843505859375
6.989999900000001,14.815320014953613,-3.6774938106536865,-0.9289502501487732,-142.364501953125,-56.610107421875,237.335205078125
7.0099999,18.8280029296875,-3.246537446975708,-1.6065093278884888,-198.944091796875,-106.6436767578125,229.2022705078125
7.029999900000001,23.93004608154297,-2.4588451385498047,-2.183511972427368,-287.200927734375,-165.5120849609375,190.826416015625
7.0499999,29.053638458251953,-1.434126853942871,-2.0039467811584473,-365.3564453125,-198.4405517578125,145.6451416015625
7.069999900000001,32.901119232177734,-0.7086837291717529,-0.9097966551780701,-421.295166015625,-185.791015625,118.5150146484375
7.0899999000000005,33.260250091552734,-0.7134721279144287,0.5434837937355042,-477.569580078125,-150.8026123046875,137.5885009765625
7.109999900000001,27.964275360107422,-1.4700398445129395,1.3982137441635132,-500,-130.645751953125,216.1102294921875
7.1299999000000005,14.906299591064453,-2.535459518432617,0.7422025203704834,-500,-145.01953125,340.9271240234375
7.149999900000001,-5.612008571624756,-3.691859006881714,-2.5450363159179688,-463.92822265625,-159.3780517578125,461.822509765625
7.1699999000000005,-25.543737411499023,-2.6599581241607666,-4.541800498962402,-386.993408203125,-44.2657470703125,412.04833984375
7.1899999,-41.268856048583984,-1.5682021379470825,-5.906495571136475,-242.67578125,181.1981201171875,50.384521484375
7.209999900000001,-48.00374221801758,-1.0582371950149536,-6.172252178192139,154.5257568359375,160.980224609375,-268.463134765625
7.2299999,-45.724464416503906,-0.2561795711517334,-5.3797712326049805,499.9847412109375,19.34814453125,-283.7371826171875
7.249999900000001,-38.04146957397461,-0.48602294921875,-5.9735331535339355,499.9847412109375,-61.920166015625,-198.822021484375
7.2699999,-28.297069549560547,-0.2561795711517334,-7.580042362213135,292.327880859375,-35.2935791015625,-203.9337158203125
7.289999900000001,-16.75941276550293,0.33279404044151306,-9.090784072875977,16.5557861328125,40.2069091796875,-206.7413330078125
7.3099999,-5.1810526847839355,-0.3687070608139038,-9.99100399017334,-58.04443359375,96.8170166015625,-179.351806640625
7.329999900000001,4.721365928649902,-2.760514497756958,-10.218452453613281,36.6668701171875,130.4779052734375,-138.763427734375
7.3499999,12.107478141784668,-5.916072368621826,-9.619902610778809,184.8907470703125,148.345947265625,-97.3358154296875
7.369999900000001,16.46013641357422,-8.597578048706055,-8.434772491455078,290.313720703125,156.3873291015625,-74.0814208984375
7.3899999,18.138471603393555,-9.837775230407715,-7.082048416137695,324.4476318359375,153.99169921875,-78.2012939453125
7.409999900000001,17.750612258911133,-9.39245319366455,-5.748478412628174,302.67333984375,143.49365234375,-105.77392578125
7.4299999,16.134525299072266,-7.793126583099365,-4.649539470672607,247.406005859375,136.810302734375,-137.237548828125
7.449999900000001,14.022839546203613,-5.674258232116699,-3.711012601852417,188.873291015625,141.326904296875,-150.3753662109375
7.4699999,12.054805755615234,-3.847482204437256,-2.875436305999756,144.59228515625,141.4031982421875,-149.7955322265625
7.489999900000001,10.565611839294434,-2.580949544906616,-2.123656988143921,122.039794921875,126.3580322265625,-141.6473388671875
7.5099999,9.588777542114258,-1.9823989868164062,-1.5705963373184204,121.64306640625,105.3924560546875,-131.195068359375
7.529999900000001,8.96149730682373,-1.8794482946395874,-1.1276689767837524,138.18359375,83.4808349609375,-124.3896484375
7.5499999,8.686163902282715,-2.250549554824829,-0.6560112833976746,154.47998046875,63.262939453125,-118.0572509765625
7.569999900000001,8.540117263793945,-2.7054479122161865,-0.2849099934101105,158.966064453125,51.7425537109375,-102.0355224609375
7.5899999000000005,8.580819129943848,-3.117250680923462,0.11252748221158981,140.7623291015625,44.7235107421875,-84.503173828125
7.609999900000001,8.7268648147583,-3.2082302570343018,0.3878606855869293,104.98046875,33.6151123046875,-76.812744140625
7.6299999000000005,8.89685344696045,-2.9903578758239746,0.4668693244457245,73.1964111328125,19.256591796875,-77.0416259765625
7.649999900000001,9.188945770263672,-2.5977089405059814,0.5841852426528931,57.464599609375,4.669189453125,-75.25634765625
7.6699999000000005,9.536105155944824,-2.190694570541382,0.7015010714530945,44.769287109375,-3.509521484375,-65.521240234375
7.6899999,9.923966407775879,-1.9057846069335938,0.871489405632019,25.6805419921875,-4.547119140625,-53.5736083984375
7.709999900000001,10.280701637268066,-1.7381904125213623,1.1037269830703735,10.5133056640625,-4.5623779296875,-45.8526611328125
7.7299999,10.493785858154297,-1.6831238269805908,1.316810965538025,5.43212890625,-4.2724609375,-38.8336181640625
7.749999900000001,10.505757331848145,-1.800439715385437,1.4772224426269531,9.46044921875,-4.669189453125,-30.5328369140625
7.7699999,10.311826705932617,-1.9560627937316895,1.5610195398330688,15.13671875,-7.0343017578125,-18.1732177734375
7.789999900000001,10.005369186401367,-2.0614075660705566,1.558625340461731,10.986328125,-10.345458984375,-9.3231201171875
7.8099999,9.667786598205566,-2.011129379272461,1.479616641998291,-2.7008056640625,-11.9476318359375,-10.7574462890625
7.829999900000001,9.423578262329102,-1.8818424940109253,1.41257905960083,-20.6146240234375,-10.55908203125,-14.5111083984375
7.8499999,9.258378028869629,-1.7549498081207275,1.3766659498214722,-27.313232421875,-9.002685546875,-13.8702392578125
7.869999900000001,9.155426979064941,-1.821987509727478,1.37906014919281,-16.5557861328125,-9.46044921875,-10.0860595703125
7.8899999,9.069235801696777,-2.0374655723571777,1.4101848602294922,3.84521484375,-10.772705078125,-5.035400390625
7.909999900000001,8.995016098022461,-2.2840683460235596,1.4484920501708984,18.3258056640625,-9.6588134765625,-1.4801025390625
7.9299999,8.937555313110352,-2.477998733520508,1.4963760375976562,18.8751220703125,-6.8511962890625,-1.64794921875
7.949999900000001,8.927978515625,-2.5498247146606445,1.5131354331970215,12.51220703125,-3.1890869140625,-1.6632080078125
7.9699999,8.96389102935791,-2.5282769203186035,1.501164436340332,8.270263671875,0.1983642578125,0.823974609375
7.989999900000001,9.050082206726074,-2.4803929328918457,1.3838485479354858,7.2021484375,2.197265625,5.8746337890625
8.0099999,9.208099365234375,-2.4181437492370605,1.2210428714752197,11.8255615234375,0.213623046875,9.6282958984375
8.0299999,9.404424667358398,-2.3319525718688965,1.0103530883789062,18.280029296875,-3.11279296875,12.542724609375
8.049999900000001,9.612719535827637,-2.2601263523101807,0.8140285611152649,19.9127197265625,-5.2947998046875,13.3209228515625
8.069999900000001,9.773131370544434,-2.1954829692840576,0.6967126727104187,14.70947265625,-7.1258544921875,12.7716064453125
8.0899999,9.861717224121094,-2.1930887699127197,0.689530074596405,7.6141357421875,-8.2855224609375,10.19287109375
8.1099999,9.835380554199219,-2.2888567447662354,0.7924807667732239,4.8828125,-7.843017578125,6.53076171875
8.129999900000001,9.708487510681152,-2.5019407272338867,0.9600749015808105,5.218505859375,-6.011962890625,4.180908203125
8.149999900000001,9.502586364746094,-2.8227639198303223,1.1109095811843872,6.134033203125,-3.8909912109375,1.800537109375
8.1699999,9.272743225097656,-3.177105665206909,1.1971008777618408,8.6669921875,-1.953125,0.06103515625
8.1899999,9.057265281677246,-3.488351821899414,1.1683704853057861,11.7950439453125,0.2288818359375,-0.67138671875
8.2099999,8.9064302444458,-3.6798880100250244,1.05105459690094,10.528564453125,2.3345947265625,-0.8697509765625
8.229999900000001,8.829815864562988,-3.7277719974517822,0.9050082564353943,3.90625,2.716064453125,-0.0457763671875
8.2499999,8.832210540771484,-3.6583402156829834,0.7637503147125244,-4.33349609375,2.838134765625,1.2664794921875
8.2699999,8.892065048217773,-3.5218706130981445,0.6943184733390808,-10.43701171875,3.6468505859375,1.7547607421875
8.2899999,8.96149730682373,-3.3710360527038574,0.689530074596405,-14.068603515625,4.5928955078125,2.166748046875
8.309999900000001,9.006986618041992,-3.2417490482330322,0.7445967197418213,-16.7083740234375,4.0435791015625,3.631591796875
8.3299999,9.002198219299316,-3.1244332790374756,0.811634361743927,-19.287109375,3.41796875,5.0048828125
8.3499999,8.942343711853027,-3.0142998695373535,0.8547300100326538,-21.8658447265625,3.936767578125,7.0648193359375
8.3699999,8.848969459533691,-2.8778305053710938,0.8451532125473022,-24.0936279296875,4.547119140625,10.31494140625
8.389999900000001,8.729259490966797,-2.671929121017456,0.751779317855835,-27.099609375,5.0201416015625,15.472412109375
8.4099999,8.614337921142578,-2.3918075561523438,0.5889736413955688,-32.2418212890625,6.1492919921875,22.2625732421875
8.4299999,8.520963668823242,-2.0877439975738525,0.40462008118629456,-38.4521484375,9.0484619140625,33.782958984375
8.4499999,8.434772491455078,-1.8411411046981812,0.24181437492370605,-40.3900146484375,12.8631591796875,52.459716796875
8.469999900000001,8.300697326660156,-1.778891921043396,0.08379705995321274,-36.6973876953125,12.26806640625,77.1484375
8.4899999,8.152256965637207,-1.9177556037902832,-0.09576806426048279,-30.7464599609375,2.777099609375,106.8572998046875
8.5099999,7.960720539093018,-2.185906171798706,-0.3734954595565796,-30.120849609375,-12.1917724609375,137.3443603515625
8.5299999,7.908048152923584,-2.542642116546631,-0.7852981686592102,-45.10498046875,-28.1829833984375,163.238525390625
8.549999900000001,8.157045364379883,-2.964021682739258,-1.3455413579940796,-76.72119140625,-42.2821044921875,184.3719482421875
8.569999900000001,9.078812599182129,-3.4548330307006836,-2.073378562927246,-118.65234375,-58.3648681640625,204.3609619140625
8.5899999,11.291055679321289,-3.9193081855773926,-3.043030261993408,-171.966552734375,-79.4219970703125,217.4530029296875
8.6099999,15.514427185058594,-3.8498764038085938,-3.9647979736328125,-244.8577880859375,-109.0850830078125,208.251953125
8.629999900000001,21.93328094482422,-2.911349296569824,-4.072536945343018,-337.982177734375,-147.5982666015625,167.388916015625
8.649999900000001,29.063215255737305,-1.2425906658172607,-3.421314239501953,-388.5498046875,-177.79541015625,110.5499267578125
8.6699999,35.216312408447266,0.8762778043746948,-1.721431016921997,-405.4107666015625,-190.6280517578125,89.17236328125
8.6899999,37.639244079589844,2.027888774871826,0.1867477297782898,-431.8084716796875,-198.1353759765625,113.1591796875
8.709999900000001,34.28257369995117,1.4245500564575195,1.5083470344543457,-458.1756591796875,-202.8961181640625,189.3157958984375
8.729999900000001,23.793577194213867,-0.45250412821769714,2.518700122833252,-474.3194580078125,-211.639404296875,321.3348388671875
8.7499999,4.766855716705322,-2.8562827110290527,1.170764684677124,-460.723876953125,-211.4105224609375,443.603515625
8.7699999,-16.575057983398438,-4.261679172515869,-0.30885201692581177,-406.585693359375,-155.364990234375,438.41552734375
8.7899999,-34.984073638916016,-3.5194764137268066,-1.4772224426269531,-357.2235107421875,31.097412109375,234.2071533203125
8.809999900000001,-45.59278106689453,-3.0142998695373535,-2.760514497756958,-126.6632080078125,154.754638671875,-102.142333984375
8.8299999,-46.59595489501953,-2.2864625453948975,-3.292027235031128,316.22314453125,78.4912109375,-271.4080810546875
8.8499999,-40.746917724609375,-1.8579005002975464,-4.501099109649658,499.9847412109375,-22.64404296875,-239.2425537109375
8.8699999,-32.295387268066406,-1.6687586307525635,-7.050923824310303,494.140625,-52.1087646484375,-202.63671875
8.889999900000001,-22.709003448486328,-0.9840168952941895,-9.890447616577148,261.65771484375,-7.26318359375,-212.5091552734375
8.9099999,-12.349292755126953,-0.31124621629714966,-12.236764907836914,97.076416015625,59.75341796875,-193.05419921875
8.9299999,-2.5665841102600098,-1.0247182846069336,-13.342885971069336,41.8701171875,104.3701171875,-166.93115234375
8.9499999,5.564124584197998,-2.9089550971984863,-13.232752799987793,79.925537109375,133.087158203125,-143.00537109375
8.969999900000001,11.772290229797363,-5.4228668212890625,-11.820174217224121,168.45703125,162.811279296875,-110.6414794921875
8.9899999,15.459360122680664,-7.582436561584473,-9.713275909423828,247.772216796875,192.596435546875,-76.5380859375
9.0099999,16.996437072753906,-8.971074104309082,-7.357381820678711,291.0003662109375,189.453125,-70.892333984375
9.0299999,16.852785110473633,-9.078812599182129,-5.34625244140625,306.9610595703125,156.9976806640625,-80.87158203125
9.049999900000001,15.46414852142334,-8.111555099487305,-3.8091750144958496,295.1202392578125,127.105712890625,-95.062255859375
9.069999900000001,13.543998718261719,-6.543353080749512,-2.698265314102173,260.009765625,111.63330078125,-120.208740234375
9.0899999,11.815385818481445,-5.003881454467773,-1.659181833267212,214.2333984375,101.86767578125,-143.6004638671875
9.1099999,10.376470565795898,-3.687070608139038,-0.8188169598579407,167.510986328125,97.6409912109375,-137.0697021484375
9.129999900000001,9.366117477416992,-2.8993782997131348,-0.1867477297782898,117.156982421875,93.5821533203125,-116.2872314453125
9.149999900000001,8.518569946289062,-2.5067291259765625,0.12210428714752197,75.0732421875,79.925537109375,-109.100341796875
9.1699999,7.802703380584717,-2.322375535964966,0.07900865375995636,45.9136962890625,64.300537109375,-99.8077392578125
9.1899999,7.364564418792725,-2.4444799423217773,-0.05267243832349777,33.0352783203125,48.553466796875,-85.8612060546875
9.209999900000001,7.187393665313721,-2.736572504043579,-0.22744916379451752,28.8848876953125,36.773681640625,-64.5751953125
9.229999900000001,7.3693528175354,-3.134010076522827,-0.3519476354122162,18.8446044921875,31.73828125,-43.4417724609375
9.2499999,7.795520782470703,-3.5386300086975098,-0.5219359993934631,6.6680908203125,28.564453125,-32.440185546875
9.2699999,8.401253700256348,-3.847482204437256,-0.6607996821403503,-5.2337646484375,25.115966796875,-25.421142578125
9.2899999,9.040505409240723,-4.173093795776367,-0.7972691655158997,-11.6119384765625,20.111083984375,-20.8892822265625
9.309999900000001,9.5624418258667,-4.505887508392334,-0.9433154463768005,-7.2784423828125,14.58740234375,-16.78466796875
9.3299999,9.943120002746582,-4.841075897216797,-1.0462661981582642,3.8299560546875,6.378173828125,-13.824462890625
9.3499999,10.158597946166992,-5.080495834350586,-1.1468225717544556,10.0860595703125,1.52587890625,-11.9171142578125
9.3699999,10.20887565612793,-5.185841083526611,-1.115697979927063,9.9639892578125,1.6632080078125,-11.04736328125
9.389999900000001,10.11550235748291,-5.106832027435303,-1.0079588890075684,9.6893310546875,3.11279296875,-10.7269287109375
9.4099999,9.873687744140625,-4.8722004890441895,-0.7541735172271729,11.0931396484375,2.349853515625,-12.054443359375
9.4299999,9.528923034667969,-4.548983097076416,-0.4620809257030487,13.0157470703125,0.1678466796875,-16.8304443359375
9.4499999,9.131484985351562,-4.177882194519043,-0.13168109953403473,16.8609619140625,-0.213623046875,-22.76611328125
9.469999900000001,8.786720275878906,-3.8594532012939453,0.1843535304069519,21.2860107421875,1.434326171875,-29.0679931640625
9.4899999,8.516175270080566,-3.5673606395721436,0.45250412821769714,22.979736328125,3.7841796875,-31.3873291015625
9.5099999,8.329427719116211,-3.270479440689087,0.6368576288223267,16.4947509765625,6.6375732421875,-29.541015625
9.5299999,8.214506149291992,-2.983175277709961,0.7829039692878723,8.1024169921875,8.5296630859375,-31.9976806640625
9.549999900000001,8.10437297821045,-2.7006595134735107,0.8762778043746948,7.293701171875,9.6282958984375,-34.0576171875
9.569999900000001,8.030152320861816,-2.4660277366638184,1.01753568649292,14.5416259765625,7.5225830078125,-29.3731689453125
9.5899999,8.022970199584961,-2.3487119674682617,1.1994950771331787,23.3917236328125,3.2196044921875,-22.5677490234375
9.6099999,8.183381080627441,-2.343923568725586,1.4939818382263184,32.3486328125,0.5035400390625,-17.242431640625
9.629999900000001,8.520963668823242,-2.406172752380371,1.845929503440857,36.8804931640625,3.9520263671875,-9.5367431640625
9.649999900000001,8.99740982055664,-2.470816135406494,2.2002713680267334,32.3486328125,10.9100341796875,-0.762939453125
9.6699999,9.521739959716797,-2.516305923461914,2.4899697303771973,20.538330078125,15.716552734375,3.662109375
9.6899999,9.986215591430664,-2.5282769203186035,2.6384103298187256,11.199951171875,17.730712890625,5.55419921875
9.709999900000001,10.340557098388672,-2.5761611461639404,2.6815059185028076,10.80322265625,17.852783203125,9.4146728515625
9.729999900000001,10.560823440551758,-2.6815059185028076,2.669534921646118,12.969970703125,16.8609619140625,16.2353515625
9.7499999,10.654197692871094,-2.8658595085144043,2.6599581241607666,11.0321044921875,14.9993896484375,20.5535888671875
9.7699999,10.596736907958984,-3.064578056335449,2.6623523235321045,4.7607421875,12.4053955078125,21.0418701171875
9.7899999,10.414777755737305,-3.2321722507476807,2.6839001178741455,-4.1046142578125,9.1705322265625,18.096923828125
9.809999900000001,10.134655952453613,-3.406949043273926,2.7246015071868896,-14.7552490234375,4.57763671875,11.0931396484375
9.8299999,9.818621635437012,-3.5913026332855225,2.7772738933563232,-27.069091796875,0.701904296875,2.410888671875
9.8499999,9.488221168518066,-3.8307228088378906,2.8179752826690674,-38.177490234375,-1.708984375,-7.9193115234375
9.8699999,9.184157371520996,-4.129997730255127,2.8227639198303223,-44.586181640625,-4.8370361328125,-18.12744140625
9.889999900000001,8.935160636901855,-4.436455726623535,2.7772738933563232,-45.59326171875,-9.6282958984375,-24.5513916015625
9.9099999,8.729259490966797,-4.651933670043945,2.6886885166168213,-40.2069091796875,-13.763427734375,-26.336669921875
9.9299999,8.578424453735352,-4.6471452713012695,2.5091233253479004,-29.0069580078125,-14.6331787109375,-24.993896484375
9.9499999,8.47547435760498,-4.371812343597412,2.2888567447662354,-18.9361572265625,-14.495849609375,-23.6663818359375
9.969999900000001,8.406042098999023,-3.8546648025512695,2.0207061767578125,-12.8631591796875,-13.275146484375,-20.233154296875
9.9899999,8.365341186523438,-3.2178070545196533,1.7310078144073486,-8.514404296875,-9.9945068359375,-13.7786865234375
10.0099999,8.322244644165039,-2.628833532333374,1.434126853942871,-5.3558349609375,-5.5999755859375,-7.1868896484375
10.0299999,8.269572257995605,-2.1954829692840576,1.158793568611145,-4.8675537109375,-0.946044921875,-1.6326904296875
10.049999900000001,8.185775756835938,-1.968033790588379,0.8978256583213806,-6.16455078125,3.509521484375,3.8604736328125
10.069999900000001,8.058882713317871,-1.9776105880737305,0.6775590777397156,-6.439208984375,7.8887939453125,8.97216796875
10.0899999,7.922413349151611,-2.185906171798706,0.5339069962501526,-1.52587890625,11.810302734375,14.251708984375
10.1099999,7.807491779327393,-2.5330653190612793,0.47405192255973816,7.6141357421875,14.4500732421875,19.10400390625
10.129999900000001,7.757213592529297,-2.942473888397217,0.5267243981361389,13.763427734375,15.2435302734375,23.0255126953125
10.149999900000001,7.824251174926758,-3.3423056602478027,0.6775590777397156,15.350341796875,15.0909423828125,25.8026123046875
10.1699999,7.989450931549072,-3.7277719974517822,0.8762778043746948,16.815185546875,13.092041015625,27.679443359375
10.1899999,8.255207061767578,-4.0533833503723145,1.0630255937576294,17.9290771484375,9.185791015625,31.585693359375
10.209999900000001,8.556877136230469,-4.307168960571289,1.1851298809051514,17.5018310546875,3.0517578125,35.980224609375
10.229999900000001,8.827422142028809,-4.46518611907959,1.1899182796478271,16.5557861328125,-4.1046142578125,36.7584228515625
10.2499999,8.987833023071289,-4.496310710906982,1.0869675874710083,12.176513671875,-10.406494140625,39.00146484375
10.2699999,9.011775016784668,-4.455609321594238,0.8978256583213806,3.0517578125,-15.13671875,46.600341796875
10.2899999,8.937555313110352,-4.390965938568115,0.5937620401382446,-7.2784423828125,-19.0277099609375,59.6466064453125
10.309999900000001,8.925583839416504,-4.321534156799316,0.1628057211637497,-22.3541259765625,-23.9715576171875,82.1380615234375
10.3299999,9.232041358947754,-4.2760443687438965,-0.42377370595932007,-45.47119140625,-30.76171875,110.2294921875
10.3499999,10.26394271850586,-4.144362926483154,-1.1276689767837524,-76.8585205078125,-39.5660400390625,138.2598876953125
10.3699999,12.45703125,-3.6846764087677,-1.9057846069335938,-124.3743896484375,-48.88916015625,161.3616943359375
10.389999900000001,16.373945236206055,-2.252943754196167,-2.540247917175293,-205.0933837890625,-63.8885498046875,170.95947265625
10.4099999,22.100875854492188,0.42377370595932007,-2.6360161304473877,-332.4127197265625,-104.4464111328125,147.491455078125
10.4299999,28.450298309326172,3.4596214294433594,-2.142810583114624,-449.554443359375,-168.64013671875,88.3941650390625
10.4499999,33.60261917114258,5.6670756340026855,-0.9696516990661621,-482.0556640625,-230.77392578125,49.0570068359375
10.469999900000001,34.926612854003906,5.2696380615234375,0.2298433631658554,-467.681884765625,-275.81787109375,94.3756103515625
10.4899999,30.37763023376465,2.341529369354248,1.3958195447921753,-455.596923828125,-306.0760498046875,229.6600341796875
10.5099999,18.155231475830078,-1.3766659498214722,1.7764976024627686,-444.03076171875,-312.98828125,374.45068359375
10.5299999,-0.8882488012313843,-5.322310447692871,-0.19871874153614044,-371.490478515625,-289.3524169921875,418.9910888671875
10.549999900000001,-20.693084716796875,-6.5050458908081055,-2.492363929748535,-366.4703369140625,-202.8045654296875,383.392333984375
10.569999900000001,-36.482845306396484,-5.530605792999268,-4.311957359313965,-470.88623046875,2.960205078125,155.1971435546875
10.5899999,-44.03176498413086,-5.193023681640625,-5.171475887298584,-296.661376953125,170.7763671875,-187.225341796875
10.6099999,-43.344627380371094,-4.5825018882751465,-4.479551315307617,251.373291015625,146.91162109375,-266.6168212890625
10.629999900000001,-37.34954833984375,-4.4532151222229,-3.955221176147461,499.9847412109375,54.62646484375,-172.454833984375
10.649999900000001,-29.338546752929688,-4.477157115936279,-4.874594688415527,499.9847412109375,3.7384033203125,-148.162841796875
10.6699999,-20.226215362548828,-3.117250680923462,-6.596025466918945,254.5928955078125,32.8826904296875,-159.6527099609375
10.6899999,-10.38844108581543,-1.6089035272598267,-8.178592681884766,57.0220947265625,93.75,-144.0887451171875
10.709999900000001,-0.6536170840263367,-1.45806884765625,-9.081207275390625,27.28271484375,137.7105712890625,-113.7237548828125
10.729999900000001,7.905653953552246,-2.8610711097717285,-9.184157371520996,111.8927001953125,155.45654296875,-77.7130126953125
10.7499999,14.460978507995605,-5.190629482269287,-8.60236644744873,226.4862060546875,172.4700927734375,-53.89404296875
10.7699999,18.729839324951172,-7.350199222564697,-7.735665798187256,298.8739013671875,197.57080078125,-51.9866943359375
10.7899999,20.42254066467285,-8.607154846191406,-6.593631267547607,319.15283203125,203.3538818359375,-78.1707763671875
10.809999900000001,20.04186248779297,-8.619126319885254,-5.52821159362793,309.326171875,184.539794921875,-111.1907958984375
10.8299999,18.203115463256836,-7.630321025848389,-4.522646903991699,281.9061279296875,156.219482421875,-139.5721435546875
10.8499999,15.600618362426758,-6.102819919586182,-3.598485231399536,244.7967529296875,128.3111572265625,-160.6292724609375
10.8699999,12.904747009277344,-4.4723687171936035,-2.8227639198303223,204.5440673828125,106.87255859375,-166.839599609375
10.889999900000001,10.536881446838379,-3.1220390796661377,-2.1523873805999756,170.4559326171875,91.5374755859375,-162.9180908203125
10.9099999,8.755595207214355,-2.3104045391082764,-1.6759412288665771,151.2603759765625,79.742431640625,-151.611328125
10.9299999,7.568071365356445,-2.0685901641845703,-1.3072341680526733,149.5513916015625,64.7125244140625,-135.0860595703125
10.9499999,6.955155849456787,-2.363077163696289,-0.9648633003234863,160.8734130859375,45.989990234375,-114.6240234375
10.969999900000001,6.809109687805176,-2.8874073028564453,-0.7086837291717529,174.896240234375,29.998779296875,-90.63720703125
10.9899999,7.096413612365723,-3.423708438873291,-0.48602294921875,177.55126953125,18.707275390625,-73.18115234375
11.0099999,7.6782050132751465,-3.73016619682312,-0.26575639843940735,156.67724609375,9.307861328125,-64.7125244140625
11.0299999,8.461109161376953,-3.7612907886505127,-0.08858546614646912,119.0948486328125,3.936767578125,-59.7991943359375
11.049999900000001,9.244012832641602,-3.579331636428833,0.17238251864910126,76.9500732421875,0.6256103515625,-59.5245361328125
11.069999900000001,9.892841339111328,-3.28963303565979,0.4812345504760742,36.56005859375,-3.5858154296875,-62.896728515625
11.0899999,10.321403503417969,-3.1004912853240967,0.8786720037460327,17.1661376953125,-11.932373046875,-69.244384765625
11.1099999,10.51054573059082,-2.9664158821105957,1.2761094570159912,17.5323486328125,-19.95849609375,-66.192626953125
11.129999900000001,10.57040023803711,-2.9903578758239746,1.7477672100067139,21.453857421875,-23.284912109375,-58.6395263671875
11.149999900000001,10.465055465698242,-3.021482467651367,2.1811177730560303,17.822265625,-21.5606689453125,-51.055908203125
11.1699999,10.256759643554688,-2.9496564865112305,2.477998733520508,9.9334716796875,-16.571044921875,-42.8619384765625
11.1899999,9.919178009033203,-2.762908697128296,2.6024973392486572,6.5155029296875,-12.8021240234375,-38.39111328125
11.209999900000001,9.545681953430176,-2.4157495498657227,2.583343744277954,6.8206787109375,-10.1776123046875,-31.31103515625
11.229999900000001,9.093177795410156,-2.013523578643799,2.451662540435791,6.1798095703125,-6.04248046875,-20.08056640625
11.2499999,8.69334602355957,-1.558625340461731,2.293645143508911,5.06591796875,-1.89208984375,-6.988525390625
11.2699999,8.31985092163086,-1.139639973640442,2.118868589401245,8.23974609375,-0.0457763671875,2.9144287109375
11.2899999,8.04691219329834,-0.7541735172271729,1.922544002532959,13.3819580078125,0.9613037109375,10.3759765625
11.309999900000001,7.9176249504089355,-0.4572925269603729,1.742978811264038,11.383056640625,1.8310546875,15.045166015625
11.3299999,7.95832633972168,-0.3064578175544739,1.580173134803772,3.173828125,3.662109375,14.6636962890625
11.3499999,8.166622161865234,-0.31603461503982544,1.501164436340332,-7.537841796875,6.5460205078125,14.5263671875
11.3699999,8.523358345031738,-0.5410895943641663,1.501164436340332,-16.05224609375,9.429931640625,13.7481689453125
11.389999900000001,8.973467826843262,-1.015141487121582,1.5873557329177856,-18.951416015625,10.3912353515625,10.9405517578125
11.4099999,9.48343276977539,-1.6424223184585571,1.7357962131500244,-15.838623046875,9.3994140625,13.6871337890625
11.4299999,10.007762908935547,-2.27209734916687,1.8076223134994507,-10.1470947265625,6.2103271484375,23.8800048828125
11.4499999,10.51054573059082,-2.719813108444214,1.8052281141281128,-8.7738037109375,0.9765625,31.2347412109375
11.469999900000001,10.991780281066895,-2.827552318572998,1.7597382068634033,-15.3045654296875,-1.15966796875,28.0609130859375
11.4899999,11.317391395568848,-2.6384103298187256,1.745373010635376,-24.7802734375,2.410888671875,16.66259765625
11.5099999,11.379640579223633,-2.3295583724975586,1.86508309841156,-25.3143310546875,6.1798095703125,4.82177734375
11.5299999,11.077971458435059,-2.049436569213867,2.1068975925445557,-13.5040283203125,5.9051513671875,-1.068115234375
11.549999900000001,10.45547866821289,-1.8842366933822632,2.3942017555236816,-0.8697509765625,1.922607421875,-3.2196044921875
11.569999900000001,9.653421401977539,-1.800439715385437,2.6408045291900635,3.5400390625,-2.288818359375,-4.4097900390625
11.5899999,8.877699851989746,-1.7836803197860718,2.782062292098999,0.3662109375,-5.096435546875,-4.608154296875
11.6099999,8.281543731689453,-1.8291701078414917,2.7772738933563232,-2.7313232421875,-7.38525390625,-1.2969970703125
11.629999900000001,7.936778545379639,-1.9847931861877441,2.671929121017456,-1.2969970703125,-9.1094970703125,5.1422119140625
11.649999900000001,7.836222171783447,-2.2577321529388428,2.4612393379211426,6.6680908203125,-8.9263916015625,11.0321044921875
11.6699999,7.948749542236328,-2.564189910888672,2.205059766769409,20.0653076171875,-6.8511962890625,14.46533203125
11.6899999,8.216899871826172,-2.75812029838562,1.900996208190918,26.336669921875,-2.9449462890625,14.7247314453125
11.709999900000001,8.576030731201172,-2.7533318996429443,1.5873557329177856,14.190673828125,2.9754638671875,10.07080078125
11.729999900000001,8.937555313110352,-2.518700122833252,1.292868971824646,-9.002685546875,9.368896484375,3.4332275390625
11.7499999,9.260771751403809,-2.1475989818573,1.1085153818130493,-30.33447265625,13.519287109375,0.8544921875
11.7699999,9.435548782348633,-1.8124107122421265,1.0438719987869263,-38.4063720703125,12.9241943359375,4.6539306640625
11.7899999,9.454702377319336,-1.5753847360610962,1.0989385843276978,-30.609130859375,7.38525390625,16.05224609375
11.809999900000001,9.258378028869629,-1.460463047027588,1.1659762859344482,-19.9127197265625,-0.5645751953125,32.4859619140625
11.8299999,8.853757858276367,-1.4269442558288574,1.1228805780410767,-19.378662109375,-9.307861328125,51.1322021484375
11.8499999,8.26478385925293,-1.3934253454208374,0.912190854549408,-30.76171875,-17.7154541015625,74.4171142578125
11.8699999,7.546523571014404,-1.3742717504501343,0.5003881454467773,-50.2471923828125,-23.49853515625,102.1881103515625
11.889999900000001,6.811503887176514,-1.359906554222107,-0.05027823522686958,-75.5157470703125,-25.93994140625,135.68115234375
11.9099999,6.339846134185791,-1.4963760375976562,-0.6392518281936646,-105.04150390625,-26.9012451171875,174.6826171875
11.9299999,6.560112476348877,-1.9919757843017578,-1.2210428714752197,-126.617431640625,-28.778076171875,219.90966796875
11.9499999,7.95832633972168,-2.784456491470337,-1.7501614093780518,-133.48388671875,-37.29248046875,273.2696533203125
11.969999900000001,11.154585838317871,-3.665522813796997,-2.322375535964966,-150.87890625,-56.365966796875,312.347412109375
11.9899999,16.680402755737305,-4.261679172515869,-2.9448680877685547,-202.63671875,-85.8917236328125,291.1224365234375
12.0099999,23.731327056884766,-4.039018154144287,-3.354276657104492,-300.018310546875,-119.354248046875,219.5892333984375
12.0299999,31.112651824951172,-3.2345664501190186,-3.2824504375457764,-398.1475830078125,-150.177001953125,133.48388671875
12.049999900000001,36.75339126586914,-1.8698714971542358,-2.4588451385498047,-448.8067626953125,-173.065185546875,83.892822265625
12.069999900000001,38.417362213134766,-0.790086567401886,-1.0797849893569946,-497.3297119140625,-173.5076904296875,105.224609375
12.0899999,34.34482192993164,-0.2992752194404602,0.31364041566848755,-500,-162.4755859375,195.5718994140625
12.1099999,22.946029663085938,-0.37828385829925537,1.01753568649292,-500,-163.5284423828125,335.1898193359375
12.129999900000001,2.7676970958709717,-1.3455413579940796,-1.0199298858642578,-500,-183.8531494140625,499.786376953125
12.149999900000001,-19.831172943115234,-1.4389152526855469,-2.7293899059295654,-405.731201171875,-128.662109375,499.9847412109375
12.1699999,-38.27131271362305,-0.7565677165985107,-3.883395195007324,-250.6561279296875,107.72705078125,236.26708984375
12.1899999,-48.947059631347656,-0.8044517636299133,-5.011064052581787,37.0330810546875,160.9344482421875,-224.761962890625
12.209999900000001,-49.92150115966797,-0.689530074596405,-4.481945514678955,370.391845703125,23.8189697265625,-423.9959716796875
12.229999900000001,-43.62474822998047,-0.6512228846549988,-5.166687488555908,441.7572021484375,-60.3179931640625,-322.4029541015625
12.2499999,-35.52516555786133,-1.161187767982483,-6.876147270202637,282.562255859375,-56.8084716796875,-262.786865234375
12.2699999,-25.237279891967773,-0.6392518281936646,-8.585607528686523,118.65234375,-2.5177001953125,-242.4163818359375
12.289999900000002,-13.438653945922852,-0.2753331959247589,-9.825803756713867,59.63134765625,56.9305419921875,-189.3157958984375
12.309999900000001,-2.03507137298584,-0.8834604024887085,-10.393229484558105,70.068359375,100.4180908203125,-138.2904052734375
12.3299999,7.5632829666137695,-2.142810583114624,-10.366893768310547,124.4049072265625,134.1552734375,-98.0224609375
12.3499999,14.688426971435547,-3.552995204925537,-9.66539192199707,195.1904296875,173.9044189453125,-53.2379150390625
12.3699999,18.904617309570312,-4.728548526763916,-8.707711219787598,254.5166015625,205.8258056640625,-29.6630859375
12.389999900000001,20.563798904418945,-5.348646640777588,-7.783549785614014,279.876708984375,207.855224609375,-33.8592529296875
12.4099999,20.379444122314453,-5.274426460266113,-7.146692276000977,273.4375,183.258056640625,-59.4940185546875
12.4299999,18.794483184814453,-4.644751071929932,-6.660669326782227,239.3341064453125,159.149169921875,-93.93310546875
12.4499999,16.46731948852539,-3.751713991165161,-6.208165168762207,191.741943359375,151.3519287109375,-135.0860595703125
12.469999900000001,14.123395919799805,-3.1866824626922607,-5.446808815002441,157.7606201171875,147.9339599609375,-172.7752685546875
12.4899999,12.064382553100586,-3.1651346683502197,-4.395754337310791,162.7960205078125,132.9498291015625,-187.9119873046875
12.5099999,10.369287490844727,-3.6391866207122803,-3.294421434402466,187.225341796875,110.0311279296875,-171.2188720703125
12.5299999,9.028534889221191,-4.311957359313965,-2.1978771686553955,206.54296875,80.2001953125,-154.1900634765625
12.549999900000001,8.04691219329834,-4.63517427444458,-1.3670891523361206,208.4197998046875,53.8177490234375,-146.42333984375
12.569999900000001,7.522581577301025,-4.575319290161133,-0.7182605266571045,193.817138671875,34.637451171875,-144.317626953125
12.5899999,7.489062786102295,-4.19224739074707,-0.19393034279346466,163.909912109375,22.94921875,-133.3160400390625
12.6099999,7.790732383728027,-3.4811692237854004,0.1364694982767105,107.452392578125,22.3388671875,-109.3597412109375
12.629999900000001,8.334216117858887,-2.8107926845550537,0.4357447028160095,50.872802734375,19.8974609375,-105.40771484375
12.649999900000001,8.83699893951416,-2.0422539710998535,0.524330198764801,14.7247314453125,14.2059326171875,-108.4442138671875
12.6699999,9.208099365234375,-1.482010841369629,0.545877993106842,-16.9830322265625,7.965087890625,-98.5565185546875
12.6899999,9.402029991149902,-1.2306196689605713,0.545877993106842,-37.9180908203125,-2.2430419921875,-79.6051025390625
12.709999900000001,9.476250648498535,-1.1420341730117798,0.6057330369949341,-38.238525390625,-10.406494140625,-51.239013671875
12.729999900000001,9.445125579833984,-1.2114660739898682,0.7948749661445618,-19.1650390625,-15.3961181640625,-26.3214111328125
12.7499999,9.406818389892578,-1.2617442607879639,1.0055646896362305,9.6588134765625,-17.0440673828125,-7.568359375
12.7699999,9.332598686218262,-1.2473790645599365,1.2521674633026123,32.9437255859375,-15.045166015625,3.662109375
12.789999900000002,9.253589630126953,-1.1994950771331787,1.3838485479354858,47.943115234375,-9.521484375,6.072998046875
12.809999900000001,9.138668060302734,-1.072602391242981,1.3934253454208374,51.57470703125,-1.8768310546875,3.96728515625
12.8299999,9.05247688293457,-0.9145850539207458,1.3263877630233765,37.59765625,6.5765380859375,-0.06103515625
12.8499999,8.983044624328613,-0.8092401623725891,1.2066776752471924,17.0135498046875,11.9476318359375,-6.9122314453125
12.8699999,8.98543930053711,-0.7924807667732239,1.137245774269104,4.82177734375,13.1378173828125,-8.636474609375
12.889999900000001,9.062053680419922,-0.9385270476341248,1.2210428714752197,3.72314453125,11.1236572265625,-3.875732421875
12.9099999,9.215282440185547,-1.237802267074585,1.4293384552001953,8.8043212890625,8.72802734375,5.2947998046875
12.9299999,9.437943458557129,-1.6065093278884888,1.7070658206939697,17.2576904296875,6.4239501953125,15.13671875
12.9499999,9.701305389404297,-1.946485996246338,1.900996208190918,26.1077880859375,2.8533935546875,22.15576171875
12.969999900000001,9.96945571899414,-2.183511972427368,1.920149803161621,27.6947021484375,-1.617431640625,26.031494140625
12.9899999,10.223240852355957,-2.296039342880249,1.7525556087493896,16.9525146484375,-5.096435546875,25.390625
13.0099999,10.42195987701416,-2.3247697353363037,1.4700398445129395,-0.67138671875,-5.67626953125,19.439697265625
13.0299999,10.517727851867676,-2.3511061668395996,1.1635819673538208,-12.939453125,-4.364013671875,10.894775390625
13.049999900000001,10.481815338134766,-2.4205379486083984,0.9217676520347595,-14.190673828125,-5.1422119140625,3.3416748046875
13.069999900000001,10.283096313476562,-2.5450363159179688,0.7805097699165344,-8.1787109375,-8.23974609375,-3.1585693359375
13.0899999,9.971850395202637,-2.652775526046753,0.7469909191131592,-0.5340576171875,-10.31494140625,-7.2021484375
13.1099999,9.555258750915527,-2.7126305103302,0.8068459630012512,2.7923583984375,-9.796142578125,-8.4991455078125
13.129999900000001,9.105149269104004,-2.695871114730835,0.9241618514060974,-1.068115234375,-8.6517333984375,-6.805419921875
13.149999900000001,8.650250434875488,-2.6384103298187256,1.0438719987869263,-7.8125,-8.087158203125,-2.2735595703125
13.1699999,8.259995460510254,-2.5905263423919678,1.1252747774124146,-13.6566162109375,-7.32421875,4.302978515625
13.1899999,7.982268333435059,-2.5953147411346436,1.1348515748977661,-17.5628662109375,-4.8370361328125,10.92529296875
13.209999900000001,7.86734676361084,-2.6623523235321045,1.0582371950149536,-20.3704833984375,-0.030517578125,16.4947509765625
13.229999900000001,7.924807548522949,-2.7269957065582275,0.8978256583213806,-24.688720703125,5.6304931640625,21.4080810546875
13.2499999,8.14028549194336,-2.7700912952423096,0.6751648783683777,-28.0914306640625,10.8642578125,23.345947265625
13.2699999,8.508993148803711,-2.7126305103302,0.4836287498474121,-26.18408203125,14.1754150390625,24.7344970703125
13.289999900000002,8.990227699279785,-2.5785553455352783,0.4118026793003082,-20.6298828125,16.204833984375,27.6031494140625
13.309999900000001,9.476250648498535,-2.38462495803833,0.4812345504760742,-15.106201171875,16.7694091796875,31.585693359375
13.3299999,9.81143856048584,-2.1715409755706787,0.6703764796257019,-12.5274658203125,14.4500732421875,35.491943359375
13.3499999,9.873687744140625,-1.9943699836730957,0.8690952062606812,-12.451171875,9.4146728515625,38.14697265625
13.3699999,9.600749015808105,-1.8842366933822632,0.9840168952941895,-16.510009765625,2.655029296875,42.05322265625
13.389999900000001,9.062053680419922,-1.889025092124939,0.9600749015808105,-25.2227783203125,-6.0272216796875,51.0101318359375
13.4099999,8.379706382751465,-2.006340980529785,0.7613561153411865,-36.68212890625,-16.0064697265625,67.1844482421875
13.4299999,7.740454196929932,-2.22660756111145,0.40222588181495667,-49.072265625,-25.3753662109375,88.592529296875
13.4499999,7.326257228851318,-2.499546527862549,-0.08379705995321274,-63.720703125,-32.16552734375,113.1134033203125
13.469999900000001,7.295132637023926,-2.7102363109588623,-0.6057330369949341,-83.282470703125,-36.6058349609375,139.9688720703125
13.4899999,7.8960771560668945,-2.8131868839263916,-1.0869675874710083,-112.945556640625,-40.8477783203125,163.39111328125
13.5099999,9.44752025604248,-2.8155810832977295,-1.522712230682373,-153.350830078125,-47.637939453125,181.671142578125
13.5299999,17.161638259887695,-2.31758713722229,-3.004723072052002,-310.302734375,-111.5264892578125,195.12939453125
13.549999900000001,23.21417999267578,-1.3096283674240112,-3.1890766620635986,-422.6531982421875,-160.6292724609375,137.237548828125
13.569999900000001,29.491777420043945,-0.004788403399288654,-2.1068975925445557,-456.5887451171875,-188.7054443359375,31.1431884765625
13.5899999,34.052730560302734,1.3838485479354858,0.22744916379451752,-393.5394287109375,-189.4378662109375,-21.2860107421875
13.6099999,35.06547927856445,1.7860745191574097,2.8610711097717285,-314.666748046875,-203.6285400390625,40.7562255859375
13.629999900000001,31.184476852416992,1.0271124839782715,4.446032524108887,-256.988525390625,-256.4239501953125,173.7213134765625
13.649999900000001,21.825542449951172,-0.20350714027881622,4.398148536682129,-287.6129150390625,-298.03466796875,304.901123046875
13.6699999,5.149928092956543,-1.987187385559082,1.764526605606079,-392.7764892578125,-291.8243408203125,399.0478515625
13.6899999,-15.545551300048828,-3.5865142345428467,-2.7126305103302,-439.88037109375,-251.8768310546875,440.7501220703125
13.709999900000001,-32.9442138671875,-3.3063924312591553,-5.152322292327881,-416.8243408203125,-43.4417724609375,292.1905517578125
13.729999900000001,-44.73086929321289,-3.9911341667175293,-7.469909191131592,-232.421875,194.793701171875,-101.1505126953125
13.7499999,-46.569618225097656,-4.491522312164307,-7.785943984985352,240.53955078125,194.6868896484375,-336.5631103515625
13.7699999,-41.754878997802734,-4.63517427444458,-7.795520782470703,499.9847412109375,100.6011962890625,-301.605224609375
13.789999900000002,-33.63374710083008,-4.247313976287842,-9.057265281677246,499.9847412109375,30.82275390625,-216.6748046875
13.809999900000001,-25.28516387939453,-2.873042106628418,-10.60152530670166,256.8359375,40.2984619140625,-229.0191650390625
13.8299999,-15.761030197143555,-0.26096799969673157,-11.619060516357422,77.728271484375,100.7843017578125,-206.6650390625
13.8499999,-6.064512729644775,1.359906554222107,-11.487380027770996,36.0260009765625,134.1705322265625,-142.669677734375
13.8699999,2.3774423599243164,1.3886369466781616,-10.587160110473633,71.2738037109375,133.4686279296875,-85.5255126953125
13.889999900000001,9.0859956741333,0.272938996553421,-9.196128845214844,124.6795654296875,142.791748046875,-31.8145751953125
13.9099999,13.716381072998047,-1.3862427473068237,-7.4770917892456055,164.2913818359375,171.4630126953125,10.9405517578125
13.9299999,16.292543411254883,-3.0310592651367188,-5.748478412628174,200.62255859375,186.4471435546875,19.3634033203125
13.9499999,17.49921989440918,-4.290409564971924,-4.206612586975098,231.7962646484375,179.0618896484375,-0.2593994140625
13.969999900000001,17.520767211914062,-5.003881454467773,-2.980781078338623,245.6817626953125,163.543701171875,-33.3709716796875
13.9899999,16.6612491607666,-5.1810526847839355,-2.094926595687866,235.5194091796875,156.4483642578125,-70.8465576171875
14.0099999,15.241488456726074,-4.843470096588135,-1.436521053314209,205.718994140625,149.35302734375,-105.3619384765625
14.0299999,13.57512378692627,-4.216189384460449,-0.9409212470054626,174.835205078125,132.049560546875,-131.2255859375
14.049999900000001,12.083536148071289,-3.5170822143554688,-0.6368576288223267,155.3497314453125,113.8916015625,-139.862060546875
14.069999900000001,10.864887237548828,-2.9879636764526367,-0.5147533416748047,144.4854736328125,94.17724609375,-131.9732666015625
14.0899999,10.041281700134277,-2.583343744277954,-0.6488286852836609,128.4332275390625,74.4171142578125,-111.328125
14.1099999,9.684545516967773,-2.3127987384796143,-0.8834604024887085,102.1728515625,55.2215576171875,-95.6878662109375
14.129999900000001,9.749189376831055,-2.145204782485962,-1.1252747774124146,79.254150390625,41.0919189453125,-89.29443359375
14.149999900000001,10.211270332336426,-2.185906171798706,-1.1109095811843872,73.1201171875,31.3720703125,-82.3211669921875
14.1699999,10.745177268981934,-2.3247697353363037,-0.912190854549408,80.5206298828125,26.275634765625,-65.6585693359375
14.1899999,11.200075149536133,-2.5450363159179688,-0.5841852426528931,85.4339599609375,20.599365234375,-51.20849609375
14.209999900000001,11.283872604370117,-2.698265314102173,-0.21787235140800476,83.6029052734375,8.1329345703125,-50.0946044921875
14.229999900000001,11.037269592285156,-2.7078421115875244,0.10055647045373917,82.51953125,-2.4261474609375,-49.37744140625
14.2499999,10.488997459411621,-2.6360161304473877,0.40940847992897034,83.404541015625,-6.77490234375,-40.4815673828125
14.2699999,9.84495735168457,-2.4660277366638184,0.689530074596405,68.267822265625,-4.45556640625,-25.32958984375
14.289999900000002,9.162610054016113,-2.2601263523101807,0.9026140570640564,40.924072265625,-2.2735595703125,-19.3634033203125
14.309999900000001,8.540117263793945,-2.0015525817871094,1.048660397529602,16.2811279296875,-2.410888671875,-18.310546875
14.3299999,8.054094314575195,-1.86508309841156,1.1180921792984009,1.312255859375,-1.5106201171875,-15.5792236328125
14.3499999,7.802703380584717,-1.8914192914962769,1.2473790645599365,-4.547119140625,0.8392333984375,-8.209228515625
14.3699999,7.833827972412109,-2.070984363555908,1.460463047027588,-6.53076171875,5.43212890625,-1.6326904296875
14.389999900000001,8.056488990783691,-2.3942017555236816,1.6879122257232666,-3.0059814453125,11.871337890625,-2.105712890625
14.4099999,8.415618896484375,-2.779668092727661,1.8938134908676147,7.2021484375,14.3890380859375,-1.5411376953125
14.4299999,8.791508674621582,-3.1651346683502197,1.9728221893310547,19.0887451171875,12.2222900390625,5.1422119140625
14.4499999,9.157821655273438,-3.4739866256713867,1.9177556037902832,25.2838134765625,9.1552734375,9.4146728515625
14.469999900000001,9.478644371032715,-3.6511576175689697,1.7405846118927002,25.0091552734375,5.8135986328125,5.9661865234375
14.4899999,9.763554573059082,-3.600879430770874,1.53707754611969,19.95849609375,2.4261474609375,2.6397705078125
14.5099999,9.981427192687988,-3.3949780464172363,1.37906014919281,9.2010498046875,-0.5035400390625,0.4119873046875
14.5299999,10.093954086303711,-3.1052796840667725,1.2617442607879639,-4.2266845703125,-0.8544921875,-4.2877197265625
14.549999900000001,10.050858497619629,-2.80361008644104,1.2545616626739502,-12.451171875,0.091552734375,-9.21630859375
14.569999900000001,9.840168952941895,-2.5498247146606445,1.3263877630233765,-13.092041015625,-0.030517578125,-10.4827880859375
14.5899999,9.476250648498535,-2.473210334777832,1.4053963422775269,-8.758544921875,-0.79345703125,-9.521484375
14.6099999,9.035717010498047,-2.5450363159179688,1.5418659448623657,-4.638671875,-2.4566650390625,-5.126953125
14.629999900000001,8.655038833618164,-2.736572504043579,1.659181833267212,-5.1727294921875,-2.5482177734375,1.0986328125
14.649999900000001,8.413225173950195,-3.0142998695373535,1.7477672100067139,-5.0201416015625,-2.288818359375,3.692626953125
14.6699999,8.362946510314941,-3.2369606494903564,1.7741034030914307,-2.349853515625,-2.9296875,7.2784423828125
14.6899999,8.51138687133789,-3.3638534545898438,1.6639702320098877,-2.4871826171875,-3.5400390625,11.6119384765625
14.709999900000001,8.796297073364258,-3.3662476539611816,1.4101848602294922,-4.94384765625,-3.8604736328125,11.53564453125
14.729999900000001,9.141061782836914,-3.2632968425750732,1.072602391242981,-9.27734375,-3.96728515625,9.307861328125
14.7499999,9.44991397857666,-3.117250680923462,0.7230489253997803,-15.3961181640625,-2.7923583984375,7.2174072265625
14.7699999,9.62947940826416,-3.0095114707946777,0.4429273009300232,-20.69091796875,-0.762939453125,5.0048828125
14.789999900000002,9.648633003234863,-2.964021682739258,0.2801215946674347,-23.284912109375,0.885009765625,4.180908203125
14.809999900000001,9.528923034667969,-2.999934673309326,0.28730419278144836,-21.91162109375,1.708984375,6.0882568359375
14.8299999,9.32541561126709,-3.1004912853240967,0.45489832758903503,-17.669677734375,2.0751953125,9.490966796875
14.8499999,9.097966194152832,-3.2154128551483154,0.751779317855835,-13.214111328125,3.47900390625,13.0615234375
14.8699999,8.868123054504395,-3.3303346633911133,1.1204863786697388,-11.199951171875,5.401611328125,14.9078369140625
14.889999900000001,8.667010307312012,-3.4117374420166016,1.4317326545715332,-10.772705078125,7.0648193359375,15.3961181640625
14.9099999,8.494627952575684,-3.4524388313293457,1.659181833267212,-10.6658935546875,7.6446533203125,15.68603515625
14.9299999,8.377311706542969,-3.44765043258667,1.742978811264038,-13.5955810546875,8.7738037109375,16.1895751953125
14.9499999,8.307879447937012,-3.4165258407592773,1.699883222579956,-18.9971923828125,11.23046875,16.754150390625
14.969999900000001,8.26478385925293,-3.3949780464172363,1.5753847360610962,-23.3154296875,12.6495361328125,18.00537109375
14.9899999,8.20732307434082,-3.380612850189209,1.3982137441635132,-24.627685546875,12.5732421875,22.1099853515625
15.0099999,8.092401504516602,-3.3877954483032227,1.1779472827911377,-24.3377685546875,10.0860595703125,29.1900634765625
15.0299999,7.934384346008301,-3.397372245788574,0.9481038451194763,-23.040771484375,3.4637451171875,39.581298828125
15.049999900000001,7.766790390014648,-3.3734302520751953,0.6512228846549988,-20.9503173828125,-6.256103515625,54.901123046875
15.069999900000001,7.63989782333374,-3.339911460876465,0.29209262132644653,-23.6968994140625,-19.012451171875,73.3489990234375
15.0899999,7.673416614532471,-3.332728862762451,-0.1364694982767105,-35.7818603515625,-33.50830078125,96.160888671875
15.1099999,7.91283655166626,-3.335123062133789,-0.6057330369949341,-55.7861328125,-45.5169677734375,122.6043701171875
15.129999900000001,8.461109161376953,-3.428496837615967,-1.0582371950149536,-80.9326171875,-52.79541015625,144.012451171875
15.149999900000001,9.411606788635254,-3.6320040225982666,-1.5155296325683594,-106.170654296875,-58.2275390625,160.2630615234375
15.1699999,11.02051067352295,-3.97916316986084,-1.9033904075622559,-126.922607421875,-68.0694580078125,175.323486328125
15.1899999,13.66610336303711,-4.393360137939453,-2.2194249629974365,-144.4091796875,-83.8775634765625,187.19482421875
15.209999900000001,17.645265579223633,-4.443638324737549,-2.3726539611816406,-173.5076904296875,-106.4300537109375,189.8040771484375
15.229999900000001,23.03700828552246,-3.928884983062744,-1.98958158493042,-227.813720703125,-144.6075439453125,161.31591796875
15.2499999,28.73042106628418,-2.8778305053710938,-1.091755986213684,-288.421630859375,-187.4237060546875,104.3243408203125
15.2699999,33.439815521240234,-1.4245500564575195,0.3495534360408783,-341.36962890625,-212.158203125,62.8204345703125
15.289999900000002,35.5131950378418,-0.1364694982767105,2.2002713680267334,-397.3236083984375,-215.1336669921875,63.934326171875
15.309999900000001,33.011253356933594,0.44532153010368347,3.6990416049957275,-477.96630859375,-207.1685791015625,112.0758056640625
15.3299999,24.329877853393555,0.3208230137825012,4.3406877517700195,-500,-212.677001953125,200.531005859375
15.3499999,7.613561630249023,-0.5530605912208557,2.183511972427368,-500,-246.39892578125,337.249755859375
15.3699999,-13.029245376586914,-0.9672574996948242,-0.5985504388809204,-500,-247.2686767578125,453.2623291015625
15.389999900000001,-31.766267776489258,-0.48602294921875,-2.736572504043579,-500,-43.212890625,297.821044921875
15.4099999,-43.97190856933594,-0.6440402865409851,-3.797203779220581,-149.1546630859375,160.1715087890625,-23.5595703125
15.4299999,-47.007755279541016,-1.137245774269104,-3.861847400665283,443.450927734375,123.59619140625,-178.009033203125
15.4499999,-42.43482971191406,-1.4772224426269531,-4.235342979431152,499.9847412109375,-6.072998046875,-139.7857666015625
15.469999900000001,-34.51481246948242,-1.525106430053711,-6.311115741729736,499.9847412109375,-74.462890625,-103.7750244140625
15.4899999,-25.074474334716797,-0.4165911078453064,-8.880094528198242,321.075439453125,-44.8150634765625,-148.773193359375
15.5099999,-14.717158317565918,0.7924807667732239,-10.740388870239258,4.7149658203125,26.1993408203125,-157.9132080078125
15.5299999,-4.991910457611084,-0.06224924325942993,-11.367670059204102,-89.7216796875,78.7200927734375,-122.9095458984375
15.549999900000001,3.2968156337738037,-3.1220390796661377,-11.188104629516602,19.1802978515625,111.9384765625,-74.920654296875
15.569999900000001,9.557653427124023,-7.41484260559082,-10.1753568649292,203.7200927734375,135.986328125,-34.149169921875
15.5899999,13.67807388305664,-11.434707641601562,-8.834604263305664,356.0791015625,150.2532958984375,-15.2740478515625
15.6099999,15.899893760681152,-13.778631210327148,-7.68538761138916,403.4271240234375,149.7039794921875,-13.702392578125
15.629999900000001,16.59660530090332,-14.176068305969238,-6.708553314208984,354.7821044921875,139.2059326171875,-51.7730712890625
15.649999900000001,16.196775436401367,-12.744335174560547,-5.987898349761963,272.03369140625,135.162353515625,-110.137939453125
15.6699999,15.13614273071289,-10.431536674499512,-5.118803024291992,208.526611328125,136.444091796875,-163.75732421875
15.6899999,13.785813331604004,-8.267178535461426,-3.914519786834717,179.4586181640625,125.579833984375,-193.9697265625
15.709999900000001,12.287043571472168,-6.584054470062256,-2.5953147411346436,170.7611083984375,106.3232421875,-192.0318603515625
15.729999900000001,10.845733642578125,-5.549759387969971,-1.3479355573654175,165.069580078125,83.7249755859375,-182.1746826171875
15.7499999,9.457097053527832,-4.862623691558838,-0.3711012601852417,166.0003662109375,61.2335205078125,-179.7637939453125
15.7699999,8.305485725402832,-4.3406877517700195,0.22266076505184174,172.8973388671875,39.4744873046875,-174.560546875
15.789999900000002,7.534552574157715,-4.065354347229004,0.5530605912208557,182.8460693359375,13.0157470703125,-162.078857421875
15.809999900000001,7.156269073486328,-3.7493197917938232,0.6248866319656372,176.910400390625,-9.1552734375,-133.1024169921875
15.8299999,7.163451671600342,-3.3279404640197754,0.4692635238170624,137.9852294921875,-17.9290771484375,-107.48291015625
15.8499999,7.41484260559082,-2.7054479122161865,0.2082955539226532,89.17236328125,-20.5230712890625,-108.245849609375
15.869999900000002,7.7643961906433105,-1.9273324012756348,-0.06703764945268631,45.806884765625,-16.78466796875,-112.579345703125
15.889999900000001,8.190564155578613,-1.237802267074585,-0.19393034279346466,14.6331787109375,-11.6119384765625,-111.51123046875
15.9099999,8.633491516113281,-0.9768342971801758,-0.08858546614646912,4.425048828125,-9.94873046875,-110.076904296875
15.9299999,9.126696586608887,-1.1252747774124146,0.14844051003456116,12.237548828125,-10.2691650390625,-94.9249267578125
15.9499999,9.648633003234863,-1.5155296325683594,0.4381389021873474,22.857666015625,-8.8958740234375,-62.8509521484375
15.969999900000001,10.137049674987793,-1.8938134908676147,0.6224924325942993,30.120849609375,-9.8114013671875,-36.651611328125
15.9899999,10.491392135620117,-2.1571757793426514,0.6177040338516235,34.7747802734375,-12.8021240234375,-28.6712646484375
16.0099999,10.668562889099121,-2.1523873805999756,0.49799394607543945,36.62109375,-15.5792236328125,-21.8353271484375
16.0299999,10.618284225463867,-2.0446481704711914,0.3734954595565796,32.0281982421875,-15.07568359375,-11.1541748046875
16.0499999,10.350133895874023,-1.8411411046981812,0.33758243918418884,22.7508544921875,-13.24462890625,-5.2947998046875
16.0699999,9.890447616577148,-1.659181833267212,0.4572925269603729,12.664794921875,-11.2762451171875,-6.9427490234375
16.089999900000002,9.334992408752441,-1.4963760375976562,0.7182605266571045,6.6375732421875,-9.7808837890625,-5.9661865234375
16.109999900000002,8.786720275878906,-1.4508862495422363,1.091755986213684,2.0294189453125,-7.62939453125,0.79345703125
16.1299999,8.396465301513672,-1.4891934394836426,1.5059528350830078,-2.13623046875,-6.34765625,6.1187744140625
16.1499999,8.238448143005371,-1.6759412288665771,1.9081788063049316,-3.692626953125,-5.7220458984375,7.2784423828125
16.1699999,8.346187591552734,-1.8962076902389526,2.2026655673980713,-2.86865234375,-2.960205078125,12.6495361328125
16.1899999,8.686163902282715,-2.140416383743286,2.293645143508911,-4.6539306640625,0.4119873046875,21.0418701171875
16.2099999,9.167398452758789,-2.382230758666992,2.1356279850006104,-10.1470947265625,1.2969970703125,22.94921875
16.2299999,9.68933391571045,-2.537853717803955,1.7860745191574097,-15.5487060546875,1.373291015625,18.85986328125
16.249999900000002,10.141838073730469,-2.631227731704712,1.335964560508728,-17.3492431640625,2.01416015625,15.472412109375
16.269999900000002,10.407594680786133,-2.717418909072876,0.9265560507774353,-13.641357421875,2.349853515625,12.63427734375
16.2899999,10.412383079528809,-2.8107926845550537,0.6536170840263367,-4.9285888671875,1.15966796875,9.1552734375
16.3099999,10.144232749938965,-2.918531894683838,0.5554547905921936,1.5716552734375,0.091552734375,4.5318603515625
16.3299999,9.667786598205566,-3.0119056701660156,0.6344634294509888,0.8392333984375,0.6561279296875,1.2054443359375
16.3499999,9.102754592895508,-3.0885202884674072,0.871489405632019,-6.40869140625,2.1209716796875,-0.7171630859375
16.3699999,8.583212852478027,-3.1004912853240967,1.1899182796478271,-16.7388916015625,4.791259765625,-1.6632080078125
16.3899999,8.20492935180664,-3.090914487838745,1.558625340461731,-25.0396728515625,9.2315673828125,-3.0975341796875
16.4099999,8.020575523376465,-3.0765492916107178,1.8555063009262085,-27.1453857421875,14.7705078125,-3.0364990234375
16.429999900000002,8.027758598327637,-3.0813376903533936,2.054224967956543,-21.5301513671875,19.805908203125,0.2899169921875
16.4499999,8.183381080627441,-3.0789434909820557,2.10210919380188,-15.7012939453125,23.468017578125,5.2642822265625
16.4699999,8.446743965148926,-3.0573954582214355,2.0183119773864746,-13.5040283203125,26.1993408203125,8.6212158203125
16.4899999,8.762778282165527,-2.9664158821105957,1.8339585065841675,-12.725830078125,26.1993408203125,11.199951171875
16.5099999,9.090784072875977,-2.8179752826690674,1.5753847360610962,-11.41357421875,22.88818359375,14.312744140625
16.5299999,9.354146003723145,-2.628833532333374,1.2976573705673218,-13.397216796875,17.1356201171875,16.448974609375
16.5499999,9.552865028381348,-2.4684219360351562,1.0678139925003052,-21.820068359375,12.054443359375,16.3421630859375
16.5699999,9.643844604492188,-2.3487119674682617,0.9026140570640564,-27.496337890625,10.8795166015625,14.8773193359375
16.589999900000002,9.648633003234863,-2.298433542251587,0.8954314589500427,-26.91650390625,11.8408203125,14.251708984375
16.609999900000002,9.57201862335205,-2.315192937850952,1.0031704902648926,-27.40478515625,12.7716064453125,15.625
16.6299999,9.399636268615723,-2.382230758666992,1.1779472827911377,-26.3214111328125,12.02392578125,19.47021484375
16.6499999,9.136273384094238,-2.4636335372924805,1.3072341680526733,-22.0184326171875,9.9029541015625,27.3284912109375
16.6699999,8.779537200927734,-2.585737943649292,1.316810965538025,-18.4478759765625,5.4779052734375,38.14697265625
16.6899999,8.362946510314941,-2.734178304672241,1.1348515748977661,-17.2882080078125,-1.2664794921875,51.177978515625
16.7099999,7.989450931549072,-2.894589900970459,0.8379706144332886,-20.416259765625,-7.6751708984375,67.4285888671875
16.7299999,7.745242595672607,-3.0526070594787598,0.4596867263317108,-27.313232421875,-12.1307373046875,85.0372314453125
16.749999900000002,7.7213006019592285,-3.222595453262329,0.08858546614646912,-37.322998046875,-15.3350830078125,104.2022705078125
16.769999900000002,7.987056732177734,-3.378218650817871,-0.2944868206977844,-51.849365234375,-18.951416015625,128.9825439453125
16.7899999,8.60236644744873,-3.5625722408294678,-0.6584054827690125,-69.8089599609375,-24.8870849609375,157.7911376953125
16.8099999,9.75637149810791,-3.6774938106536865,-1.01753568649292,-87.8753662109375,-36.529541015625,184.295654296875
16.8299999,11.868058204650879,-3.778050184249878,-1.3958195447921753,-109.893798828125,-51.116943359375,198.9898681640625
16.8499999,15.605406761169434,-3.5434184074401855,-1.723825216293335,-144.2108154296875,-68.8018798828125,202.880859375
16.8699999,21.124042510986328,-2.695871114730835,-1.5969325304031372,-195.7244873046875,-93.8568115234375,181.1370849609375
16.8899999,27.576416015625,-1.403002142906189,-0.5554547905921936,-237.4725341796875,-123.779296875,127.3651123046875
16.9099999,33.085472106933594,0.26815059781074524,1.2737152576446533,-239.9444580078125,-158.355712890625,84.869384765625
16.929999900000002,35.616146087646484,1.9249382019042969,3.0095114707946777,-265.7318115234375,-197.5860595703125,97.198486328125
16.9499999,33.154903411865234,2.719813108444214,3.914519786834717,-438.9495849609375,-206.3446044921875,169.525146484375
16.9699999,25.256433486938477,3.184288263320923,3.6583402156829834,-500,-198.2879638671875,261.7340087890625
16.9899999,10.807426452636719,2.806004285812378,1.659181833267212,-500,-217.6513671875,331.6497802734375
17.0099999,-9.313444137573242,0.5722141861915588,-2.7772738933563232,-500,-272.1405029296875,404.0679931640625
17.0299999,-28.045679092407227,-0.7709329724311829,-6.236895561218262,-500,-213.836669921875,422.0123291015625
17.0499999,-42.05654525756836,-2.6575639247894287,-7.987056732177734,-400.360107421875,58.3953857421875,136.1083984375
17.0699999,-46.75636672973633,-4.831499099731445,-8.461109161376953,-52.001953125,218.5516357421875,-219.085693359375
17.089999900000002,-44.4603271484375,-5.875370979309082,-6.9024834632873535,492.584228515625,129.4708251953125,-324.70703125
17.109999900000002,-37.258567810058594,-5.631162166595459,-6.375759124755859,499.9847412109375,4.6234130859375,-245.4986572265625
17.1299999,-29.71922492980957,-4.7836151123046875,-7.568071365356445,483.9019775390625,-25.69580078125,-223.4344482421875
17.1499999,-20.992361068725586,-1.8986018896102905,-9.148244857788086,226.6082763671875,32.40966796875,-209.9609375
17.1699999,-11.250353813171387,0.5961562395095825,-10.101137161254883,74.3560791015625,98.9990234375,-161.4532470703125
17.1899999,-1.4772224426269531,1.4413094520568848,-10.426748275756836,32.3944091796875,134.9945068359375,-110.7025146484375
17.2099999,7.105990409851074,0.5770025849342346,-9.979032516479492,77.606201171875,139.739990234375,-60.05859375
17.2299999,13.608642578125,-1.3407529592514038,-9.081207275390625,165.1153564453125,152.435302734375,-19.22607421875
17.249999900000002,17.891868591308594,-3.5410242080688477,-7.9415669441223145,236.7706298828125,181.1981201171875,2.2735595703125
17.269999900000002,19.725828170776367,-5.281609058380127,-6.830657482147217,266.5863037109375,192.779541015625,-4.180908203125
17.2899999,19.74258804321289,-6.325480937957764,-6.004657745361328,265.533447265625,176.422119140625,-37.353515625
17.3099999,18.289306640625,-6.564900875091553,-5.351040840148926,249.93896484375,151.519775390625,-73.8677978515625
17.3299999,16.17761993408203,-6.421248912811279,-4.656722068786621,220.0775146484375,134.613037109375,-112.2894287109375
17.3499999,13.838485717773438,-6.026205539703369,-3.914519786834717,187.92724609375,122.8179931640625,-140.8843994140625
17.3699999,11.81299114227295,-5.647922039031982,-3.1028854846954346,160.1409912109375,108.9630126953125,-150.482177734375
17.3899999,10.105925559997559,-5.243301868438721,-2.4157495498657227,140.7623291015625,94.757080078125,-149.261474609375
17.409999900000003,8.755595207214355,-4.884171485900879,-1.965639591217041,130.55419921875,82.3974609375,-149.4293212890625
17.429999900000002,7.773972988128662,-4.4532151222229,-1.6855180263519287,130.7220458984375,72.4639892578125,-145.81298828125
17.4499999,7.247248649597168,-4.036623954772949,-1.5083470344543457,127.197265625,65.2008056640625,-132.4005126953125
17.4699999,7.12035608291626,-3.6607344150543213,-1.41257905960083,115.875244140625,58.807373046875,-112.6861572265625
17.4899999,7.352593421936035,-3.4117374420166016,-1.3455413579940796,105.52978515625,52.215576171875,-95.977783203125
17.5099999,7.778761386871338,-3.2369606494903564,-1.2401964664459229,105.5450439453125,45.5474853515625,-85.0677490234375
17.5299999,8.358158111572266,-3.2154128551483154,-0.9648633003234863,112.6861572265625,40.22216796875,-78.369140625
17.5499999,9.016563415527344,-3.3494882583618164,-0.44771572947502136,123.291015625,31.5093994140625,-68.8629150390625
17.5699999,9.600749015808105,-3.4524388313293457,0.14844051003456116,129.302978515625,21.575927734375,-49.13330078125
17.589999900000002,10.002974510192871,-3.469198226928711,0.7972691655158997,123.2147216796875,9.2315673828125,-33.905029296875
17.609999900000002,10.168174743652344,-3.2154128551483154,1.2497732639312744,105.9722900390625,-3.448486328125,-32.0892333984375
17.6299999,10.125079154968262,-2.75812029838562,1.5945383310317993,79.742431640625,-12.5732421875,-36.1175537109375
17.6499999,9.921571731567383,-2.1811177730560303,1.9081788063049316,47.393798828125,-16.5557861328125,-33.63037109375
17.6699999,9.600749015808105,-1.6376339197158813,2.1068975925445557,12.2528076171875,-16.265869140625,-23.0865478515625
17.6899999,9.217676162719727,-1.3072341680526733,2.22660756111145,-5.7830810546875,-17.6849365234375,-18.951416015625
17.7099999,8.829815864562988,-1.1516109704971313,2.2242133617401123,-0.6256103515625,-21.453857421875,-13.12255859375
17.7299999,8.595184326171875,-1.2234370708465576,2.145204782485962,10.528564453125,-20.93505859375,-3.3416748046875
17.749999900000002,8.583212852478027,-1.4484920501708984,2.0470423698425293,14.46533203125,-14.7705078125,3.6163330078125
17.769999900000002,8.801085472106934,-1.745373010635376,1.9273324012756348,7.0343017578125,-5.096435546875,9.2315673828125
17.7899999,9.136273384094238,-2.051830768585205,1.7764976024627686,-4.6844482421875,-0.0762939453125,11.90185546875
17.8099999,9.48343276977539,-2.43011474609375,1.599326729774475,-11.383056640625,-0.0762939453125,11.53564453125
17.8299999,9.813833236694336,-2.7988216876983643,1.4508862495422363,-13.8397216796875,-1.434326171875,13.397216796875
17.8499999,10.072406768798828,-3.1196448802948,1.3694833517074585,-13.6871337890625,-3.0517578125,14.8773193359375
17.8699999,10.244789123535156,-3.3303346633911133,1.3670891523361206,-9.6282958984375,-7.4005126953125,10.25390625
17.8899999,10.285490036010742,-3.332728862762451,1.3862427473068237,-2.13623046875,-12.786865234375,4.2724609375
17.909999900000003,10.129867553710938,-3.155557870864868,1.3934253454208374,3.0517578125,-16.143798828125,-1.129150390625
17.929999900000002,9.823410034179688,-2.8658595085144043,1.41257905960083,-1.495361328125,-15.7623291015625,-6.500244140625
17.9499999,9.425971984863281,-2.559401512145996,1.4101848602294922,-9.0484619140625,-11.993408203125,-10.9405517578125
17.9699999,9.030928611755371,-2.3080103397369385,1.4173674583435059,-14.434814453125,-4.852294921875,-11.749267578125
17.9899999,8.65743350982666,-2.2361843585968018,1.4053963422775269,-12.02392578125,2.655029296875,-11.1083984375
18.0099999,8.346187591552734,-2.3319525718688965,1.3694833517074585,-0.885009765625,7.0037841796875,-7.3699951171875
18.0299999,8.125920295715332,-2.5498247146606445,1.3335703611373901,9.5367431640625,8.2550048828125,-1.0833740234375
18.0499999,8.02536392211914,-2.80361008644104,1.290474772453308,11.5966796875,10.1318359375,4.4097900390625
18.0699999,8.063671112060547,-2.964021682739258,1.3072341680526733,4.791259765625,12.7105712890625,8.97216796875
18.089999900000002,8.226476669311523,-3.028665065765381,1.3096283674240112,-3.662109375,14.1448974609375,11.4288330078125
18.109999900000002,8.449137687683105,-2.978386878967285,1.335964560508728,-11.9476318359375,12.7716064453125,12.3291015625
18.1299999,8.65743350982666,-2.892195701599121,1.314416766166687,-19.7601318359375,10.9100341796875,11.8865966796875
18.1499999,8.798690795898438,-2.82515811920166,1.2617442607879639,-21.4996337890625,9.0179443359375,11.1083984375
18.1699999,8.904036521911621,-2.7533318996429443,1.2473790645599365,-20.172119140625,7.2174072265625,13.4735107421875
18.1899999,9.023746490478516,-2.715024709701538,1.2761094570159912,-17.7001953125,9.674072265625,12.542724609375
18.2099999,9.17697525024414,-2.6623523235321045,1.3742717504501343,-11.1236572265625,16.2506103515625,8.5906982421875
18.2299999,9.373299598693848,-2.583343744277954,1.4748282432556152,0.030517578125,21.087646484375,6.4849853515625
18.249999900000002,9.576807022094727,-2.4875755310058594,1.5298948287963867,13.4735107421875,19.9127197265625,6.622314453125
18.269999900000002,9.734824180603027,-2.360682964324951,1.5107412338256836,16.90673828125,16.143798828125,10.467529296875
18.2899999,9.818621635437012,-2.2433669567108154,1.4460978507995605,6.9580078125,13.1378173828125,15.6402587890625
18.3099999,9.806650161743164,-2.164358377456665,1.381454348564148,-6.4239501953125,9.70458984375,20.5230712890625
18.3299999,9.634267807006836,-2.185906171798706,1.3287819623947144,-18.798828125,5.1422119140625,27.52685546875
18.3499999,9.263166427612305,-2.3319525718688965,1.2042834758758545,-30.4412841796875,-0.640869140625,39.1082763671875
18.3699999,8.707711219787598,-2.583343744277954,0.9265560507774353,-42.8924560546875,-8.1329345703125,54.290771484375
18.3899999,8.111555099487305,-2.829946517944336,0.4692635238170624,-65.2618408203125,-16.0369873046875,75.4547119140625
18.409999900000003,7.630321025848389,-2.9281086921691895,-0.16998831927776337,-114.715576171875,-20.7366943359375,105.1483154296875
18.429999900000002,7.407660007476807,-2.7030537128448486,-1.0797849893569946,-197.4029541015625,-23.7274169921875,144.5465087890625
18.4499999,7.536946773529053,-2.3750481605529785,-2.1332337856292725,-290.863037109375,-38.848876953125,179.7943115234375
18.4699999,8.157045364379883,-2.1811177730560303,-3.205836057662964,-357.513427734375,-73.6541748046875,205.8868408203125
18.4899999,9.569623947143555,-2.2888567447662354,-4.003105163574219,-374.0997314453125,-123.3978271484375,221.6949462890625
18.5099999,12.327744483947754,-3.0190882682800293,-4.252102375030518,-362.1978759765625,-170.83740234375,206.4361572265625
18.5299999,16.783353805541992,-4.10366153717041,-3.9911341667175293,-330.7647705078125,-203.55224609375,150.81787109375
18.5499999,22.85744285583496,-5.240907669067383,-2.9903578758239746,-289.4287109375,-222.503662109375,78.5675048828125
18.5699999,29.35770034790039,-5.916072368621826,-1.460463047027588,-241.851806640625,-223.2818603515625,16.754150390625
18.589999900000002,34.71113586425781,-5.537788391113281,0.4836287498474121,-223.9837646484375,-206.35986328125,-1.3275146484375
18.609999900000002,36.56903839111328,-4.54419469833374,2.3367409706115723,-252.349853515625,-185.882568359375,34.48486328125
18.6299999,32.7095832824707,-2.9065608978271484,3.251325845718384,-307.6019287109375,-175.5828857421875,133.60595703125
18.6499999,21.528661727905273,-1.625662922859192,2.8107926845550537,-394.989013671875,-182.403564453125,270.0347900390625
18.6699999,2.0685901641845703,-1.3527239561080933,-0.43335050344467163,-430.755615234375,-213.6077880859375,422.1343994140625
18.6899999,-19.6204833984375,-0.751779317855835,-3.804386615753174,-344.6197509765625,-185.8673095703125,483.306884765625
18.7099999,-37.028724670410156,0.6368576288223267,-5.535394191741943,-274.261474609375,28.0303955078125,271.697998046875
18.7299999,-46.325408935546875,0.9648633003234863,-6.186617374420166,-106.7352294921875,183.7158203125,-158.905029296875
18.749999900000002,-46.65341567993164,0.8068459630012512,-5.3342814445495605,296.81396484375,103.8055419921875,-357.2998046875
18.769999900000002,-40.6463623046875,0.5291185975074768,-4.78122091293335,499.9847412109375,-15.7928466796875,-272.76611328125
18.7899999,-33.039981842041016,-0.6033388376235962,-6.150704383850098,483.6578369140625,-69.6563720703125,-210.51025390625
18.8099999,-24.260446548461914,-0.2346317619085312,-8.061277389526367,216.888427734375,-39.4134521484375,-206.573486328125
18.8299999,-14.123395919799805,0.6967126727104187,-9.732429504394531,9.9639892578125,23.5137939453125,-172.3785400390625
18.8499999,-3.8810009956359863,0.5147533416748047,-10.910377502441406,-66.986083984375,79.986572265625,-138.12255859375
18.8699999,5.161899089813232,-0.8786720037460327,-11.39161205291748,-17.242431640625,117.767333984375,-88.409423828125
18.8899999,12.27267837524414,-3.203441858291626,-11.228805541992188,111.9842529296875,142.7154541015625,-32.318115234375
18.909999900000003,17.034744262695312,-5.537788391113281,-10.702081680297852,237.274169921875,162.628173828125,7.7362060546875
18.929999900000002,19.32120704650879,-7.041347026824951,-9.967061996459961,293.2586669921875,170.22705078125,9.857177734375
18.9499999,19.55583953857422,-7.55131196975708,-9.255983352661133,281.9671630859375,170.1812744140625,-27.77099609375
18.9699999,18.21987533569336,-7.0772600173950195,-8.415618896484375,240.0970458984375,170.10498046875,-70.526123046875
18.9899999,15.971719741821289,-6.277596950531006,-7.271190643310547,190.582275390625,170.440673828125,-107.4371337890625
19.0099999,13.555970191955566,-5.6670756340026855,-5.884947776794434,163.0706787109375,165.5731201171875,-138.519287109375
19.0299999,11.405977249145508,-5.319916248321533,-4.4292731285095215,167.388916015625,155.8380126953125,-152.923583984375
19.0499999,9.591172218322754,-5.214571475982666,-3.0621838569641113,180.1605224609375,146.05712890625,-151.336669921875
19.0699999,8.061277389526367,-5.173870086669922,-1.9153614044189453,192.6116943359375,132.293701171875,-152.252197265625
19.089999900000002,6.7923502922058105,-4.932055473327637,-1.072602391242981,204.437255859375,113.006591796875,-149.658203125
19.109999900000002,5.985504150390625,-4.632780075073242,-0.43095630407333374,214.3707275390625,86.24267578125,-143.1884765625
19.1299999,5.6191911697387695,-4.034229755401611,-0.14604631066322327,211.761474609375,56.8695068359375,-122.314453125
19.1499999,5.8442463874816895,-3.3255462646484375,-0.043095629662275314,180.1605224609375,34.9578857421875,-100.128173828125
19.1699999,6.536170482635498,-2.4444799423217773,-0.10773907601833344,130.7830810546875,23.5748291015625,-90.02685546875
19.1899999,7.575253963470459,-1.6950948238372803,-0.1867477297782898,81.2835693359375,20.5078125,-81.2835693359375
19.2099999,8.801085472106934,-1.3263877630233765,-0.13407529890537262,49.31640625,16.1590576171875,-67.047119140625
19.2299999,9.907206535339355,-1.359906554222107,-0.038307227194309235,33.447265625,12.0697021484375,-42.5262451171875
19.249999900000002,10.759542465209961,-1.7621324062347412,0.22505496442317963,31.707763671875,6.9122314453125,-25.20751953125
19.269999900000002,11.221623420715332,-2.1978771686553955,0.5506663918495178,38.9556884765625,2.2735595703125,-15.93017578125
19.2899999,11.298237800598145,-2.5498247146606445,0.9576807022094727,45.2117919921875,-1.28173828125,-14.984130859375
19.3099999,11.042057991027832,-2.6815059185028076,1.335964560508728,44.0826416015625,-5.2337646484375,-16.8609619140625
19.3299999,10.57040023803711,-2.6384103298187256,1.6160861253738403,33.843994140625,-7.049560546875,-20.8892822265625
19.3499999,9.950302124023438,-2.454056739807129,1.7836803197860718,27.2674560546875,-8.7890625,-26.2451171875
19.3699999,9.351752281188965,-2.3032219409942627,1.8315643072128296,31.4178466796875,-10.9710693359375,-29.8309326171875
19.3899999,8.846575736999512,-2.1356279850006104,1.8722656965255737,36.4990234375,-12.3138427734375,-25.81787109375
19.409999900000003,8.523358345031738,-1.941697597503662,1.8387469053268433,27.2369384765625,-8.087158203125,-18.4783935546875
19.429999900000002,8.406042098999023,-1.7717092037200928,1.745373010635376,12.7105712890625,-2.655029296875,-18.768310546875
19.4499999,8.470685958862305,-1.5753847360610962,1.5610195398330688,6.2713623046875,0.3662109375,-15.19775390625
19.4699999,8.664615631103516,-1.5298948287963867,1.2641384601593018,6.1798095703125,2.0904541015625,-3.6163330078125
19.4899999,8.951920509338379,-1.6041151285171509,0.9792284965515137,8.941650390625,3.2196044921875,8.1787109375
19.5099999,9.26795482635498,-1.800439715385437,0.7589619159698486,9.9945068359375,5.2947998046875,13.946533203125
19.5299999,9.552865028381348,-2.013523578643799,0.7158663272857666,10.80322265625,8.2244873046875,15.19775390625
19.5499999,9.734824180603027,-2.207453966140747,0.8451532125473022,11.6119384765625,10.1165771484375,14.129638671875
19.5699999,9.765948295593262,-2.410961151123047,1.1324573755264282,10.2996826171875,9.4757080078125,11.5966796875
19.589999900000002,9.653421401977539,-2.6001031398773193,1.4652514457702637,8.36181640625,6.8511962890625,10.5438232421875
19.609999900000002,9.466673851013184,-2.760514497756958,1.7764976024627686,6.4544677734375,3.6468505859375,10.498046875
19.6299999,9.296685218811035,-2.9017724990844727,2.0015525817871094,4.0283203125,0.4119873046875,8.85009765625
19.6499999,9.20091724395752,-3.0095114707946777,2.1092917919158936,5.0506591796875,-2.685546875,6.5765380859375
19.6699999,9.208099365234375,-3.090914487838745,2.10210919380188,8.11767578125,-4.45556640625,5.7830810546875
19.6899999,9.289502143859863,-3.1699230670928955,2.0231003761291504,8.514404296875,-4.4097900390625,5.7373046875
19.7099999,9.3828763961792,-3.2393548488616943,1.889025092124939,5.401611328125,-2.777099609375,4.9591064453125
19.7299999,9.440337181091309,-3.318363666534424,1.7741034030914307,1.3580322265625,-1.5716552734375,3.6773681640625
19.749999900000002,9.428366661071777,-3.404554843902588,1.6735470294952393,-0.7171630859375,-1.89208984375,3.23486328125
19.769999900000002,9.346963882446289,-3.5194764137268066,1.6376339197158813,-0.1220703125,-3.662109375,3.082275390625
19.7899999,9.198522567749023,-3.646369218826294,1.6208745241165161,3.5400390625,-5.9356689453125,4.21142578125
19.8099999,9.016563415527344,-3.7397429943084717,1.625662922859192,8.6669921875,-9.124755859375,7.4920654296875
19.8299999,8.80587387084961,-3.7181951999664307,1.5682021379470825,10.7574462890625,-12.3291015625,11.016845703125
19.8499999,8.595184326171875,-3.533841609954834,1.4317326545715332,4.7607421875,-15.07568359375,10.8642578125
19.8699999,8.396465301513672,-3.1866824626922607,1.1994950771331787,-11.962890625,-14.7705078125,8.514404296875
19.8899999,8.200140953063965,-2.7772738933563232,0.9241618514060974,-33.2489013671875,-11.1541748046875,8.0718994140625
19.909999900000003,8.003816604614258,-2.4396915435791016,0.6751648783683777,-48.6297607421875,-6.744384765625,14.739990234375
19.929999900000002,7.773972988128662,-2.3080103397369385,0.47644615173339844,-47.79052734375,-4.69970703125,29.0679931640625
19.9499999,7.496245384216309,-2.4468741416931152,0.31842881441116333,-32.2418212890625,-5.4931640625,50.9490966796875
19.9699999,7.254431247711182,-2.786850690841675,0.17956513166427612,-8.4991455078125,-6.8206787109375,79.681396484375
19.9899999,7.151480674743652,-3.1723172664642334,0.05746084079146385,11.8560791015625,-5.4931640625,109.405517578125
20.0099999,7.371747016906738,-3.3662476539611816,-0.043095629662275314,14.2059326171875,0.9918212890625,132.0343017578125
20.0299999,7.965508937835693,-3.31118106842041,-0.1604115068912506,-11.749267578125,12.4969482421875,140.8843994140625
20.0499999,8.911218643188477,-3.047818660736084,-0.33518823981285095,-60.24169921875,21.484375,142.63916015625
20.0699999,10.316615104675293,-2.7700912952423096,-0.5315127968788147,-111.0382080078125,20.111083984375,147.2015380859375
20.089999900000002,12.459425926208496,-2.410961151123047,-0.6033388376235962,-151.4434814453125,9.765625,152.862548828125
