# Time (seconds),Accel_X,Accel_Y,Accel_Z,Gyro_X,Gyro_Y,Gyro_Z
0.0012499,9.938331604003906,-1.2473790645599365,-1.680729627609253,-1.8463134765625,-6.04248046875,-0.9918212890625
0.0037499,9.916783332824707,-1.2449848651885986,-1.7118542194366455,-1.6326904296875,-5.828857421875,-1.1444091796875
0.0062499,9.888052940368652,-1.2449848651885986,-1.742978811264038,-1.77001953125,-5.5084228515625,-1.28173828125
0.0087499,9.852140426635742,-1.2497732639312744,-1.7764976024627686,-1.8157958984375,-5.126953125,-1.2054443359375
0.0112499,9.81143856048584,-1.2545616626739502,-1.802833914756775,-1.89208984375,-4.791259765625,-1.1444091796875
0.0137499,9.765948295593262,-1.2665326595306396,-1.821987509727478,-1.678466796875,-4.730224609375,-1.28173828125
0.016249899999999998,9.718064308166504,-1.2713210582733154,-1.8387469053268433,-1.8157958984375,-4.5928955078125,-1.5869140625
0.0187499,9.672574996948242,-1.2665326595306396,-1.8531121015548706,-1.9378662109375,-4.425048828125,-1.708984375
0.021249900000000002,9.62947940826416,-1.2473790645599365,-1.8698714971542358,-1.800537109375,-4.150390625,-1.9683837890625
0.023749899999999997,9.59835433959961,-1.2210428714752197,-1.886630892753601,-2.044677734375,-4.180908203125,-2.0751953125
0.0262499,9.579200744628906,-1.194706678390503,-1.9057846069335938,-2.50244140625,-4.058837890625,-2.6092529296875
0.028749900000000002,9.564835548400879,-1.1851298809051514,-1.9249382019042969,-2.8076171875,-3.7994384765625,-2.74658203125
0.031249899999999997,9.560047149658203,-1.1875240802764893,-1.946485996246338,-2.62451171875,-3.7841796875,-2.9449462890625
0.0337499,9.545681953430176,-1.213860273361206,-1.968033790588379,-2.8839111328125,-3.753662109375,-3.2501220703125
0.0362499,9.528923034667969,-1.2449848651885986,-1.9847931861877441,-3.082275390625,-3.9215087890625,-3.4332275390625
0.0387499,9.500192642211914,-1.292868971824646,-1.9991583824157715,-3.204345703125,-3.84521484375,-3.631591796875
0.0412499,9.481039047241211,-1.338358759880066,-2.006340980529785,-3.4332275390625,-3.7384033203125,-4.08935546875
0.0437499,9.457097053527832,-1.381454348564148,-2.0039467811584473,-3.5247802734375,-3.997802734375,-4.119873046875
0.0462499,9.437943458557129,-1.414973258972168,-1.9991583824157715,-3.5400390625,-4.1656494140625,-4.0283203125
0.0487499,9.41400146484375,-1.434126853942871,-1.9967641830444336,-3.90625,-4.2877197265625,-4.364013671875
0.0512499,9.3828763961792,-1.4413094520568848,-1.9943699836730957,-4.241943359375,-4.425048828125,-4.6844482421875
0.053749899999999996,9.35654067993164,-1.4389152526855469,-2.0015525817871094,-4.5013427734375,-4.4708251953125,-4.7454833984375
0.0562499,9.334992408752441,-1.4245500564575195,-2.0159177780151367,-4.547119140625,-4.6844482421875,-4.791259765625
0.0587499,9.32541561126709,-1.3958195447921753,-2.027888774871826,-4.5166015625,-4.7149658203125,-4.9591064453125
0.061249899999999996,9.320627212524414,-1.3623007535934448,-2.0422539710998535,-4.7454833984375,-5.06591796875,-5.035400390625
0.0637499,9.32541561126709,-1.3239935636520386,-2.0470423698425293,-4.57763671875,-5.2490234375,-5.2337646484375
0.0662499,9.339780807495117,-1.2880805730819702,-2.049436569213867,-4.486083984375,-5.4779052734375,-5.2642822265625
0.0687499,9.35893440246582,-1.2521674633026123,-2.049436569213867,-4.6844482421875,-5.615234375,-5.37109375
0.0712499,9.375694274902344,-1.2186486721038818,-2.0446481704711914,-4.5166015625,-5.889892578125,-5.615234375
0.0737499,9.387664794921875,-1.1851298809051514,-2.0470423698425293,-4.547119140625,-5.9661865234375,-5.523681640625
0.0762499,9.385271072387695,-1.1563993692398071,-2.0374655723571777,-4.638671875,-6.1187744140625,-5.43212890625
0.0787499,9.375694274902344,-1.1300631761550903,-2.032677173614502,-4.45556640625,-6.2255859375,-5.340576171875
0.0812499,9.361329078674316,-1.1037269830703735,-2.0207061767578125,-4.486083984375,-6.40869140625,-5.18798828125
0.0837499,9.344569206237793,-1.0893617868423462,-2.011129379272461,-4.5318603515625,-6.622314453125,-5.0811767578125
0.0862499,9.32541561126709,-1.0773907899856567,-2.006340980529785,-4.4708251953125,-6.5460205078125,-5.2337646484375
0.0887499,9.308655738830566,-1.0773907899856567,-2.0039467811584473,-4.4708251953125,-6.7596435546875,-4.9285888671875
0.0912499,9.299078941345215,-1.0821791887283325,-2.006340980529785,-4.6234130859375,-6.8359375,-4.4403076171875
0.0937499,9.294290542602539,-1.0893617868423462,-2.008735179901123,-4.6539306640625,-6.927490234375,-4.2724609375
0.0962499,9.30386734008789,-1.091755986213684,-2.011129379272461,-5.1116943359375,-6.8359375,-4.0283203125
0.0987499,9.315838813781738,-1.0821791887283325,-2.011129379272461,-5.5694580078125,-6.7901611328125,-3.7689208984375
0.1012499,9.337387084960938,-1.070208191871643,-2.008735179901123,-5.5999755859375,-7.0037841796875,-3.5247802734375
0.1037499,9.35654067993164,-1.05105459690094,-2.006340980529785,-5.9661865234375,-7.1258544921875,-3.570556640625
0.1062499,9.375694274902344,-1.0342950820922852,-2.0015525817871094,-6.2103271484375,-6.7901611328125,-3.35693359375
0.1087499,9.390059471130371,-1.0223240852355957,-1.9919757843017578,-6.4697265625,-6.8359375,-3.2501220703125
0.1112499,9.394847869873047,-1.0127472877502441,-1.9823989868164062,-6.6986083984375,-6.6680908203125,-3.265380859375
0.1137499,9.402029991149902,-1.0055646896362305,-1.9704279899597168,-7.049560546875,-6.683349609375,-3.1890869140625
0.1162499,9.406818389892578,-1.0055646896362305,-1.9584569931030273,-7.3699951171875,-6.7596435546875,-2.8533935546875
0.1187499,9.406818389892578,-1.0103530883789062,-1.946485996246338,-7.5531005859375,-6.561279296875,-2.44140625
0.1212499,9.41400146484375,-1.0199298858642578,-1.9297266006469727,-7.8582763671875,-6.16455078125,-2.44140625
0.1237499,9.41400146484375,-1.036689281463623,-1.9081788063049316,-8.1024169921875,-6.04248046875,-2.5634765625
0.1262499,9.41400146484375,-1.0582371950149536,-1.8818424940109253,-8.3770751953125,-5.7220458984375,-2.25830078125
0.1287499,9.406818389892578,-1.0845733880996704,-1.8602946996688843,-8.6517333984375,-5.523681640625,-2.0599365234375
0.1312499,9.39245319366455,-1.113303780555725,-1.845929503440857,-9.2010498046875,-5.2642822265625,-1.861572265625
0.1337499,9.378087997436523,-1.137245774269104,-1.8339585065841675,-9.3536376953125,-5.126953125,-1.708984375
0.1362499,9.368511199951172,-1.158793568611145,-1.8339585065841675,-9.5672607421875,-4.94384765625,-1.6326904296875
0.1387499,9.368511199951172,-1.1779472827911377,-1.8291701078414917,-9.7198486328125,-4.9285888671875,-1.3885498046875
0.1412499,9.38048267364502,-1.2066776752471924,-1.8315643072128296,-9.8724365234375,-4.8065185546875,-1.3427734375
0.1437499,9.39245319366455,-1.2401964664459229,-1.8339585065841675,-9.857177734375,-4.45556640625,-0.9765625
0.1462499,9.399636268615723,-1.2856862545013428,-1.8315643072128296,-10.0860595703125,-4.2572021484375,-0.6866455078125
0.1487499,9.399636268615723,-1.338358759880066,-1.821987509727478,-9.918212890625,-4.21142578125,-0.7476806640625
0.1512499,9.397241592407227,-1.3910311460494995,-1.802833914756775,-9.796142578125,-3.997802734375,-0.48828125
0.1537499,9.390059471130371,-1.434126853942871,-1.7836803197860718,-10.101318359375,-3.6773681640625,-0.396728515625
0.1562499,9.390059471130371,-1.4700398445129395,-1.7597382068634033,-10.1470947265625,-3.3721923828125,-0.2899169921875
0.1587499,9.385271072387695,-1.4915876388549805,-1.7501614093780518,-10.0860595703125,-3.082275390625,-0.0457763671875
0.1612499,9.38048267364502,-1.501164436340332,-1.7501614093780518,-10.2386474609375,-2.8533935546875,-0.0152587890625
0.1637499,9.38048267364502,-1.4987702369689941,-1.7501614093780518,-9.857177734375,-2.7618408203125,-0.2593994140625
0.1662499,9.387664794921875,-1.4891934394836426,-1.7525556087493896,-9.521484375,-2.74658203125,0.0152587890625
0.1687499,9.402029991149902,-1.4772224426269531,-1.7525556087493896,-9.4451904296875,-2.532958984375,0.0762939453125
0.1712499,9.418789863586426,-1.460463047027588,-1.745373010635376,-9.063720703125,-2.3193359375,-0.2593994140625
0.1737499,9.435548782348633,-1.4484920501708984,-1.742978811264038,-8.544921875,-2.197265625,-0.54931640625
0.17624990000000001,9.44991397857666,-1.436521053314209,-1.7357962131500244,-8.1024169921875,-2.0904541015625,-0.2593994140625
0.1787499,9.454702377319336,-1.4245500564575195,-1.7334020137786865,-7.537841796875,-1.953125,-0.1983642578125
0.1812499,9.457097053527832,-1.41257905960083,-1.7310078144073486,-6.988525390625,-1.6937255859375,0.030517578125
0.1837499,9.452308654785156,-1.3958195447921753,-1.7334020137786865,-6.7291259765625,-1.64794921875,-0.0152587890625
0.1862499,9.452308654785156,-1.3742717504501343,-1.7381904125213623,-6.34765625,-1.4801025390625,0.06103515625
0.1887499,9.44752025604248,-1.3455413579940796,-1.7477672100067139,-5.7525634765625,-1.251220703125,0.2593994140625
0.1912499,9.445125579833984,-1.3096283674240112,-1.7597382068634033,-5.1116943359375,-1.3427734375,0.2288818359375
0.1937499,9.442731857299805,-1.2713210582733154,-1.778891921043396,-4.69970703125,-1.373291015625,0.091552734375
0.1962499,9.440337181091309,-1.2234370708465576,-1.800439715385437,-3.8909912109375,-1.312255859375,0.3509521484375
0.1987499,9.442731857299805,-1.1779472827911377,-1.8124107122421265,-3.692626953125,-1.312255859375,0.67138671875
0.2012499,9.454702377319336,-1.1324573755264282,-1.821987509727478,-3.204345703125,-1.46484375,0.8392333984375
0.2037499,9.464279174804688,-1.0869675874710083,-1.821987509727478,-2.899169921875,-1.4190673828125,0.9765625
0.2062499,9.476250648498535,-1.0462661981582642,-1.821987509727478,-2.62451171875,-1.129150390625,0.9765625
0.20874990000000002,9.481039047241211,-1.0103530883789062,-1.824381709098816,-1.9989013671875,-1.2054443359375,1.007080078125
0.2112499,9.476250648498535,-0.9840168952941895,-1.8291701078414917,-1.3885498046875,-1.373291015625,1.2359619140625
0.2137499,9.466673851013184,-0.9720458984375,-1.8363527059555054,-0.91552734375,-1.28173828125,1.129150390625
0.2162499,9.44991397857666,-0.9816226959228516,-1.8483237028121948,-0.5340576171875,-1.46484375,1.4495849609375
0.2187499,9.435548782348633,-1.0079588890075684,-1.8626888990402222,-0.457763671875,-1.4190673828125,1.800537109375
0.2212499,9.423578262329102,-1.0414776802062988,-1.8842366933822632,-0.30517578125,-1.495361328125,1.9073486328125
0.2237499,9.421183586120605,-1.072602391242981,-1.9057846069335938,-0.1068115234375,-1.800537109375,2.227783203125
0.2262499,9.421183586120605,-1.0965443849563599,-1.920149803161621,-0.274658203125,-1.9989013671875,2.44140625
0.2287499,9.423578262329102,-1.1037269830703735,-1.9321208000183105,-0.335693359375,-2.044677734375,2.655029296875
0.2312499,9.430760383605957,-1.094150185585022,-1.9297266006469727,-0.6866455078125,-2.3651123046875,2.8228759765625
0.2337499,9.442731857299805,-1.070208191871643,-1.922544002532959,-0.79345703125,-2.5177001953125,2.7923583984375
0.2362499,9.454702377319336,-1.0295066833496094,-1.9081788063049316,-0.762939453125,-2.7313232421875,3.021240234375
0.23874990000000001,9.47146224975586,-0.9840168952941895,-1.8962076902389526,-0.6103515625,-3.021240234375,3.204345703125
0.2412499,9.488221168518066,-0.9433154463768005,-1.8794482946395874,-0.6103515625,-3.3416748046875,3.23486328125
0.2437499,9.500192642211914,-0.9145850539207458,-1.8746598958969116,-0.3204345703125,-3.4027099609375,3.1890869140625
0.2462499,9.50737476348877,-0.9026140570640564,-1.8746598958969116,-0.4425048828125,-3.692626953125,3.23486328125
0.2487499,9.502586364746094,-0.9050082564353943,-1.8818424940109253,-0.5340576171875,-3.8604736328125,3.204345703125
0.2512499,9.493009567260742,-0.9145850539207458,-1.9057846069335938,-0.6103515625,-3.7994384765625,3.1280517578125
0.25374990000000003,9.476250648498535,-0.9361328482627869,-1.9297266006469727,-0.8544921875,-3.9520263671875,3.173828125
0.25624990000000003,9.461885452270508,-0.9600749015808105,-1.965639591217041,-1.007080078125,-3.997802734375,3.0059814453125
0.25874990000000003,9.454702377319336,-0.9792284965515137,-1.9943699836730957,-1.4190673828125,-4.241943359375,2.9144287109375
0.26124990000000003,9.452308654785156,-0.9983820915222168,-2.0207061767578125,-1.5716552734375,-4.302978515625,2.86865234375
0.26374990000000004,9.466673851013184,-1.0127472877502441,-2.03507137298584,-1.8157958984375,-4.6844482421875,2.8839111328125
0.26624990000000004,9.48343276977539,-1.0271124839782715,-2.03507137298584,-2.044677734375,-4.638671875,2.6092529296875
0.26874990000000004,9.50737476348877,-1.039083480834961,-2.027888774871826,-1.983642578125,-4.57763671875,2.62451171875
0.27124990000000004,9.536105155944824,-1.048660397529602,-2.006340980529785,-2.1209716796875,-4.608154296875,2.6092529296875
0.27374990000000005,9.5624418258667,-1.0558429956436157,-1.9847931861877441,-2.2430419921875,-4.6234130859375,2.3345947265625
0.27624990000000005,9.581595420837402,-1.0534487962722778,-1.9608511924743652,-2.44140625,-4.2266845703125,2.0751953125
0.27874990000000005,9.59596061706543,-1.05105459690094,-1.944091796875,-2.7008056640625,-4.302978515625,1.8157958984375
0.28124990000000005,9.600749015808105,-1.048660397529602,-1.9273324012756348,-2.9296875,-4.21142578125,2.01416015625
0.28374990000000005,9.59596061706543,-1.048660397529602,-1.9249382019042969,-3.1585693359375,-4.1961669921875,1.922607421875
0.28624990000000006,9.588777542114258,-1.0534487962722778,-1.922544002532959,-3.2501220703125,-4.1046142578125,1.77001953125
0.28874990000000006,9.579200744628906,-1.0582371950149536,-1.9297266006469727,-3.41796875,-4.180908203125,1.7242431640625
0.2912499,9.5624418258667,-1.0654197931289673,-1.9297266006469727,-3.4027099609375,-4.33349609375,1.708984375
0.2937499,9.557653427124023,-1.091755986213684,-1.9369091987609863,-2.9449462890625,-4.2724609375,1.7547607421875
0.2962499,9.557653427124023,-1.113303780555725,-1.9512743949890137,-2.5482177734375,-4.2572021484375,1.6632080078125
0.2987499,9.567230224609375,-1.1420341730117798,-1.9584569931030273,-3.2958984375,-3.662109375,1.5411376953125
0.3012499,9.581595420837402,-1.158793568611145,-1.9800047874450684,-3.5247802734375,-3.5247802734375,1.7547607421875
0.3037499,9.591172218322754,-1.1659762859344482,-1.98958158493042,-3.72314453125,-3.509521484375,1.739501953125
0.3062499,9.588777542114258,-1.173158884048462,-1.9991583824157715,-3.8909912109375,-3.2806396484375,1.77001953125
0.3087499,9.579200744628906,-1.1851298809051514,-2.006340980529785,-3.72314453125,-3.0517578125,1.6632080078125
0.3112499,9.567230224609375,-1.2018892765045166,-2.008735179901123,-3.47900390625,-2.9754638671875,1.77001953125
0.3137499,9.552865028381348,-1.2210428714752197,-2.006340980529785,-3.5858154296875,-3.082275390625,1.8768310546875
0.31624990000000003,9.53849983215332,-1.237802267074585,-2.0039467811584473,-3.4942626953125,-2.960205078125,1.89208984375
0.31874990000000003,9.528923034667969,-1.2473790645599365,-1.9943699836730957,-3.5858154296875,-2.6397705078125,1.77001953125
0.32124990000000003,9.524134635925293,-1.2521674633026123,-1.9967641830444336,-3.7078857421875,-2.4566650390625,1.7242431640625
0.32374990000000003,9.526528358459473,-1.2497732639312744,-1.9943699836730957,-3.9520263671875,-2.3040771484375,1.6326904296875
0.32624990000000004,9.533711433410645,-1.2425906658172607,-2.0039467811584473,-3.7841796875,-2.3345947265625,1.5106201171875
0.32874990000000004,9.5408935546875,-1.2306196689605713,-2.006340980529785,-3.6163330078125,-2.197265625,1.251220703125
0.33124990000000004,9.548076629638672,-1.2210428714752197,-2.013523578643799,-3.6468505859375,-2.227783203125,1.28173828125
0.33374990000000004,9.543288230895996,-1.2114660739898682,-2.013523578643799,-3.8604736328125,-2.0294189453125,1.190185546875
0.33624990000000005,9.5408935546875,-1.2066776752471924,-2.006340980529785,-3.96728515625,-1.9378662109375,0.8544921875
0.33874990000000005,9.531316757202148,-1.2018892765045166,-2.006340980529785,-3.753662109375,-1.7852783203125,0.9307861328125
0.34124990000000005,9.524134635925293,-1.1971008777618408,-2.0015525817871094,-3.570556640625,-1.8768310546875,0.7171630859375
0.34374990000000005,9.50498104095459,-1.1994950771331787,-2.0039467811584473,-3.72314453125,-1.678466796875,0.7171630859375
0.34624990000000005,9.490615844726562,-1.2018892765045166,-2.0039467811584473,-3.6773681640625,-1.5869140625,0.42724609375
0.34874990000000006,9.47146224975586,-1.1994950771331787,-2.0039467811584473,-3.5247802734375,-1.6021728515625,0.2899169921875
0.35124990000000006,9.466673851013184,-1.2018892765045166,-1.9991583824157715,-3.662109375,-1.739501953125,0.42724609375
0.3537499,9.47146224975586,-1.194706678390503,-1.9943699836730957,-4.0130615234375,-1.6326904296875,0.2593994140625
0.3562499,9.485827445983887,-1.1851298809051514,-1.9823989868164062,-4.2877197265625,-1.4801025390625,-0.0152587890625
0.3587499,9.502586364746094,-1.170764684677124,-1.968033790588379,-4.364013671875,-1.28173828125,0.0152587890625
0.3612499,9.516951560974121,-1.1492167711257935,-1.9536685943603516,-4.5928955078125,-1.1444091796875,-0.0457763671875
0.3637499,9.521739959716797,-1.1300631761550903,-1.9369091987609863,-4.4097900390625,-1.220703125,-0.2288818359375
0.3662499,9.516951560974121,-1.1228805780410767,-1.9321208000183105,-4.5013427734375,-0.9918212890625,-0.3509521484375
0.3687499,9.50737476348877,-1.1276689767837524,-1.9321208000183105,-4.5318603515625,-0.9307861328125,-0.335693359375
0.3712499,9.488221168518066,-1.1468225717544556,-1.944091796875,-4.4708251953125,-0.91552734375,-0.4119873046875
0.3737499,9.47146224975586,-1.1755530834197998,-1.9584569931030273,-4.2572021484375,-0.9002685546875,-0.42724609375
0.3762499,9.44752025604248,-1.213860273361206,-1.9752163887023926,-4.4097900390625,-0.885009765625,-0.6103515625
0.37874990000000003,9.433155059814453,-1.2473790645599365,-1.9919757843017578,-4.3792724609375,-0.7476806640625,-0.48828125
0.38124990000000003,9.41639518737793,-1.278503656387329,-2.0015525817871094,-4.5166015625,-0.762939453125,-0.4425048828125
0.38374990000000003,9.411606788635254,-1.2880805730819702,-2.011129379272461,-4.6539306640625,-0.701904296875,-0.48828125
0.38624990000000003,9.404424667358398,-1.2856862545013428,-2.0231003761291504,-4.730224609375,-0.6561279296875,-0.5340576171875
0.38874990000000004,9.404424667358398,-1.2761094570159912,-2.030282974243164,-5.0048828125,-0.5950927734375,-0.5340576171875
0.39124990000000004,9.402029991149902,-1.2665326595306396,-2.03507137298584,-5.1116943359375,-0.6561279296875,-0.640869140625
0.39374990000000004,9.404424667358398,-1.2737152576446533,-2.030282974243164,-5.126953125,-0.335693359375,-0.579833984375
0.39624990000000004,9.409213066101074,-1.2856862545013428,-2.0159177780151367,-4.8828125,-0.396728515625,-0.6256103515625
0.39874990000000005,9.41639518737793,-1.3048399686813354,-1.9943699836730957,-4.638671875,-0.579833984375,-0.8392333984375
0.40124990000000005,9.425971984863281,-1.3239935636520386,-1.9776105880737305,-4.364013671875,-0.3662109375,-0.8697509765625
0.40374990000000005,9.425971984863281,-1.3311761617660522,-1.965639591217041,-4.3792724609375,-0.30517578125,-0.823974609375
0.40624990000000005,9.418789863586426,-1.3407529592514038,-1.9632453918457031,-4.2266845703125,-0.091552734375,-1.007080078125
0.40874990000000005,9.41639518737793,-1.3455413579940796,-1.9608511924743652,-4.08935546875,-0.1068115234375,-1.2359619140625
0.41124990000000006,9.421183586120605,-1.357512354850769,-1.9536685943603516,-4.302978515625,-0.06103515625,-1.5411376953125
0.41374990000000006,9.435548782348633,-1.359906554222107,-1.9512743949890137,-4.1351318359375,-0.0457763671875,-1.5106201171875
0.41624990000000006,9.459490776062012,-1.3646949529647827,-1.944091796875,-3.814697265625,0.18310546875,-1.6632080078125
0.4187499,9.48343276977539,-1.359906554222107,-1.9488801956176758,-3.90625,-0.0152587890625,-1.861572265625
0.4212499,9.500192642211914,-1.3551181554794312,-1.9560627937316895,-3.6468505859375,-0.1220703125,-1.8768310546875
0.4237499,9.512163162231445,-1.3455413579940796,-1.965639591217041,-3.6773681640625,-0.2288818359375,-2.0751953125
0.4262499,9.521739959716797,-1.3431471586227417,-1.9800047874450684,-3.4942626953125,-0.0152587890625,-2.0294189453125
0.4287499,9.526528358459473,-1.335964560508728,-1.9847931861877441,-3.265380859375,-0.06103515625,-2.13623046875
0.4312499,9.533711433410645,-1.3239935636520386,-1.98958158493042,-3.173828125,-0.1373291015625,-2.2125244140625
0.4337499,9.536105155944824,-1.3072341680526733,-1.987187385559082,-2.9449462890625,-0.2288818359375,-2.1514892578125
0.4362499,9.53849983215332,-1.278503656387329,-1.9847931861877441,-2.7313232421875,-0.2288818359375,-2.0294189453125
0.4387499,9.53849983215332,-1.2473790645599365,-1.9800047874450684,-2.899169921875,-0.1068115234375,-1.9378662109375
0.44124990000000003,9.536105155944824,-1.2114660739898682,-1.9776105880737305,-2.7008056640625,-0.1983642578125,-1.9989013671875
0.44374990000000003,9.543288230895996,-1.1755530834197998,-1.9728221893310547,-2.3956298828125,-0.1068115234375,-1.7547607421875
0.44624990000000003,9.545681953430176,-1.1444283723831177,-1.9704279899597168,-2.6092529296875,-0.06103515625,-1.4190673828125
0.44874990000000003,9.550470352172852,-1.1228805780410767,-1.9728221893310547,-2.50244140625,-0.30517578125,-1.3427734375
0.45124990000000004,9.555258750915527,-1.113303780555725,-1.9752163887023926,-2.3651123046875,-0.18310546875,-1.220703125
0.45374990000000004,9.564835548400879,-1.1085153818130493,-1.987187385559082,-2.197265625,-0.30517578125,-0.946044921875
0.45624990000000004,9.579200744628906,-1.1109095811843872,-2.0015525817871094,-2.044677734375,-0.244140625,-0.7476806640625
0.45874990000000004,9.59596061706543,-1.1061211824417114,-2.013523578643799,-2.25830078125,-0.518798828125,-0.732421875
0.46124990000000005,9.607931137084961,-1.0965443849563599,-2.0207061767578125,-2.288818359375,-0.79345703125,-0.54931640625
0.46374990000000005,9.607931137084961,-1.0821791887283325,-2.0231003761291504,-2.7313232421875,-0.7476806640625,-0.457763671875
0.46624990000000005,9.600749015808105,-1.0630255937576294,-2.0254945755004883,-3.0517578125,-0.54931640625,-0.18310546875
0.46874990000000005,9.588777542114258,-1.039083480834961,-2.0254945755004883,-3.2196044921875,-0.640869140625,-0.1220703125
0.47124990000000005,9.579200744628906,-1.01753568649292,-2.030282974243164,-3.387451171875,-0.7171630859375,0.152587890625
0.47374990000000006,9.569623947143555,-0.9959878921508789,-2.027888774871826,-3.448486328125,-0.67138671875,0.3509521484375
0.47624990000000006,9.567230224609375,-0.9792284965515137,-2.027888774871826,-3.3721923828125,-0.79345703125,0.3814697265625
0.47874990000000006,9.57201862335205,-0.9672574996948242,-2.0231003761291504,-3.570556640625,-0.7476806640625,0.274658203125
0.4812499,9.57201862335205,-0.9624691009521484,-2.0231003761291504,-3.7689208984375,-0.9765625,0.274658203125
0.4837499,9.576807022094727,-0.9624691009521484,-2.0207061767578125,-3.875732421875,-1.129150390625,0.5950927734375
0.4862499,9.57201862335205,-0.9672574996948242,-2.0159177780151367,-3.936767578125,-0.9307861328125,0.48828125
0.4887499,9.564835548400879,-0.9744400978088379,-2.006340980529785,-3.997802734375,-1.190185546875,0.701904296875
0.4912499,9.560047149658203,-0.9864110946655273,-1.9967641830444336,-4.2266845703125,-1.1444091796875,0.8544921875
0.4937499,9.550470352172852,-1.0103530883789062,-1.98958158493042,-4.33349609375,-1.03759765625,0.823974609375
0.4962499,9.550470352172852,-1.0462661981582642,-1.98958158493042,-4.2724609375,-1.1444091796875,0.9307861328125
0.4987499,9.548076629638672,-1.0893617868423462,-1.987187385559082,-4.4708251953125,-1.220703125,0.9002685546875
0.5012499,9.543288230895996,-1.1348515748977661,-1.98958158493042,-4.39453125,-1.2969970703125,1.03759765625
0.5037499000000001,9.536105155944824,-1.1851298809051514,-1.987187385559082,-4.5013427734375,-1.3580322265625,1.068115234375
0.5062499,9.524134635925293,-1.2258312702178955,-1.987187385559082,-4.7760009765625,-1.2664794921875,0.9765625
0.5087499000000001,9.512163162231445,-1.2617442607879639,-1.9800047874450684,-4.8065185546875,-1.2969970703125,0.91552734375
0.5112499,9.502586364746094,-1.2880805730819702,-1.9728221893310547,-4.791259765625,-1.3580322265625,0.9002685546875
0.5137499,9.490615844726562,-1.3024457693099976,-1.965639591217041,-4.82177734375,-1.15966796875,0.885009765625
0.5162499,9.481039047241211,-1.3096283674240112,-1.9584569931030273,-4.94384765625,-1.1138916015625,0.732421875
0.5187499,9.469067573547363,-1.3096283674240112,-1.9560627937316895,-4.5623779296875,-1.28173828125,0.6256103515625
0.5212499,9.464279174804688,-1.3000515699386597,-1.9584569931030273,-4.1351318359375,-1.4190673828125,0.54931640625
0.5237499,9.466673851013184,-1.2952631711959839,-1.9584569931030273,-4.2877197265625,-1.373291015625,0.4425048828125
0.5262499,9.48343276977539,-1.2952631711959839,-1.9632453918457031,-4.119873046875,-1.2969970703125,0.54931640625
0.5287499,9.500192642211914,-1.3024457693099976,-1.9584569931030273,-3.6773681640625,-1.5411376953125,0.30517578125
0.5312499,9.519346237182617,-1.314416766166687,-1.9488801956176758,-3.448486328125,-1.495361328125,0.244140625
0.5337499,9.526528358459473,-1.3239935636520386,-1.944091796875,-3.2806396484375,-1.52587890625,0.274658203125
0.5362499000000001,9.528923034667969,-1.335964560508728,-1.9297266006469727,-3.23486328125,-1.52587890625,-0.0152587890625
0.5387499,9.524134635925293,-1.3479355573654175,-1.922544002532959,-3.021240234375,-1.4495849609375,-0.1220703125
0.5412499000000001,9.516951560974121,-1.3646949529647827,-1.9129672050476074,-2.99072265625,-1.3275146484375,0
0.5437499,9.50737476348877,-1.3838485479354858,-1.9057846069335938,-2.5787353515625,-1.6937255859375,0.06103515625
0.5462499000000001,9.495404243469238,-1.3958195447921753,-1.9033904075622559,-2.2735595703125,-1.6632080078125,-0.1068115234375
0.5487499,9.481039047241211,-1.400607943534851,-1.8986018896102905,-2.1514892578125,-1.678466796875,0.18310546875
0.5512499000000001,9.461885452270508,-1.3886369466781616,-1.8962076902389526,-2.166748046875,-1.5716552734375,0.152587890625
0.5537499,9.442731857299805,-1.3694833517074585,-1.8914192914962769,-2.0294189453125,-1.2664794921875,-0.030517578125
0.5562499000000001,9.423578262329102,-1.335964560508728,-1.889025092124939,-2.0904541015625,-1.3580322265625,-0.1373291015625
0.5587499,9.411606788635254,-1.2976573705673218,-1.889025092124939,-2.0904541015625,-1.434326171875,-0.3204345703125
0.5612499000000001,9.409213066101074,-1.259350061416626,-1.8914192914962769,-1.983642578125,-1.312255859375,-0.3204345703125
0.5637499,9.411606788635254,-1.2186486721038818,-1.889025092124939,-1.861572265625,-1.28173828125,-0.42724609375
0.5662499000000001,9.423578262329102,-1.1827356815338135,-1.889025092124939,-1.5716552734375,-1.4190673828125,-0.48828125
0.5687499,9.430760383605957,-1.1492167711257935,-1.8842366933822632,-1.46484375,-1.220703125,-0.6561279296875
0.5712499000000001,9.442731857299805,-1.1228805780410767,-1.8818424940109253,-1.4495849609375,-0.946044921875,-0.67138671875
0.5737499,9.442731857299805,-1.1109095811843872,-1.8818424940109253,-1.312255859375,-1.1444091796875,-0.9613037109375
0.5762499000000001,9.442731857299805,-1.1037269830703735,-1.886630892753601,-1.0986328125,-1.251220703125,-0.8697509765625
0.5787499,9.437943458557129,-1.1013327836990356,-1.889025092124939,-1.0528564453125,-1.220703125,-0.823974609375
0.5812499,9.433155059814453,-1.1109095811843872,-1.8986018896102905,-1.0986328125,-1.2359619140625,-0.732421875
0.5837499,9.428366661071777,-1.1180921792984009,-1.900996208190918,-1.3427734375,-1.3427734375,-0.6256103515625
0.5862499,9.423578262329102,-1.1324573755264282,-1.9057846069335938,-1.190185546875,-1.1138916015625,-0.6103515625
0.5887499,9.41639518737793,-1.1540051698684692,-1.9033904075622559,-1.3427734375,-0.8697509765625,-0.6866455078125
0.5912499,9.411606788635254,-1.1755530834197998,-1.9033904075622559,-1.220703125,-1.0833740234375,-0.4730224609375
0.5937499,9.402029991149902,-1.194706678390503,-1.8986018896102905,-0.91552734375,-1.03759765625,-0.42724609375
0.5962499,9.397241592407227,-1.2066776752471924,-1.900996208190918,-0.91552734375,-0.9765625,-0.3204345703125
0.5987499000000001,9.385271072387695,-1.2090718746185303,-1.9057846069335938,-1.1138916015625,-1.007080078125,-0.1678466796875
0.6012499,9.38048267364502,-1.2018892765045166,-1.9081788063049316,-1.129150390625,-0.9765625,0.091552734375
0.6037499000000001,9.375694274902344,-1.192312479019165,-1.9057846069335938,-1.251220703125,-0.8392333984375,-0.030517578125
0.6062499,9.373299598693848,-1.1755530834197998,-1.9033904075622559,-1.4495849609375,-0.732421875,0.0457763671875
0.6087499000000001,9.375694274902344,-1.1635819673538208,-1.8962076902389526,-1.15966796875,-0.8392333984375,0.3662109375
0.6112499,9.38048267364502,-1.1444283723831177,-1.889025092124939,-1.1444091796875,-0.946044921875,0.2899169921875
0.6137499000000001,9.385271072387695,-1.1252747774124146,-1.8842366933822632,-1.1444091796875,-0.9002685546875,0.1220703125
0.6162499,9.3828763961792,-1.1037269830703735,-1.8794482946395874,-1.1749267578125,-0.91552734375,0.1068115234375
0.6187499000000001,9.378087997436523,-1.0797849893569946,-1.8818424940109253,-1.1138916015625,-0.701904296875,0.3814697265625
0.6212499,9.370905876159668,-1.0606313943862915,-1.8842366933822632,-1.068115234375,-0.8392333984375,0.5035400390625
0.6237499000000001,9.368511199951172,-1.05105459690094,-1.8914192914962769,-0.91552734375,-0.823974609375,0.5950927734375
0.6262499,9.373299598693848,-1.0534487962722778,-1.8914192914962769,-0.9307861328125,-0.7781982421875,0.1983642578125
0.6287499000000001,9.385271072387695,-1.072602391242981,-1.889025092124939,-0.7476806640625,-0.762939453125,0.2899169921875
0.6312499,9.402029991149902,-1.1061211824417114,-1.8842366933822632,-0.67138671875,-0.6561279296875,0.2899169921875
0.6337499000000001,9.41639518737793,-1.139639973640442,-1.8794482946395874,-0.6256103515625,-0.732421875,0.3509521484375
0.6362499,9.428366661071777,-1.170764684677124,-1.8794482946395874,-0.6866455078125,-0.6561279296875,0.48828125
0.6387499000000001,9.437943458557129,-1.1899182796478271,-1.8794482946395874,-0.885009765625,-0.67138671875,0.640869140625
0.6412499,9.442731857299805,-1.1899182796478271,-1.8794482946395874,-0.8697509765625,-0.67138671875,0.67138671875
0.6437499,9.44752025604248,-1.1779472827911377,-1.8818424940109253,-0.8087158203125,-0.67138671875,0.7781982421875
0.6462499,9.445125579833984,-1.1563993692398071,-1.886630892753601,-0.8544921875,-0.48828125,0.9765625
0.6487499,9.445125579833984,-1.1276689767837524,-1.8914192914962769,-0.6103515625,-0.6256103515625,1.0528564453125
0.6512499,9.435548782348633,-1.1109095811843872,-1.8938134908676147,-0.67138671875,-0.6561279296875,1.0986328125
0.6537499,9.430760383605957,-1.1013327836990356,-1.8938134908676147,-0.6561279296875,-0.7781982421875,1.1749267578125
0.6562499,9.433155059814453,-1.1109095811843872,-1.8938134908676147,-0.335693359375,-0.7171630859375,1.068115234375
0.6587499,9.442731857299805,-1.1300631761550903,-1.886630892753601,-0.3662109375,-0.885009765625,1.251220703125
0.6612499000000001,9.461885452270508,-1.1492167711257935,-1.8818424940109253,-0.1678466796875,-0.9613037109375,1.251220703125
0.6637499,9.478644371032715,-1.1683704853057861,-1.8794482946395874,-0.335693359375,-0.9613037109375,1.15966796875
0.6662499000000001,9.502586364746094,-1.170764684677124,-1.8722656965255737,-0.3204345703125,-1.0986328125,1.5106201171875
0.6687499,9.502586364746094,-1.170764684677124,-1.8722656965255737,-0.3204345703125,-1.0986328125,1.5106201171875
0.6712499000000001,9.514557838439941,-1.1516109704971313,-1.8842366933822632,-0.091552734375,-1.0986328125,1.556396484375
0.6737499,9.514557838439941,-1.1516109704971313,-1.8842366933822632,-0.091552734375,-1.0986328125,1.556396484375
0.6762499000000001,9.516951560974121,-1.161187767982483,-1.8962076902389526,0.3509521484375,-1.1749267578125,1.953125
0.6787499,9.516951560974121,-1.161187767982483,-1.8962076902389526,0.3509521484375,-1.1749267578125,1.953125
0.6812499000000001,9.50498104095459,-1.1994950771331787,-1.8938134908676147,0.7781982421875,-1.1749267578125,1.708984375
0.6837499,9.50498104095459,-1.1994950771331787,-1.8938134908676147,0.7781982421875,-1.1749267578125,1.708984375
0.6862499000000001,9.502586364746094,-1.2114660739898682,-1.9081788063049316,0.8087158203125,-1.2969970703125,1.800537109375
0.6887499,9.502586364746094,-1.2114660739898682,-1.9081788063049316,0.8087158203125,-1.2969970703125,1.800537109375
0.6912499000000001,9.50737476348877,-1.1851298809051514,-1.9369091987609863,0.946044921875,-1.373291015625,2.105712890625
0.6937499,9.50737476348877,-1.1851298809051514,-1.9369091987609863,0.946044921875,-1.373291015625,2.105712890625
0.6962499000000001,9.512163162231445,-1.1444283723831177,-1.9608511924743652,1.4190673828125,-1.251220703125,1.77001953125
0.6987499,9.512163162231445,-1.1444283723831177,-1.9608511924743652,1.4190673828125,-1.251220703125,1.77001953125
0.7012499000000001,9.519346237182617,-1.1324573755264282,-1.9752163887023926,1.922607421875,-1.312255859375,1.5411376953125
0.7037499,9.519346237182617,-1.1324573755264282,-1.9752163887023926,1.922607421875,-1.312255859375,1.5411376953125
0.7062499,9.536105155944824,-1.1899182796478271,-1.98958158493042,2.1820068359375,-1.77001953125,1.678466796875
0.7087499,9.536105155944824,-1.1899182796478271,-1.98958158493042,2.1820068359375,-1.77001953125,1.678466796875
0.7112499,9.53849983215332,-1.278503656387329,-2.0183119773864746,2.3345947265625,-1.922607421875,1.9989013671875
0.7137499,9.53849983215332,-1.278503656387329,-2.0183119773864746,2.3345947265625,-1.922607421875,1.9989013671875
0.7162499,9.514557838439941,-1.3215993642807007,-2.051830768585205,2.0751953125,-1.983642578125,1.7547607421875
0.7187499,9.514557838439941,-1.3215993642807007,-2.051830768585205,2.0751953125,-1.983642578125,1.7547607421875
0.7212499,9.502586364746094,-1.2856862545013428,-2.0853497982025146,1.2664794921875,-1.617431640625,1.64794921875
0.7237499000000001,9.502586364746094,-1.2856862545013428,-2.0853497982025146,1.2664794921875,-1.617431640625,1.64794921875
0.7262499,9.516951560974121,-1.1994950771331787,-2.1140801906585693,1.220703125,-1.8768310546875,1.1749267578125
0.7287499000000001,9.516951560974121,-1.1994950771331787,-2.1140801906585693,1.220703125,-1.8768310546875,1.1749267578125
0.7312499,9.552865028381348,-1.1013327836990356,-2.121262788772583,1.220703125,-1.9378662109375,0.8087158203125
0.7337499000000001,9.552865028381348,-1.1013327836990356,-2.121262788772583,1.220703125,-1.9378662109375,0.8087158203125
0.7362499,9.605537414550781,-1.0342950820922852,-2.1092917919158936,1.0528564453125,-1.9073486328125,0.3509521484375
0.7387499000000001,9.605537414550781,-1.0342950820922852,-2.1092917919158936,1.0528564453125,-1.9073486328125,0.3509521484375
0.7412499,9.66539192199707,-1.0271124839782715,-2.0877439975738525,0.54931640625,-1.6021728515625,-0.152587890625
0.7437499000000001,9.66539192199707,-1.0271124839782715,-2.0877439975738525,0.54931640625,-1.6021728515625,-0.152587890625
0.7462499,9.694122314453125,-1.0606313943862915,-2.0805611610412598,0.6256103515625,-1.434326171875,-0.06103515625
0.7487499000000001,9.694122314453125,-1.0606313943862915,-2.0805611610412598,0.6256103515625,-1.434326171875,-0.06103515625
0.7512499,9.68694019317627,-1.0869675874710083,-2.0901381969451904,0.091552734375,-1.251220703125,-0.2288818359375
0.7537499000000001,9.68694019317627,-1.0869675874710083,-2.0901381969451904,0.091552734375,-1.251220703125,-0.2288818359375
0.7562499,9.672574996948242,-1.072602391242981,-2.1045033931732178,-0.4119873046875,-1.1444091796875,-0.2593994140625
0.7587499000000001,9.672574996948242,-1.072602391242981,-2.1045033931732178,-0.4119873046875,-1.1444091796875,-0.2593994140625
0.7612499,9.684545516967773,-1.039083480834961,-2.1116859912872314,-0.54931640625,-1.1749267578125,0.06103515625
0.7637499000000001,9.684545516967773,-1.039083480834961,-2.1116859912872314,-0.54931640625,-1.1749267578125,0.06103515625
0.7662499,9.710882186889648,-1.0223240852355957,-2.1140801906585693,-0.7781982421875,-0.8697509765625,-0.3509521484375
0.7687499000000001,9.710882186889648,-1.0223240852355957,-2.1140801906585693,-0.7781982421875,-0.8697509765625,-0.3509521484375
0.7712499,9.72285270690918,-1.0223240852355957,-2.1116859912872314,-1.2359619140625,-0.518798828125,-0.335693359375
0.7737499,9.72285270690918,-1.0223240852355957,-2.1116859912872314,-1.2359619140625,-0.518798828125,-0.335693359375
0.7762499,9.713275909423828,-1.0223240852355957,-2.1068975925445557,-1.373291015625,-0.4119873046875,-0.6866455078125
0.7787499,9.713275909423828,-1.0223240852355957,-2.1068975925445557,-1.373291015625,-0.4119873046875,-0.6866455078125
0.7812499,9.684545516967773,-1.0079588890075684,-2.0853497982025146,-1.6021728515625,-0.30517578125,-0.4730224609375
0.7837499,9.684545516967773,-1.0079588890075684,-2.0853497982025146,-1.6021728515625,-0.30517578125,-0.4730224609375
0.7862499000000001,9.646238327026367,-0.9959878921508789,-2.0590133666992188,-1.46484375,-0.42724609375,-0.640869140625
0.7887499,9.646238327026367,-0.9959878921508789,-2.0590133666992188,-1.46484375,-0.42724609375,-0.640869140625
0.7912499000000001,9.617507934570312,-1.0127472877502441,-2.032677173614502,-1.5106201171875,-0.4119873046875,-0.8697509765625
0.7937499,9.617507934570312,-1.0127472877502441,-2.032677173614502,-1.5106201171875,-0.4119873046875,-0.8697509765625
0.7962499000000001,9.603142738342285,-1.0462661981582642,-2.0159177780151367,-1.64794921875,-0.30517578125,-0.8544921875
0.7987499,9.603142738342285,-1.0462661981582642,-2.0159177780151367,-1.64794921875,-0.30517578125,-0.8544921875
0.8012499000000001,9.593565940856934,-1.072602391242981,-2.011129379272461,-1.9378662109375,-0.3509521484375,-0.91552734375
0.8037499,9.593565940856934,-1.072602391242981,-2.011129379272461,-1.9378662109375,-0.3509521484375,-0.91552734375
0.8062499000000001,9.57441234588623,-1.0821791887283325,-2.013523578643799,-1.6937255859375,-0.2288818359375,-0.732421875
0.8087499,9.57441234588623,-1.0821791887283325,-2.013523578643799,-1.6937255859375,-0.2288818359375,-0.732421875
0.8112499000000001,9.550470352172852,-1.072602391242981,-2.006340980529785,-1.6632080078125,-0.335693359375,-0.823974609375
0.8137499,9.550470352172852,-1.072602391242981,-2.006340980529785,-1.6632080078125,-0.335693359375,-0.823974609375
0.8162499000000001,9.533711433410645,-1.0654197931289673,-1.9800047874450684,-1.5411376953125,-0.244140625,-0.7781982421875
0.8187499,9.533711433410645,-1.0654197931289673,-1.9800047874450684,-1.5411376953125,-0.244140625,-0.7781982421875
0.8212499000000001,9.524134635925293,-1.0893617868423462,-1.9488801956176758,-1.5716552734375,-0.54931640625,-0.8392333984375
0.8237499,9.524134635925293,-1.0893617868423462,-1.9488801956176758,-1.5716552734375,-0.54931640625,-0.8392333984375
0.8262499000000001,9.524134635925293,-1.1109095811843872,-1.9321208000183105,-1.64794921875,-0.4730224609375,-0.946044921875
0.8287499,9.524134635925293,-1.1109095811843872,-1.9321208000183105,-1.64794921875,-0.4730224609375,-0.946044921875
0.8312499000000001,9.526528358459473,-1.113303780555725,-1.9249382019042969,-1.28173828125,-0.7171630859375,-0.8087158203125
0.8337499,9.526528358459473,-1.113303780555725,-1.9249382019042969,-1.28173828125,-0.7171630859375,-0.8087158203125
0.8362499,9.514557838439941,-1.1252747774124146,-1.9057846069335938,-1.251220703125,-0.6561279296875,-0.7171630859375
0.8387499,9.514557838439941,-1.1252747774124146,-1.9057846069335938,-1.251220703125,-0.6561279296875,-0.7171630859375
0.8412499,9.495404243469238,-1.1492167711257935,-1.8746598958969116,-0.640869140625,-0.9307861328125,-0.7781982421875
0.8437499,9.488221168518066,-1.1563993692398071,-1.86508309841156,-0.54931640625,-0.8697509765625,-0.9307861328125
0.8462499,9.490615844726562,-1.158793568611145,-1.8602946996688843,-0.4119873046875,-0.762939453125,-0.8087158203125
0.8487499000000001,9.493009567260742,-1.1635819673538208,-1.8602946996688843,-0.48828125,-0.9765625,-0.823974609375
0.8512499,9.502586364746094,-1.1563993692398071,-1.8626888990402222,-0.640869140625,-0.8697509765625,-1.0986328125
0.8537499000000001,9.50737476348877,-1.1516109704971313,-1.86508309841156,-0.396728515625,-0.79345703125,-0.9002685546875
0.8562499,9.50737476348877,-1.1468225717544556,-1.8722656965255737,-0.3204345703125,-0.946044921875,-0.91552734375
0.8587499000000001,9.500192642211914,-1.1492167711257935,-1.8770540952682495,0.0762939453125,-0.946044921875,-1.0223388671875
0.8612499,9.485827445983887,-1.158793568611145,-1.886630892753601,0.335693359375,-1.0223388671875,-1.007080078125
0.8637499000000001,9.473855972290039,-1.1827356815338135,-1.8962076902389526,0.244140625,-1.1444091796875,-1.1138916015625
0.8662499,9.47146224975586,-1.216254472732544,-1.900996208190918,0.335693359375,-1.1749267578125,-1.1444091796875
0.8687499000000001,9.469067573547363,-1.2665326595306396,-1.9081788063049316,0.5950927734375,-1.28173828125,-0.9918212890625
0.8712499,9.473855972290039,-1.3192051649093628,-1.9105730056762695,0.640869140625,-1.3885498046875,-1.15966796875
0.8737499000000001,9.481039047241211,-1.3623007535934448,-1.9129672050476074,0.4119873046875,-1.4801025390625,-1.1138916015625
0.8762499,9.481039047241211,-1.3910311460494995,-1.922544002532959,0.579833984375,-1.3580322265625,-0.8697509765625
0.8787499000000001,9.485827445983887,-1.3958195447921753,-1.9297266006469727,0.335693359375,-1.28173828125,-1.03759765625
0.8812499,9.488221168518066,-1.3862427473068237,-1.9369091987609863,0.0457763671875,-1.3275146484375,-1.15966796875
0.8837499000000001,9.488221168518066,-1.3623007535934448,-1.9393033981323242,-0.06103515625,-1.46484375,-1.1444091796875
0.8862499,9.500192642211914,-1.3263877630233765,-1.941697597503662,0.091552734375,-1.220703125,-1.3275146484375
0.8887499000000001,9.502586364746094,-1.2832920551300049,-1.9393033981323242,0.3509521484375,-1.1749267578125,-1.495361328125
0.8912499,9.509769439697266,-1.235408067703247,-1.9393033981323242,0.5340576171875,-1.1749267578125,-1.8768310546875
0.8937499000000001,9.512163162231445,-1.194706678390503,-1.941697597503662,0.5340576171875,-1.068115234375,-1.8157958984375
0.8962499,9.514557838439941,-1.1659762859344482,-1.941697597503662,0.6866455078125,-1.068115234375,-2.1209716796875
0.8987499,9.516951560974121,-1.1492167711257935,-1.946485996246338,0.7476806640625,-0.8544921875,-2.1514892578125
0.9012499,9.524134635925293,-1.1492167711257935,-1.9512743949890137,0.9613037109375,-0.8544921875,-2.1514892578125
0.9037499,9.533711433410645,-1.1516109704971313,-1.9608511924743652,1.03759765625,-0.8392333984375,-2.685546875
0.9062499,9.5408935546875,-1.1563993692398071,-1.9704279899597168,1.3427734375,-0.79345703125,-2.685546875
0.9087499,9.536105155944824,-1.158793568611145,-1.9800047874450684,1.3275146484375,-0.5340576171875,-2.532958984375
0.9112499000000001,9.524134635925293,-1.1563993692398071,-1.9847931861877441,1.2969970703125,-0.7171630859375,-2.197265625
0.9137499,9.50737476348877,-1.1516109704971313,-1.98958158493042,1.4495849609375,-0.3814697265625,-2.0751953125
0.9162499000000001,9.497797966003418,-1.1420341730117798,-1.9919757843017578,1.3275146484375,-0.2899169921875,-2.3345947265625
0.9187499,9.493009567260742,-1.1300631761550903,-2.0015525817871094,1.2054443359375,-0.2288818359375,-2.227783203125
0.9212499000000001,9.493009567260742,-1.1085153818130493,-2.006340980529785,1.434326171875,-0.030517578125,-2.044677734375
0.9237499,9.497797966003418,-1.0869675874710083,-2.006340980529785,1.220703125,-0.0152587890625,-2.0751953125
0.9262499000000001,9.497797966003418,-1.0582371950149536,-2.008735179901123,1.0986328125,0.06103515625,-2.0599365234375
0.9287499,9.502586364746094,-1.0342950820922852,-2.0039467811584473,1.312255859375,0.1983642578125,-2.01416015625
0.9312499000000001,9.502586364746094,-1.0055646896362305,-2.0039467811584473,1.1138916015625,0.2593994140625,-1.9683837890625
0.9337499,9.50498104095459,-0.9864110946655273,-2.006340980529785,1.0833740234375,0.244140625,-1.89208984375
0.9362499000000001,9.50498104095459,-0.9672574996948242,-2.006340980529785,0.9002685546875,0.579833984375,-2.044677734375
0.9387499,9.50498104095459,-0.950498104095459,-2.006340980529785,0.396728515625,0.518798828125,-2.0599365234375
0.9412499000000001,9.502586364746094,-0.9385270476341248,-2.008735179901123,0.42724609375,0.4119873046875,-1.8768310546875
0.9437499,9.497797966003418,-0.9241618514060974,-2.0039467811584473,0.6103515625,0.518798828125,-1.8157958984375
0.9462499000000001,9.495404243469238,-0.9169792532920837,-2.0039467811584473,0.396728515625,0.42724609375,-1.89208984375
0.9487499,9.493009567260742,-0.9074024558067322,-1.9967641830444336,0.3814697265625,0.3814697265625,-1.8463134765625
0.9512499000000001,9.488221168518066,-0.9074024558067322,-1.9919757843017578,0.457763671875,0.3509521484375,-1.64794921875
0.9537499,9.488221168518066,-0.9074024558067322,-1.9800047874450684,0.5340576171875,0.3814697265625,-1.7547607421875
0.9562499000000001,9.490615844726562,-0.9193734526634216,-1.9728221893310547,0.3204345703125,0.5035400390625,-1.6937255859375
0.9587499,9.497797966003418,-0.9433154463768005,-1.965639591217041,0.1678466796875,0.42724609375,-1.495361328125
0.9612499,9.50498104095459,-0.9816226959228516,-1.9608511924743652,0.091552734375,0.54931640625,-1.2359619140625
0.9637499,9.512163162231445,-1.0342950820922852,-1.9584569931030273,0.335693359375,0.4425048828125,-1.15966796875
0.9662499,9.516951560974121,-1.0869675874710083,-1.9584569931030273,0.213623046875,0.30517578125,-1.0833740234375
0.9687499,9.516951560974121,-1.1348515748977661,-1.9584569931030273,-0.030517578125,0.3662109375,-0.885009765625
0.9712499,9.50737476348877,-1.170764684677124,-1.9560627937316895,-0.213623046875,0.5645751953125,-0.7781982421875
0.9737499000000001,9.500192642211914,-1.1899182796478271,-1.9512743949890137,-0.4425048828125,0.244140625,-0.579833984375
0.9762499,9.488221168518066,-1.1899182796478271,-1.941697597503662,-0.3814697265625,0.1373291015625,-0.42724609375
0.9787499000000001,9.48343276977539,-1.1755530834197998,-1.9321208000183105,-0.48828125,0.396728515625,-0.5645751953125
0.9812499,9.478644371032715,-1.1516109704971313,-1.9249382019042969,-0.5035400390625,0.3662109375,-0.9002685546875
0.9837499000000001,9.481039047241211,-1.1252747774124146,-1.9177556037902832,-0.1983642578125,0.4730224609375,-1.007080078125
0.9862499,9.481039047241211,-1.1037269830703735,-1.9033904075622559,0.213623046875,0.213623046875,-0.79345703125
0.9887499000000001,9.488221168518066,-1.0989385843276978,-1.8938134908676147,0.4119873046875,0.1220703125,-1.03759765625
0.9912499,9.500192642211914,-1.1109095811843872,-1.8818424940109253,0.5340576171875,0.06103515625,-0.79345703125
0.9937499000000001,9.516951560974121,-1.139639973640442,-1.8818424940109253,0.8697509765625,-0.0152587890625,-1.129150390625
0.9962499,9.536105155944824,-1.1779472827911377,-1.886630892753601,1.2664794921875,0.0457763671875,-1.03759765625
0.9987499000000001,9.548076629638672,-1.2186486721038818,-1.8938134908676147,1.3275146484375,0.0762939453125,-1.0833740234375
1.0012499,9.555258750915527,-1.2545616626739502,-1.8986018896102905,1.3427734375,0.0152587890625,-1.190185546875
1.0037498999999999,9.548076629638672,-1.2737152576446533,-1.9033904075622559,1.3885498046875,0.0152587890625,-0.9307861328125
1.0062499,9.528923034667969,-1.2832920551300049,-1.9057846069335938,1.556396484375,0.030517578125,-0.8544921875
1.0087499,9.50737476348877,-1.278503656387329,-1.9105730056762695,1.6326904296875,0.091552734375,-0.91552734375
1.0112499,9.481039047241211,-1.2617442607879639,-1.9153614044189453,1.7547607421875,0.2288818359375,-0.7476806640625
1.0137498999999999,9.466673851013184,-1.2330138683319092,-1.9249382019042969,1.7547607421875,0.091552734375,-0.8544921875
1.0162499,9.457097053527832,-1.1971008777618408,-1.9369091987609863,1.9989013671875,0.091552734375,-0.79345703125
1.0187499,9.457097053527832,-1.161187767982483,-1.946485996246338,2.349853515625,0.1983642578125,-0.732421875
1.0212499,9.47146224975586,-1.1300631761550903,-1.9584569931030273,2.3956298828125,0.1068115234375,-0.7171630859375
1.0237498999999999,9.493009567260742,-1.113303780555725,-1.9632453918457031,2.2735595703125,0.0152587890625,-0.8697509765625
1.0262498999999998,9.514557838439941,-1.1061211824417114,-1.968033790588379,2.4566650390625,0.152587890625,-0.8697509765625
1.0287499,9.536105155944824,-1.1061211824417114,-1.9752163887023926,2.6092529296875,0.213623046875,-0.946044921875
1.0312499,9.550470352172852,-1.1109095811843872,-1.9847931861877441,2.716064453125,0.0762939453125,-0.823974609375
1.0337498999999999,9.550470352172852,-1.1109095811843872,-1.9991583824157715,2.4566650390625,-0.1220703125,-0.8697509765625
1.0362498999999998,9.5408935546875,-1.1085153818130493,-2.013523578643799,2.197265625,0.2288818359375,-0.762939453125
1.0387499,9.521739959716797,-1.094150185585022,-2.0231003761291504,2.0904541015625,0.0457763671875,-0.7476806640625
1.0412499,9.502586364746094,-1.0773907899856567,-2.027888774871826,1.800537109375,0.1220703125,-0.6866455078125
1.0437499,9.488221168518066,-1.05105459690094,-2.027888774871826,1.678466796875,0.2288818359375,-0.6256103515625
1.0462498999999998,9.488221168518066,-1.0247182846069336,-2.0231003761291504,1.7547607421875,0.244140625,-0.7171630859375
1.0487499,9.490615844726562,-1.0007762908935547,-2.0207061767578125,1.6326904296875,0.30517578125,-0.5950927734375
1.0512499,9.509769439697266,-0.9911994934082031,-2.0159177780151367,1.678466796875,0.1373291015625,-0.54931640625
1.0537499,9.536105155944824,-1.0007762908935547,-2.013523578643799,1.52587890625,-0.0762939453125,-0.579833984375
1.0562498999999999,9.557653427124023,-1.0295066833496094,-2.006340980529785,1.6937255859375,-0.1373291015625,-0.48828125
1.0587499,9.576807022094727,-1.072602391242981,-1.9991583824157715,1.5106201171875,-0.06103515625,-0.4730224609375
1.0612499,9.576807022094727,-1.1180921792984009,-1.9943699836730957,1.46484375,0.0152587890625,-0.335693359375
1.0637499,9.567230224609375,-1.158793568611145,-1.9943699836730957,1.0833740234375,0,-0.5035400390625
1.0662498999999999,9.548076629638672,-1.1851298809051514,-1.9967641830444336,0.457763671875,0.06103515625,-0.5645751953125
1.0687499,9.521739959716797,-1.194706678390503,-1.9967641830444336,0.2288818359375,0,-0.5645751953125
1.0712499,9.495404243469238,-1.192312479019165,-1.9967641830444336,0.18310546875,0.244140625,-0.6561279296875
1.0737499,9.47146224975586,-1.1755530834197998,-1.9943699836730957,0.1678466796875,0.274658203125,-0.640869140625
1.0762498999999999,9.454702377319336,-1.158793568611145,-1.9919757843017578,0.18310546875,0.1068115234375,-0.6561279296875
1.0787499,9.44991397857666,-1.1324573755264282,-1.9967641830444336,0.4425048828125,0.18310546875,-0.762939453125
1.0812499,9.461885452270508,-1.1085153818130493,-1.9967641830444336,0.4119873046875,0.3204345703125,-1.007080078125
1.0837499,9.48343276977539,-1.091755986213684,-2.0039467811584473,0.48828125,0.1068115234375,-0.946044921875
1.0862498999999999,9.514557838439941,-1.0797849893569946,-2.013523578643799,0.4119873046875,0.1220703125,-1.068115234375
1.0887499,9.536105155944824,-1.0845733880996704,-2.0207061767578125,0.67138671875,0.1220703125,-1.1138916015625
1.0912499,9.548076629638672,-1.0893617868423462,-2.0254945755004883,0.5950927734375,0.06103515625,-1.1749267578125
1.0937499,9.543288230895996,-1.0965443849563599,-2.0254945755004883,0.5950927734375,0.2288818359375,-1.15966796875
1.0962498999999999,9.524134635925293,-1.0965443849563599,-2.0254945755004883,0.946044921875,0.1983642578125,-0.8697509765625
1.0987498999999998,9.50737476348877,-1.0893617868423462,-2.0183119773864746,0.9002685546875,0.1678466796875,-0.8697509765625
1.1012499,9.485827445983887,-1.0749965906143188,-2.0159177780151367,1.0528564453125,0.274658203125,-0.9765625
1.1037499,9.47146224975586,-1.0606313943862915,-2.006340980529785,1.007080078125,0.3509521484375,-0.91552734375
1.1062499,9.466673851013184,-1.0462661981582642,-2.0015525817871094,1.129150390625,0.213623046875,-0.579833984375
1.1087498999999998,9.464279174804688,-1.0462661981582642,-1.9967641830444336,1.0223388671875,0.457763671875,-0.7476806640625
1.1112499,9.473855972290039,-1.048660397529602,-1.9943699836730957,1.0223388671875,0.5645751953125,-0.701904296875
1.1137499,9.488221168518066,-1.0678139925003052,-1.9967641830444336,0.9765625,0.335693359375,-0.5645751953125
1.1162499,9.50737476348877,-1.0797849893569946,-1.9943699836730957,1.190185546875,0.1983642578125,-0.1983642578125
1.1187498999999999,9.524134635925293,-1.1013327836990356,-1.9943699836730957,1.1749267578125,0.1983642578125,-0.1220703125
1.1212499,9.531316757202148,-1.113303780555725,-1.98958158493042,0.762939453125,0.1220703125,-0.0152587890625
1.1237499,9.528923034667969,-1.1228805780410767,-1.9823989868164062,0.4425048828125,0.274658203125,-0.06103515625
1.1262499,9.516951560974121,-1.1252747774124146,-1.9752163887023926,0.244140625,0.4119873046875,0.0457763671875
1.1287498999999999,9.50737476348877,-1.115697979927063,-1.9752163887023926,0.1373291015625,0.3509521484375,0.0762939453125
1.1312499,9.495404243469238,-1.0989385843276978,-1.9776105880737305,0.06103515625,0.335693359375,0.06103515625
1.1337499,9.48343276977539,-1.0773907899856567,-1.9823989868164062,0.1068115234375,0.213623046875,0.0762939453125
1.1362499,9.476250648498535,-1.05105459690094,-1.9823989868164062,0.244140625,0.091552734375,-0.2288818359375
1.1387498999999999,9.469067573547363,-1.0295066833496094,-1.9800047874450684,0.30517578125,0,-0.1983642578125
1.1412499,9.47146224975586,-1.01753568649292,-1.9704279899597168,0.396728515625,0,0.2288818359375
1.1437499,9.476250648498535,-1.0103530883789062,-1.9632453918457031,0.6256103515625,-0.091552734375,0.2288818359375
1.1462499,9.493009567260742,-1.0199298858642578,-1.9536685943603516,0.6561279296875,-0.1373291015625,0.030517578125
1.1487498999999999,9.50737476348877,-1.0247182846069336,-1.9536685943603516,0.7781982421875,-0.1068115234375,0.274658203125
1.1512499,9.519346237182617,-1.0342950820922852,-1.9512743949890137,0.9307861328125,-0.1678466796875,0.2899169921875
1.1537499,9.536105155944824,-1.0414776802062988,-1.9560627937316895,0.91552734375,-0.152587890625,0.152587890625
1.1562499,9.545681953430176,-1.0558429956436157,-1.9608511924743652,1.129150390625,0,0.3814697265625
1.1587498999999999,9.552865028381348,-1.072602391242981,-1.968033790588379,1.312255859375,-0.1983642578125,0.7781982421875
1.1612498999999998,9.557653427124023,-1.094150185585022,-1.9776105880737305,1.312255859375,-0.3204345703125,0.8697509765625
1.1637499,9.560047149658203,-1.115697979927063,-1.9823989868164062,1.40380859375,-0.4119873046875,0.823974609375
1.1662499,9.5624418258667,-1.137245774269104,-1.98958158493042,1.220703125,-0.518798828125,1.03759765625
1.1687499,9.567230224609375,-1.1563993692398071,-1.9919757843017578,1.068115234375,-0.335693359375,1.0528564453125
1.1712498999999998,9.5624418258667,-1.1683704853057861,-1.9919757843017578,1.0986328125,-0.2593994140625,1.1749267578125
1.1737499,9.552865028381348,-1.173158884048462,-1.9919757843017578,0.9613037109375,-0.213623046875,1.3580322265625
1.1762499,9.5408935546875,-1.170764684677124,-1.98958158493042,0.885009765625,-0.335693359375,1.312255859375
1.1787499,9.531316757202148,-1.1635819673538208,-1.98958158493042,1.129150390625,-0.54931640625,1.434326171875
1.1812498999999999,9.526528358459473,-1.1540051698684692,-1.9943699836730957,1.068115234375,-0.4425048828125,1.434326171875
1.1837499,9.528923034667969,-1.1444283723831177,-2.0039467811584473,1.0223388671875,-0.30517578125,1.2969970703125
1.1862499,9.528923034667969,-1.137245774269104,-2.0159177780151367,1.129150390625,-0.1068115234375,1.3275146484375
1.1887499,9.526528358459473,-1.1324573755264282,-2.0183119773864746,1.0528564453125,-0.1678466796875,1.3580322265625
1.1912498999999999,9.521739959716797,-1.1300631761550903,-2.0231003761291504,0.9765625,-0.48828125,1.2054443359375
1.1937499,9.516951560974121,-1.1252747774124146,-2.0183119773864746,0.7781982421875,-0.335693359375,0.9918212890625
1.1962499,9.512163162231445,-1.1180921792984009,-2.011129379272461,0.91552734375,-0.3662109375,0.91552734375
1.1987499,9.50498104095459,-1.1109095811843872,-2.011129379272461,0.9307861328125,-0.4119873046875,1.007080078125
1.2012498999999999,9.502586364746094,-1.1037269830703735,-2.013523578643799,0.67138671875,-0.2899169921875,0.91552734375
1.2037499,9.497797966003418,-1.0989385843276978,-2.0207061767578125,0.79345703125,-0.1983642578125,0.701904296875
1.2062499,9.497797966003418,-1.091755986213684,-2.027888774871826,0.6866455078125,-0.1983642578125,0.67138671875
1.2087499,9.495404243469238,-1.091755986213684,-2.0374655723571777,0.6561279296875,-0.274658203125,0.7171630859375
1.2112498999999999,9.500192642211914,-1.0965443849563599,-2.0470423698425293,0.701904296875,-0.2593994140625,0.6561279296875
1.2137499,9.502586364746094,-1.1085153818130493,-2.056619167327881,0.5645751953125,-0.1983642578125,0.5035400390625
1.2162499,9.516951560974121,-1.1204863786697388,-2.0685901641845703,0.3814697265625,-0.091552734375,0.518798828125
1.2187499,9.524134635925293,-1.137245774269104,-2.078166961669922,0.152587890625,0.06103515625,0.3814697265625
1.2212498999999999,9.533711433410645,-1.1468225717544556,-2.0853497982025146,-0.244140625,0.2593994140625,0.3662109375
1.2237498999999998,9.533711433410645,-1.1516109704971313,-2.0853497982025146,-0.54931640625,-0.030517578125,0.2593994140625
1.2262499,9.536105155944824,-1.1540051698684692,-2.078166961669922,-0.6866455078125,-0.091552734375,0.3204345703125
1.2287499,9.536105155944824,-1.1468225717544556,-2.0685901641845703,-1.068115234375,0.091552734375,0.1220703125
1.2312499,9.536105155944824,-1.137245774269104,-2.056619167327881,-1.312255859375,0.335693359375,0.18310546875
1.2337498999999998,9.536105155944824,-1.1348515748977661,-2.049436569213867,-1.312255859375,0.3662109375,-0.06103515625
1.2362499,9.53849983215332,-1.1348515748977661,-2.049436569213867,-1.556396484375,0.42724609375,-0.0762939453125
1.2387499,9.543288230895996,-1.1420341730117798,-2.054224967956543,-1.8310546875,0.4730224609375,0.091552734375
1.2412499,9.552865028381348,-1.1563993692398071,-2.054224967956543,-1.89208984375,0.6256103515625,-0.030517578125
1.2437498999999999,9.557653427124023,-1.1635819673538208,-2.056619167327881,-1.953125,0.5645751953125,-0.1068115234375
1.2462499,9.560047149658203,-1.1683704853057861,-2.051830768585205,-2.0294189453125,0.640869140625,-0.244140625
1.2487499,9.564835548400879,-1.1683704853057861,-2.0422539710998535,-2.6092529296875,0.701904296875,-0.1983642578125
1.2512499,9.560047149658203,-1.1659762859344482,-2.0254945755004883,-2.5634765625,0.7476806640625,-0.3509521484375
1.2537498999999999,9.5624418258667,-1.170764684677124,-2.006340980529785,-2.5482177734375,1.007080078125,-0.54931640625
1.2562499,9.560047149658203,-1.173158884048462,-1.9919757843017578,-2.6397705078125,0.9002685546875,-0.701904296875
1.2587499,9.555258750915527,-1.1803414821624756,-1.9823989868164062,-2.6702880859375,0.8087158203125,-0.6103515625
1.2612499,9.545681953430176,-1.1875240802764893,-1.9728221893310547,-2.655029296875,1.1138916015625,-0.5950927734375
1.2637498999999999,9.543288230895996,-1.1971008777618408,-1.9728221893310547,-2.7313232421875,1.1444091796875,-0.823974609375
1.2662499,9.5408935546875,-1.213860273361206,-1.9704279899597168,-2.960205078125,1.0986328125,-1.0223388671875
1.2687499,9.543288230895996,-1.2282254695892334,-1.9704279899597168,-2.8076171875,1.3580322265625,-1.007080078125
1.2712499,9.548076629638672,-1.2473790645599365,-1.968033790588379,-2.777099609375,1.251220703125,-1.0528564453125
1.2737498999999999,9.545681953430176,-1.259350061416626,-1.968033790588379,-2.655029296875,1.373291015625,-1.251220703125
1.2762499,9.543288230895996,-1.2641384601593018,-1.9560627937316895,-2.8533935546875,1.3885498046875,-1.373291015625
1.2787499,9.53849983215332,-1.2545616626739502,-1.9512743949890137,-2.7618408203125,1.434326171875,-1.220703125
1.2812499,9.531316757202148,-1.2425906658172607,-1.946485996246338,-2.3651123046875,1.4495849609375,-1.312255859375
1.2837498999999999,9.524134635925293,-1.2234370708465576,-1.946485996246338,-2.349853515625,1.3275146484375,-1.3885498046875
1.2862498999999998,9.521739959716797,-1.2114660739898682,-1.9512743949890137,-2.1820068359375,1.373291015625,-1.495361328125
1.2887499,9.519346237182617,-1.2042834758758545,-1.9632453918457031,-1.9989013671875,1.4190673828125,-1.4801025390625
1.2912499,9.524134635925293,-1.2018892765045166,-1.968033790588379,-1.6937255859375,1.52587890625,-1.40380859375
1.2937499,9.521739959716797,-1.1971008777618408,-1.9752163887023926,-1.5716552734375,1.5411376953125,-1.28173828125
1.2962498999999998,9.519346237182617,-1.1971008777618408,-1.9728221893310547,-1.617431640625,1.373291015625,-1.251220703125
1.2987499,9.50737476348877,-1.1899182796478271,-1.9704279899597168,-1.4190673828125,1.556396484375,-1.312255859375
1.3012499,9.495404243469238,-1.1803414821624756,-1.965639591217041,-1.52587890625,1.5869140625,-1.40380859375
1.3037499,9.48343276977539,-1.1635819673538208,-1.9584569931030273,-1.46484375,1.678466796875,-1.15966796875
1.3062498999999999,9.47146224975586,-1.1492167711257935,-1.9536685943603516,-1.0223388671875,1.64794921875,-1.0528564453125
1.3087499,9.454702377319336,-1.1324573755264282,-1.9488801956176758,-1.0223388671875,1.434326171875,-0.91552734375
1.3112499,9.440337181091309,-1.1252747774124146,-1.9584569931030273,-0.9307861328125,1.434326171875,-0.7476806640625
1.3137499,9.428366661071777,-1.113303780555725,-1.968033790588379,-0.9613037109375,1.3885498046875,-0.9002685546875
1.3162498999999999,9.421183586120605,-1.1085153818130493,-1.9823989868164062,-1.007080078125,1.28173828125,-0.8697509765625
1.3187499,9.425971984863281,-1.1037269830703735,-1.987187385559082,-1.2664794921875,1.2664794921875,-0.9002685546875
1.3212499,9.428366661071777,-1.0965443849563599,-1.98958158493042,-1.5869140625,1.2054443359375,-0.579833984375
1.3237499,9.437943458557129,-1.0869675874710083,-1.9823989868164062,-1.6632080078125,1.312255859375,-0.2899169921875
1.3262498999999999,9.44752025604248,-1.0749965906143188,-1.9776105880737305,-1.678466796875,1.2664794921875,-0.3204345703125
1.3287499,9.454702377319336,-1.0654197931289673,-1.9704279899597168,-1.708984375,1.2054443359375,-0.4730224609375
1.3312499,9.464279174804688,-1.048660397529602,-1.965639591217041,-1.922607421875,1.190185546875,-0.30517578125
1.3337499,9.481039047241211,-1.0342950820922852,-1.9608511924743652,-1.8157958984375,1.220703125,-0.42724609375
1.3362498999999999,9.488221168518066,-1.01753568649292,-1.9560627937316895,-1.708984375,1.190185546875,-0.3204345703125
1.3387499,9.495404243469238,-1.0079588890075684,-1.9536685943603516,-1.922607421875,0.9307861328125,-0.2899169921875
1.3412499,9.500192642211914,-1.0055646896362305,-1.9536685943603516,-2.0751953125,1.0833740234375,-0.2593994140625
1.3437499,9.497797966003418,-1.0103530883789062,-1.9536685943603516,-1.9683837890625,1.1444091796875,-0.1678466796875
1.3462498999999999,9.495404243469238,-1.0223240852355957,-1.9536685943603516,-1.8463134765625,0.9002685546875,-0.1678466796875
1.3487498999999998,9.493009567260742,-1.039083480834961,-1.9512743949890137,-1.89208984375,0.9918212890625,-0.244140625
1.3512499,9.485827445983887,-1.0606313943862915,-1.9536685943603516,-2.0904541015625,1.1444091796875,-0.3204345703125
1.3537499,9.481039047241211,-1.0773907899856567,-1.9536685943603516,-2.2735595703125,1.1444091796875,-0.3509521484375
1.3562499,9.478644371032715,-1.094150185585022,-1.9608511924743652,-2.2735595703125,1.0223388671875,-0.213623046875
1.3587498999999998,9.478644371032715,-1.1037269830703735,-1.9608511924743652,-2.2430419921875,1.220703125,-0.06103515625
1.3612499,9.488221168518066,-1.113303780555725,-1.9632453918457031,-2.288818359375,1.1138916015625,0.091552734375
1.3637499,9.497797966003418,-1.113303780555725,-1.9584569931030273,-2.3193359375,1.1749267578125,-0.1678466796875
1.3662499,9.50498104095459,-1.1085153818130493,-1.9512743949890137,-2.227783203125,1.2664794921875,-0.1983642578125
1.3687498999999999,9.512163162231445,-1.094150185585022,-1.941697597503662,-1.89208984375,1.2664794921875,0.0457763671875
1.3712499,9.512163162231445,-1.0773907899856567,-1.9321208000183105,-1.7242431640625,1.3580322265625,0
1.3737499,9.514557838439941,-1.0582371950149536,-1.920149803161621,-1.7242431640625,1.3427734375,0.1068115234375
1.3762499,9.519346237182617,-1.0462661981582642,-1.9105730056762695,-1.7852783203125,1.3275146484375,0.0762939453125
1.3787498999999999,9.524134635925293,-1.036689281463623,-1.9033904075622559,-1.7242431640625,1.46484375,0.1220703125
1.3812499,9.526528358459473,-1.036689281463623,-1.900996208190918,-1.64794921875,1.4801025390625,0.18310546875
1.3837499,9.528923034667969,-1.0414776802062988,-1.9033904075622559,-1.28173828125,1.4495849609375,0.396728515625
1.3862499,9.519346237182617,-1.0558429956436157,-1.9033904075622559,-1.2359619140625,1.4190673828125,0.5645751953125
1.3887498999999999,9.509769439697266,-1.0749965906143188,-1.9081788063049316,-0.9307861328125,1.495361328125,0.5950927734375
1.3912499,9.497797966003418,-1.094150185585022,-1.9057846069335938,-0.9765625,1.617431640625,0.54931640625
1.3937499,9.478644371032715,-1.1085153818130493,-1.900996208190918,-1.0223388671875,1.6937255859375,0.732421875
1.3962499,9.469067573547363,-1.1204863786697388,-1.8986018896102905,-1.15966796875,1.5869140625,0.9613037109375
1.3987498999999999,9.457097053527832,-1.1252747774124146,-1.8938134908676147,-1.3885498046875,1.5716552734375,1.068115234375
1.4012499,9.452308654785156,-1.1300631761550903,-1.8938134908676147,-1.1444091796875,1.6021728515625,1.15966796875
1.4037499,9.457097053527832,-1.1324573755264282,-1.8986018896102905,-1.068115234375,1.7242431640625,1.1444091796875
1.4062499,9.466673851013184,-1.1300631761550903,-1.9057846069335938,-1.1138916015625,1.495361328125,1.15966796875
1.4087498999999999,9.476250648498535,-1.1276689767837524,-1.9153614044189453,-1.0528564453125,1.5869140625,1.129150390625
1.4112498999999998,9.488221168518066,-1.1228805780410767,-1.9177556037902832,-1.068115234375,1.4190673828125,1.0986328125
1.4137499,9.495404243469238,-1.1204863786697388,-1.922544002532959,-1.007080078125,1.40380859375,1.1749267578125
1.4162499,9.497797966003418,-1.1204863786697388,-1.9177556037902832,-1.129150390625,1.4495849609375,1.1749267578125
1.4187499,9.500192642211914,-1.1324573755264282,-1.9081788063049316,-0.9613037109375,1.556396484375,1.0986328125
1.4212498999999998,9.495404243469238,-1.1468225717544556,-1.8986018896102905,-0.9765625,1.52587890625,1.007080078125
1.4237499,9.490615844726562,-1.1635819673538208,-1.8842366933822632,-0.91552734375,1.6326904296875,1.0986328125
1.4262499,9.485827445983887,-1.1755530834197998,-1.867477297782898,-0.823974609375,1.5411376953125,0.7781982421875
1.4287499,9.48343276977539,-1.1851298809051514,-1.8579005002975464,-0.67138671875,1.5411376953125,0.8544921875
1.4312498999999999,9.488221168518066,-1.1827356815338135,-1.8507179021835327,-0.5645751953125,1.46484375,0.8087158203125
1.4337499,9.493009567260742,-1.1755530834197998,-1.8531121015548706,-0.6103515625,1.52587890625,0.7476806640625
1.4362499,9.50498104095459,-1.1659762859344482,-1.8555063009262085,-0.6561279296875,1.6632080078125,0.7171630859375
1.4387499,9.516951560974121,-1.1540051698684692,-1.8602946996688843,-0.396728515625,1.6021728515625,0.6256103515625
1.4412498999999999,9.536105155944824,-1.1516109704971313,-1.8555063009262085,-0.1678466796875,1.6632080078125,0.762939453125
1.4437499,9.555258750915527,-1.1516109704971313,-1.8531121015548706,0.030517578125,1.7242431640625,0.6561279296875
1.4462499,9.569623947143555,-1.1563993692398071,-1.845929503440857,0.1373291015625,1.495361328125,0.42724609375
1.4487499,9.581595420837402,-1.161187767982483,-1.8387469053268433,0.091552734375,1.5411376953125,0.396728515625
1.4512498999999999,9.586383819580078,-1.1563993692398071,-1.8339585065841675,0.2288818359375,1.6937255859375,0.4425048828125
1.4537499,9.583989143371582,-1.1468225717544556,-1.8339585065841675,0.1373291015625,1.922607421875,0.5950927734375
1.4562499,9.569623947143555,-1.1276689767837524,-1.8411411046981812,0.42724609375,1.77001953125,0.7476806640625
1.4587499,9.552865028381348,-1.1109095811843872,-1.8579005002975464,0.6103515625,1.7852783203125,0.732421875
1.4612498999999999,9.526528358459473,-1.0893617868423462,-1.8698714971542358,0.7171630859375,1.922607421875,0.823974609375
1.4637499,9.509769439697266,-1.070208191871643,-1.8842366933822632,0.6103515625,2.1209716796875,0.91552734375
1.4662499,9.497797966003418,-1.048660397529602,-1.8938134908676147,0.7781982421875,1.983642578125,0.885009765625
1.4687499,9.500192642211914,-1.0295066833496094,-1.8986018896102905,0.823974609375,2.044677734375,0.6866455078125
1.4712498999999999,9.50498104095459,-1.015141487121582,-1.9057846069335938,1.0223388671875,1.9683837890625,0.9765625
1.4737498999999998,9.521739959716797,-1.0079588890075684,-1.920149803161621,0.9002685546875,1.9378662109375,0.9918212890625
1.4762499,9.528923034667969,-1.0079588890075684,-1.9345149993896484,0.9765625,1.9073486328125,0.9765625
1.4787499,9.53849983215332,-1.0103530883789062,-1.9488801956176758,1.2054443359375,1.9378662109375,0.946044921875
1.4812499,9.53849983215332,-1.01753568649292,-1.9608511924743652,1.03759765625,1.922607421875,0.8697509765625
1.4837498999999998,9.53849983215332,-1.0127472877502441,-1.968033790588379,0.9765625,2.0904541015625,1.0528564453125
1.4862499,9.536105155944824,-1.0079588890075684,-1.9704279899597168,0.7476806640625,1.9989013671875,1.190185546875
1.4887499,9.533711433410645,-0.9983820915222168,-1.9752163887023926,0.54931640625,1.8157958984375,1.2359619140625
1.4912499,9.528923034667969,-0.9888052940368652,-1.9728221893310547,0.5340576171875,1.8768310546875,1.3427734375
1.4937498999999999,9.528923034667969,-0.9840168952941895,-1.968033790588379,0.3509521484375,1.9073486328125,1.251220703125
1.4962499,9.526528358459473,-0.9768342971801758,-1.968033790588379,0.2288818359375,1.953125,1.2969970703125
1.4987499,9.531316757202148,-0.9744400978088379,-1.965639591217041,0.1220703125,1.6937255859375,1.190185546875
1.5012499,9.5408935546875,-0.9720458984375,-1.9632453918457031,-0.2288818359375,1.8157958984375,1.28173828125
1.5037498999999999,9.552865028381348,-0.9768342971801758,-1.9632453918457031,-0.213623046875,1.739501953125,1.2969970703125
1.5062499,9.564835548400879,-0.9840168952941895,-1.9536685943603516,-0.0457763671875,1.6326904296875,1.3427734375
1.5087499,9.57441234588623,-1.0007762908935547,-1.9512743949890137,-0.244140625,1.495361328125,1.3885498046875
1.5112499,9.57441234588623,-1.0223240852355957,-1.941697597503662,-0.18310546875,1.40380859375,1.190185546875
1.5137498999999999,9.57201862335205,-1.0462661981582642,-1.9369091987609863,-0.152587890625,1.6937255859375,1.2054443359375
1.5162499,9.569623947143555,-1.0773907899856567,-1.9273324012756348,-0.2288818359375,1.5106201171875,1.068115234375
1.5187499,9.564835548400879,-1.0989385843276978,-1.922544002532959,-0.1678466796875,1.495361328125,1.2054443359375
1.5212499,9.5624418258667,-1.1204863786697388,-1.920149803161621,-0.4730224609375,1.6632080078125,1.28173828125
1.5237498999999999,9.560047149658203,-1.1252747774124146,-1.9153614044189453,-0.5950927734375,1.617431640625,1.3427734375
1.5262499,9.557653427124023,-1.1300631761550903,-1.922544002532959,-0.5340576171875,1.5869140625,1.312255859375
1.5287499,9.5624418258667,-1.1300631761550903,-1.9153614044189453,-0.4425048828125,1.64794921875,1.2664794921875
1.5312499,9.567230224609375,-1.1324573755264282,-1.9153614044189453,-0.396728515625,1.617431640625,1.15966796875
1.5337498999999999,9.57441234588623,-1.139639973640442,-1.9081788063049316,-0.335693359375,1.77001953125,1.0986328125
1.5362499,9.581595420837402,-1.1540051698684692,-1.9033904075622559,-0.0762939453125,1.52587890625,0.91552734375
1.5387499,9.591172218322754,-1.170764684677124,-1.8986018896102905,0.0152587890625,1.373291015625,0.8544921875
1.5412499,9.600749015808105,-1.1851298809051514,-1.8986018896102905,0.1068115234375,1.5869140625,0.732421875
1.5437499,9.612719535827637,-1.2018892765045166,-1.8938134908676147,0.2593994140625,1.617431640625,0.7781982421875
1.5462498999999998,9.617507934570312,-1.213860273361206,-1.8938134908676147,0.3509521484375,1.495361328125,0.91552734375
1.5487499,9.615114212036133,-1.2234370708465576,-1.8962076902389526,0.5645751953125,1.5411376953125,0.91552734375
1.5512499,9.605537414550781,-1.2234370708465576,-1.8962076902389526,0.732421875,1.678466796875,0.6561279296875
1.5537499,9.593565940856934,-1.2186486721038818,-1.9033904075622559,0.8392333984375,1.5869140625,0.7171630859375
1.5562498999999999,9.567230224609375,-1.1971008777618408,-1.9081788063049316,0.9002685546875,1.52587890625,0.9613037109375
1.5587499,9.567230224609375,-1.1971008777618408,-1.9081788063049316,0.9002685546875,1.52587890625,0.9613037109375
1.5612499,9.557653427124023,-1.1683704853057861,-1.9129672050476074,1.129150390625,1.5106201171875,0.9765625
1.5637499,9.557653427124023,-1.1683704853057861,-1.9129672050476074,1.129150390625,1.5106201171875,0.9765625
1.5662498999999999,9.5624418258667,-1.1228805780410767,-1.9297266006469727,1.2359619140625,1.5869140625,0.9307861328125
1.5687499,9.5624418258667,-1.1228805780410767,-1.9297266006469727,1.2359619140625,1.5869140625,0.9307861328125
1.5712499,9.557653427124023,-1.0773907899856567,-1.9488801956176758,1.4190673828125,1.2054443359375,0.9613037109375
1.5737499,9.557653427124023,-1.0773907899856567,-1.9488801956176758,1.4190673828125,1.2054443359375,0.9613037109375
1.5762498999999999,9.543288230895996,-1.0606313943862915,-1.9560627937316895,1.4190673828125,1.0986328125,0.9613037109375
1.5787499,9.543288230895996,-1.0606313943862915,-1.9560627937316895,1.4190673828125,1.0986328125,0.9613037109375
1.5812499,9.536105155944824,-1.0749965906143188,-1.9584569931030273,0.9613037109375,0.9765625,0.9002685546875
1.5837499,9.536105155944824,-1.0749965906143188,-1.9584569931030273,0.9613037109375,0.9765625,0.9002685546875
1.5862498999999999,9.53849983215332,-1.0821791887283325,-1.9752163887023926,0.48828125,0.885009765625,0.9918212890625
1.5887499,9.53849983215332,-1.0821791887283325,-1.9752163887023926,0.48828125,0.885009765625,0.9918212890625
1.5912499,9.5408935546875,-1.072602391242981,-2.006340980529785,0.2593994140625,0.7781982421875,1.1444091796875
1.5937499,9.5408935546875,-1.072602391242981,-2.006340980529785,0.2593994140625,0.7781982421875,1.1444091796875
1.5962498999999999,9.5408935546875,-1.048660397529602,-2.008735179901123,0.06103515625,0.5950927734375,1.0223388671875
1.5987499,9.5408935546875,-1.048660397529602,-2.008735179901123,0.06103515625,0.5950927734375,1.0223388671875
1.6012499,9.550470352172852,-1.01753568649292,-1.9823989868164062,-0.0152587890625,0.640869140625,0.91552734375
1.6037499,9.550470352172852,-1.01753568649292,-1.9823989868164062,-0.0152587890625,0.640869140625,0.91552734375
1.6062499,9.569623947143555,-0.9983820915222168,-1.965639591217041,-0.1983642578125,0.3814697265625,0.9002685546875
1.6087498999999998,9.569623947143555,-0.9983820915222168,-1.965639591217041,-0.1983642578125,0.3814697265625,0.9002685546875
1.6112499,9.583989143371582,-1.0007762908935547,-1.9584569931030273,-0.2899169921875,0.2899169921875,1.007080078125
1.6137499,9.583989143371582,-1.0007762908935547,-1.9584569931030273,-0.2899169921875,0.2899169921875,1.007080078125
1.6162499,9.579200744628906,-1.036689281463623,-1.9560627937316895,-0.274658203125,0.274658203125,0.946044921875
1.6187498999999999,9.579200744628906,-1.036689281463623,-1.9560627937316895,-0.274658203125,0.274658203125,0.946044921875
1.6212499,9.57201862335205,-1.0893617868423462,-1.9536685943603516,-0.3662109375,0.18310546875,1.15966796875
1.6237499,9.57201862335205,-1.0893617868423462,-1.9536685943603516,-0.3662109375,0.18310546875,1.15966796875
1.6262499,9.569623947143555,-1.1300631761550903,-1.9608511924743652,-0.3814697265625,0.030517578125,1.28173828125
1.6287498999999999,9.569623947143555,-1.1300631761550903,-1.9608511924743652,-0.3814697265625,0.030517578125,1.28173828125
1.6312499,9.5624418258667,-1.161187767982483,-1.9584569931030273,-0.5340576171875,0.030517578125,1.3427734375
1.6337499,9.5624418258667,-1.161187767982483,-1.9584569931030273,-0.5340576171875,0.030517578125,1.3427734375
1.6362499,9.555258750915527,-1.1827356815338135,-1.944091796875,-0.54931640625,-0.1983642578125,1.5716552734375
1.6387498999999999,9.555258750915527,-1.1827356815338135,-1.944091796875,-0.54931640625,-0.1983642578125,1.5716552734375
1.6412499,9.552865028381348,-1.1827356815338135,-1.9249382019042969,-0.5645751953125,-0.3204345703125,1.6326904296875
1.6437499,9.552865028381348,-1.1827356815338135,-1.9249382019042969,-0.5645751953125,-0.3204345703125,1.6326904296875
1.6462499,9.560047149658203,-1.1683704853057861,-1.9033904075622559,-0.762939453125,-0.2899169921875,1.312255859375
1.6487498999999999,9.560047149658203,-1.1683704853057861,-1.9033904075622559,-0.762939453125,-0.2899169921875,1.312255859375
1.6512499,9.576807022094727,-1.1683704853057861,-1.8914192914962769,-0.6103515625,-0.4425048828125,1.1749267578125
1.6537499,9.576807022094727,-1.1683704853057861,-1.8914192914962769,-0.6103515625,-0.4425048828125,1.1749267578125
1.6562499,9.591172218322754,-1.194706678390503,-1.8818424940109253,-0.5035400390625,-0.42724609375,0.946044921875
1.6587498999999999,9.591172218322754,-1.194706678390503,-1.8818424940109253,-0.5035400390625,-0.42724609375,0.946044921875
1.6612499,9.605537414550781,-1.2114660739898682,-1.8746598958969116,-0.518798828125,-0.7171630859375,0.7476806640625
1.6637499,9.605537414550781,-1.2114660739898682,-1.8746598958969116,-0.518798828125,-0.7171630859375,0.7476806640625
1.6662499,9.622296333312988,-1.194706678390503,-1.8794482946395874,-1.007080078125,-0.6561279296875,0.5950927734375
1.6687499,9.622296333312988,-1.194706678390503,-1.8794482946395874,-1.007080078125,-0.6561279296875,0.5950927734375
1.6712498999999998,9.636661529541016,-1.1683704853057861,-1.886630892753601,-0.6103515625,-0.67138671875,0.457763671875
1.6737499,9.636661529541016,-1.1683704853057861,-1.886630892753601,-0.6103515625,-0.67138671875,0.457763671875
1.6762499,9.634267807006836,-1.158793568611145,-1.8938134908676147,-0.4730224609375,-0.8087158203125,0.1983642578125
1.6787499,9.634267807006836,-1.158793568611145,-1.8938134908676147,-0.4730224609375,-0.8087158203125,0.1983642578125
1.6812498999999999,9.617507934570312,-1.158793568611145,-1.9033904075622559,-0.2288818359375,-0.701904296875,0.1983642578125
1.6837499,9.617507934570312,-1.158793568611145,-1.9033904075622559,-0.2288818359375,-0.701904296875,0.1983642578125
1.6862499,9.610325813293457,-1.170764684677124,-1.9105730056762695,-0.4119873046875,-0.79345703125,-0.030517578125
1.6887499,9.610325813293457,-1.170764684677124,-1.9105730056762695,-0.4119873046875,-0.79345703125,-0.030517578125
1.6912498999999999,9.612719535827637,-1.1803414821624756,-1.9129672050476074,-0.335693359375,-0.640869140625,0.030517578125
1.6937499,9.612719535827637,-1.1803414821624756,-1.9129672050476074,-0.335693359375,-0.640869140625,0.030517578125
1.6962499,9.612719535827637,-1.1683704853057861,-1.9153614044189453,-0.1983642578125,-0.67138671875,0.0762939453125
1.6987499,9.612719535827637,-1.1683704853057861,-1.9153614044189453,-0.1983642578125,-0.67138671875,0.0762939453125
1.7012498999999999,9.600749015808105,-1.1516109704971313,-1.9321208000183105,-0.457763671875,-0.5035400390625,0.1678466796875
1.7037499,9.600749015808105,-1.1516109704971313,-1.9321208000183105,-0.457763671875,-0.5035400390625,0.1678466796875
1.7062499,9.588777542114258,-1.137245774269104,-1.9488801956176758,-0.54931640625,-0.823974609375,0.152587890625
1.7087499,9.588777542114258,-1.137245774269104,-1.9488801956176758,-0.54931640625,-0.823974609375,0.152587890625
1.7112498999999999,9.579200744628906,-1.1180921792984009,-1.9488801956176758,-0.7171630859375,-0.518798828125,0.091552734375
1.7137499,9.579200744628906,-1.1180921792984009,-1.9488801956176758,-0.7171630859375,-0.518798828125,0.091552734375
1.7162499,9.567230224609375,-1.0893617868423462,-1.9488801956176758,-0.8392333984375,-0.5950927734375,-0.06103515625
1.7187499,9.567230224609375,-1.0893617868423462,-1.9488801956176758,-0.8392333984375,-0.5950927734375,-0.06103515625
1.7212498999999999,9.550470352172852,-1.070208191871643,-1.9512743949890137,-0.946044921875,-0.4119873046875,0.1220703125
1.7237499,9.550470352172852,-1.070208191871643,-1.9512743949890137,-0.946044921875,-0.4119873046875,0.1220703125
1.7262499,9.533711433410645,-1.0797849893569946,-1.9584569931030273,-0.9307861328125,-0.6103515625,0.1373291015625
1.7287499,9.533711433410645,-1.0797849893569946,-1.9584569931030273,-0.9307861328125,-0.6103515625,0.1373291015625
1.7312499,9.543288230895996,-1.1109095811843872,-1.9584569931030273,-0.9918212890625,-0.4425048828125,0.030517578125
1.7337498999999998,9.543288230895996,-1.1109095811843872,-1.9584569931030273,-0.9918212890625,-0.4425048828125,0.030517578125
1.7362499,9.576807022094727,-1.1228805780410767,-1.944091796875,-1.190185546875,-0.5035400390625,-0.1983642578125
1.7387499,9.586383819580078,-1.1180921792984009,-1.9321208000183105,-1.190185546875,-0.3509521484375,-0.0152587890625
1.7412499,9.591172218322754,-1.1109095811843872,-1.9177556037902832,-1.3427734375,-0.2899169921875,-0.0457763671875
1.7437498999999999,9.591172218322754,-1.1061211824417114,-1.9033904075622559,-1.220703125,-0.6103515625,-0.1220703125
1.7462499,9.581595420837402,-1.1085153818130493,-1.8842366933822632,-1.28173828125,-0.67138671875,-0.2288818359375
1.7487499,9.57201862335205,-1.1204863786697388,-1.867477297782898,-1.190185546875,-0.518798828125,-0.091552734375
1.7512499,9.557653427124023,-1.1324573755264282,-1.8602946996688843,-1.1444091796875,-0.396728515625,-0.3204345703125
1.7537498999999999,9.550470352172852,-1.1492167711257935,-1.8579005002975464,-1.220703125,-0.6561279296875,-0.274658203125
1.7562499,9.545681953430176,-1.1563993692398071,-1.8579005002975464,-1.2969970703125,-0.67138671875,-0.244140625
1.7587499,9.543288230895996,-1.161187767982483,-1.86508309841156,-1.190185546875,-0.4425048828125,-0.244140625
1.7612499,9.545681953430176,-1.1635819673538208,-1.86508309841156,-1.068115234375,-0.5035400390625,-0.2288818359375
1.7637498999999999,9.543288230895996,-1.1635819673538208,-1.8626888990402222,-1.0986328125,-0.3662109375,-0.335693359375
1.7662499,9.53849983215332,-1.161187767982483,-1.8602946996688843,-1.03759765625,-0.4425048828125,-0.2899169921875
1.7687499,9.531316757202148,-1.161187767982483,-1.8555063009262085,-1.0528564453125,-0.518798828125,0.0457763671875
1.7712499,9.521739959716797,-1.1635819673538208,-1.8531121015548706,-0.885009765625,-0.6866455078125,0.091552734375
1.7737498999999999,9.512163162231445,-1.173158884048462,-1.8555063009262085,-0.7171630859375,-0.8087158203125,0.0457763671875
1.7762499,9.500192642211914,-1.1851298809051514,-1.8555063009262085,-0.6256103515625,-0.7476806640625,-0.1678466796875
1.7787499,9.488221168518066,-1.1994950771331787,-1.8626888990402222,-0.518798828125,-0.7781982421875,-0.06103515625
1.7812499,9.47146224975586,-1.2042834758758545,-1.8746598958969116,-0.5950927734375,-0.91552734375,0.18310546875
1.7837498999999999,9.464279174804688,-1.2042834758758545,-1.8914192914962769,-0.640869140625,-0.762939453125,-0.06103515625
1.7862499,9.452308654785156,-1.1994950771331787,-1.9057846069335938,-0.5645751953125,-0.946044921875,0.030517578125
1.7887499,9.452308654785156,-1.192312479019165,-1.922544002532959,-0.5035400390625,-0.7171630859375,0.1220703125
1.7912499,9.452308654785156,-1.1803414821624756,-1.9297266006469727,-0.48828125,-0.701904296875,0
1.7937499,9.454702377319336,-1.170764684677124,-1.9297266006469727,-0.4730224609375,-0.823974609375,-0.0762939453125
1.7962498999999998,9.459490776062012,-1.161187767982483,-1.9249382019042969,-0.2593994140625,-0.732421875,0.091552734375
1.7987499,9.464279174804688,-1.1563993692398071,-1.920149803161621,-0.335693359375,-0.8087158203125,-0.1678466796875
1.8012499,9.469067573547363,-1.1563993692398071,-1.9129672050476074,-0.42724609375,-0.6256103515625,-0.2899169921875
1.8037499,9.464279174804688,-1.1540051698684692,-1.9105730056762695,-0.4730224609375,-0.5340576171875,-0.091552734375
1.8062498999999999,9.461885452270508,-1.1563993692398071,-1.9033904075622559,-0.6866455078125,-0.6561279296875,-0.1678466796875
1.8087499,9.454702377319336,-1.1563993692398071,-1.8962076902389526,-0.6256103515625,-0.457763671875,-0.152587890625
1.8112499,9.44991397857666,-1.1563993692398071,-1.8914192914962769,-0.640869140625,-0.2593994140625,-0.3204345703125
1.8137499,9.44991397857666,-1.1540051698684692,-1.889025092124939,-0.6103515625,-0.1068115234375,-0.1678466796875
1.8162498999999999,9.44991397857666,-1.1540051698684692,-1.8938134908676147,-0.8087158203125,-0.2593994140625,-0.1983642578125
1.8187499,9.457097053527832,-1.1516109704971313,-1.9057846069335938,-0.8087158203125,-0.1373291015625,-0.152587890625
1.8212499,9.461885452270508,-1.1492167711257935,-1.9129672050476074,-0.67138671875,0.2288818359375,-0.213623046875
1.8237499,9.47146224975586,-1.1468225717544556,-1.9273324012756348,-0.518798828125,-0.0152587890625,0.0152587890625
1.8262498999999999,9.478644371032715,-1.139639973640442,-1.9297266006469727,-0.54931640625,-0.06103515625,0
1.8287499,9.48343276977539,-1.1348515748977661,-1.9321208000183105,-0.54931640625,0.1678466796875,-0.0457763671875
1.8312499,9.485827445983887,-1.1324573755264282,-1.9321208000183105,-0.67138671875,0.0762939453125,0.091552734375
1.8337499,9.48343276977539,-1.139639973640442,-1.9273324012756348,-0.335693359375,0.1983642578125,0.0457763671875
1.8362498999999999,9.478644371032715,-1.1444283723831177,-1.9249382019042969,-0.54931640625,0.2593994140625,0.1983642578125
1.8387499,9.476250648498535,-1.1492167711257935,-1.922544002532959,-0.5035400390625,0.3509521484375,0.0152587890625
1.8412499,9.47146224975586,-1.1492167711257935,-1.9153614044189453,-0.4425048828125,0.4730224609375,0.030517578125
1.8437499,9.464279174804688,-1.1420341730117798,-1.9153614044189453,-0.67138671875,0.335693359375,0.274658203125
1.8462498999999999,9.461885452270508,-1.1324573755264282,-1.9153614044189453,-0.6561279296875,0.48828125,0.42724609375
1.8487499,9.454702377319336,-1.115697979927063,-1.922544002532959,-0.518798828125,0.457763671875,0.396728515625
1.8512499,9.452308654785156,-1.1013327836990356,-1.9297266006469727,-0.67138671875,0.6103515625,0.3662109375
1.8537499,9.454702377319336,-1.0821791887283325,-1.9369091987609863,-0.640869140625,0.5340576171875,0.54931640625
1.8562499,9.464279174804688,-1.0630255937576294,-1.941697597503662,-0.48828125,0.3814697265625,0.67138671875
1.8587498999999998,9.478644371032715,-1.05105459690094,-1.946485996246338,-0.335693359375,0.4425048828125,0.6561279296875
1.8612499,9.502586364746094,-1.039083480834961,-1.9512743949890137,-0.3814697265625,0.3814697265625,0.8697509765625
1.8637499,9.519346237182617,-1.036689281463623,-1.9584569931030273,-0.48828125,0.5340576171875,0.9002685546875
1.8662499,9.531316757202148,-1.0319008827209473,-1.9632453918457031,-0.54931640625,0.48828125,0.946044921875
1.8687498999999999,9.531316757202148,-1.0295066833496094,-1.968033790588379,-0.640869140625,0.54931640625,0.7781982421875
1.8712499,9.526528358459473,-1.0223240852355957,-1.968033790588379,-0.6256103515625,0.5340576171875,0.9613037109375
1.8737499,9.519346237182617,-1.015141487121582,-1.965639591217041,-0.67138671875,0.4730224609375,1.15966796875
1.8762499,9.519346237182617,-1.0103530883789062,-1.965639591217041,-0.8697509765625,0.396728515625,1.068115234375
1.8787498999999999,9.516951560974121,-1.0127472877502441,-1.9632453918457031,-0.6561279296875,0.396728515625,1.312255859375
1.8812499,9.524134635925293,-1.0199298858642578,-1.965639591217041,-0.8087158203125,0.6103515625,1.2664794921875
1.8837499,9.524134635925293,-1.036689281463623,-1.965639591217041,-0.8392333984375,0.701904296875,1.373291015625
1.8862499,9.528923034667969,-1.048660397529602,-1.965639591217041,-1.0528564453125,0.6561279296875,1.3275146484375
1.8887498999999999,9.536105155944824,-1.0630255937576294,-1.9584569931030273,-1.3275146484375,0.6103515625,1.3275146484375
1.8912499,9.543288230895996,-1.0749965906143188,-1.9512743949890137,-1.2359619140625,0.732421875,1.4495849609375
1.8937499,9.555258750915527,-1.0821791887283325,-1.944091796875,-1.3427734375,0.5950927734375,1.495361328125
1.8962499,9.567230224609375,-1.0893617868423462,-1.946485996246338,-1.434326171875,0.5340576171875,1.5106201171875
1.8987498999999999,9.57441234588623,-1.094150185585022,-1.9488801956176758,-1.617431640625,0.6866455078125,1.40380859375
1.9012499,9.576807022094727,-1.094150185585022,-1.9512743949890137,-1.678466796875,0.732421875,1.4190673828125
1.9037499,9.57441234588623,-1.0989385843276978,-1.9488801956176758,-1.8157958984375,0.6103515625,1.3275146484375
1.9062499,9.567230224609375,-1.0989385843276978,-1.9488801956176758,-1.6632080078125,0.7781982421875,1.3427734375
1.9087498999999999,9.564835548400879,-1.1061211824417114,-1.944091796875,-1.46484375,0.6256103515625,1.251220703125
1.9112499,9.560047149658203,-1.1204863786697388,-1.944091796875,-1.617431640625,0.6256103515625,1.1138916015625
1.9137499,9.555258750915527,-1.1468225717544556,-1.946485996246338,-1.6937255859375,0.5645751953125,1.4495849609375
1.9162499,9.555258750915527,-1.173158884048462,-1.9488801956176758,-1.861572265625,0.42724609375,1.15966796875
1.9187499,9.545681953430176,-1.1971008777618408,-1.946485996246338,-1.8463134765625,0.67138671875,1.251220703125
1.9212498999999998,9.548076629638672,-1.213860273361206,-1.9488801956176758,-2.1209716796875,0.9002685546875,1.3580322265625
1.9237499,9.545681953430176,-1.2306196689605713,-1.944091796875,-2.1209716796875,0.640869140625,1.15966796875
1.9262499,9.550470352172852,-1.2425906658172607,-1.946485996246338,-2.13623046875,0.67138671875,1.2969970703125
1.9287499,9.555258750915527,-1.259350061416626,-1.946485996246338,-2.3956298828125,0.79345703125,1.556396484375
1.9312498999999999,9.557653427124023,-1.280897855758667,-1.9512743949890137,-2.3193359375,0.762939453125,1.1138916015625
1.9337499,9.555258750915527,-1.2976573705673218,-1.9536685943603516,-2.471923828125,0.9307861328125,1.068115234375
1.9362499,9.550470352172852,-1.3120225667953491,-1.9488801956176758,-2.5787353515625,0.946044921875,1.251220703125
1.9387499,9.5408935546875,-1.3192051649093628,-1.946485996246338,-2.74658203125,0.9765625,1.1444091796875
1.9412498999999999,9.526528358459473,-1.3192051649093628,-1.946485996246338,-2.7618408203125,1.0528564453125,0.946044921875
1.9437499,9.509769439697266,-1.3120225667953491,-1.944091796875,-2.62451171875,1.068115234375,1.0528564453125
1.9462499,9.488221168518066,-1.2976573705673218,-1.9512743949890137,-2.86865234375,1.03759765625,1.0833740234375
1.9487499,9.473855972290039,-1.280897855758667,-1.9512743949890137,-2.86865234375,1.251220703125,0.8392333984375
1.9512498999999999,9.466673851013184,-1.256955862045288,-1.9584569931030273,-2.86865234375,1.40380859375,0.6103515625
1.9537499,9.466673851013184,-1.2425906658172607,-1.9560627937316895,-2.777099609375,1.2969970703125,0.6103515625
1.9562499,9.47146224975586,-1.2330138683319092,-1.9608511924743652,-2.7923583984375,1.190185546875,0.7781982421875
1.9587499,9.48343276977539,-1.2306196689605713,-1.9608511924743652,-2.8533935546875,1.495361328125,0.3204345703125
1.9612498999999999,9.497797966003418,-1.2330138683319092,-1.9536685943603516,-2.7008056640625,1.4190673828125,0.42724609375
1.9637499,9.512163162231445,-1.235408067703247,-1.9488801956176758,-2.960205078125,1.5106201171875,0.5645751953125
1.9662499,9.524134635925293,-1.235408067703247,-1.9369091987609863,-3.021240234375,1.4190673828125,0.6561279296875
1.9687499,9.533711433410645,-1.2306196689605713,-1.9321208000183105,-2.7618408203125,1.5411376953125,0.6103515625
1.9712498999999999,9.5408935546875,-1.2210428714752197,-1.9249382019042969,-3.0670166015625,1.5411376953125,0.3509521484375
1.9737499,9.543288230895996,-1.2018892765045166,-1.9273324012756348,-3.387451171875,1.6632080078125,0.2288818359375
1.9762499,9.543288230895996,-1.1779472827911377,-1.9249382019042969,-3.23486328125,1.708984375,0.67138671875
1.9787499,9.5408935546875,-1.1468225717544556,-1.9297266006469727,-3.021240234375,1.52587890625,0.701904296875
1.9812499,9.53849983215332,-1.1180921792984009,-1.9297266006469727,-3.0517578125,1.52587890625,0.5950927734375
1.9837499,9.53849983215332,-1.091755986213684,-1.9321208000183105,-2.99072265625,1.52587890625,0.885009765625
1.9862499,9.5408935546875,-1.070208191871643,-1.9273324012756348,-3.173828125,1.5106201171875,0.8697509765625
1.9887499,9.545681953430176,-1.0534487962722778,-1.922544002532959,-3.11279296875,1.46484375,0.823974609375
1.9912499,9.548076629638672,-1.036689281463623,-1.9081788063049316,-3.021240234375,1.5106201171875,1.0528564453125
1.9937498999999999,9.545681953430176,-1.0223240852355957,-1.8962076902389526,-2.9754638671875,1.6326904296875,1.0223388671875
1.9962499,9.53849983215332,-1.0127472877502441,-1.8818424940109253,-2.9449462890625,1.46484375,1.2664794921875
1.9987499,9.521739959716797,-1.0127472877502441,-1.8770540952682495,-3.021240234375,1.15966796875,1.5411376953125
2.0012499,9.509769439697266,-1.0223240852355957,-1.8770540952682495,-2.99072265625,1.251220703125,1.5869140625
2.0037499,9.495404243469238,-1.0414776802062988,-1.8818424940109253,-2.9296875,1.373291015625,1.77001953125
2.0062499,9.495404243469238,-1.0606313943862915,-1.8818424940109253,-2.899169921875,1.129150390625,1.9073486328125
2.0087498999999998,9.500192642211914,-1.0821791887283325,-1.8842366933822632,-2.7923583984375,0.9918212890625,2.0751953125
2.0112499,9.50737476348877,-1.0965443849563599,-1.8818424940109253,-2.838134765625,1.0833740234375,2.288818359375
2.0137499,9.516951560974121,-1.1204863786697388,-1.8818424940109253,-2.8228759765625,1.007080078125,2.4261474609375
2.0162499,9.524134635925293,-1.1324573755264282,-1.889025092124939,-3.021240234375,1.007080078125,2.62451171875
2.0187499,9.528923034667969,-1.1492167711257935,-1.8914192914962769,-3.11279296875,0.8087158203125,2.9144287109375
2.0212499,9.528923034667969,-1.1540051698684692,-1.889025092124939,-3.0517578125,0.8544921875,2.9754638671875
2.0237499,9.531316757202148,-1.1563993692398071,-1.8746598958969116,-3.0975341796875,0.8087158203125,3.1890869140625
2.0262499,9.531316757202148,-1.158793568611145,-1.8555063009262085,-3.2501220703125,0.640869140625,3.11279296875
2.0287498999999998,9.53849983215332,-1.161187767982483,-1.8291701078414917,-3.4332275390625,0.762939453125,3.082275390625
2.0312499,9.53849983215332,-1.1563993692398071,-1.8124107122421265,-3.4637451171875,0.8544921875,3.0670166015625
2.0337499,9.533711433410645,-1.158793568611145,-1.802833914756775,-3.3721923828125,0.701904296875,3.173828125
2.0362499,9.521739959716797,-1.1563993692398071,-1.7956513166427612,-3.021240234375,0.5645751953125,3.2196044921875
2.0387499,9.519346237182617,-1.1540051698684692,-1.7908629179000854,-2.7313232421875,0.4119873046875,3.0059814453125
2.0412499,9.516951560974121,-1.1492167711257935,-1.7860745191574097,-2.716064453125,0.54931640625,3.143310546875
2.0437499,9.531316757202148,-1.1444283723831177,-1.7860745191574097,-2.5177001953125,0.6866455078125,3.082275390625
2.0462499,9.53849983215332,-1.1420341730117798,-1.7860745191574097,-2.4566650390625,0.701904296875,3.0975341796875
2.0487499,9.543288230895996,-1.1492167711257935,-1.7980455160140991,-2.532958984375,0.7476806640625,3.1280517578125
2.0512498999999997,9.5408935546875,-1.1563993692398071,-1.8052281141281128,-2.4566650390625,0.8087158203125,3.0364990234375
2.0537499,9.526528358459473,-1.170764684677124,-1.8124107122421265,-2.50244140625,0.6866455078125,3.1585693359375
2.0562499,9.516951560974121,-1.1755530834197998,-1.8124107122421265,-2.38037109375,0.701904296875,3.021240234375
2.0587499,9.50737476348877,-1.1803414821624756,-1.8076223134994507,-2.288818359375,0.946044921875,3.021240234375
2.0612499,9.502586364746094,-1.1779472827911377,-1.802833914756775,-2.13623046875,0.9613037109375,3.0364990234375
2.0637499,9.495404243469238,-1.170764684677124,-1.7980455160140991,-2.0751953125,1.1749267578125,3.0364990234375
2.0662499,9.488221168518066,-1.158793568611145,-1.800439715385437,-2.13623046875,1.15966796875,3.11279296875
2.0687499,9.478644371032715,-1.1444283723831177,-1.802833914756775,-2.13623046875,1.03759765625,2.99072265625
2.0712498999999998,9.476250648498535,-1.1276689767837524,-1.8052281141281128,-1.8310546875,1.2054443359375,2.99072265625
2.0737499,9.485827445983887,-1.1180921792984009,-1.8076223134994507,-1.7547607421875,1.190185546875,3.3111572265625
2.0762499,9.502586364746094,-1.1109095811843872,-1.8124107122421265,-1.8310546875,1.15966796875,3.143310546875
2.0787499,9.521739959716797,-1.1085153818130493,-1.8124107122421265,-1.89208984375,1.190185546875,2.960205078125
2.0812499,9.545681953430176,-1.1061211824417114,-1.821987509727478,-2.044677734375,1.312255859375,3.0059814453125
2.0837499,9.552865028381348,-1.0965443849563599,-1.8315643072128296,-2.2735595703125,1.4190673828125,3.0517578125
2.0862499,9.550470352172852,-1.0845733880996704,-1.8411411046981812,-2.349853515625,1.617431640625,2.9144287109375
2.0887499,9.545681953430176,-1.0678139925003052,-1.8483237028121948,-2.716064453125,1.52587890625,3.0670166015625
2.0912498999999998,9.53849983215332,-1.05105459690094,-1.8507179021835327,-3.0059814453125,1.40380859375,3.0975341796875
2.0937499,9.53849983215332,-1.036689281463623,-1.845929503440857,-2.62451171875,1.2359619140625,3.11279296875
2.0962499,9.543288230895996,-1.0319008827209473,-1.8387469053268433,-2.74658203125,1.4190673828125,3.0364990234375
2.0987499,9.550470352172852,-1.0342950820922852,-1.8339585065841675,-2.777099609375,1.5869140625,2.99072265625
2.1012499,9.550470352172852,-1.05105459690094,-1.8267759084701538,-2.86865234375,1.9683837890625,3.0059814453125
2.1037499,9.543288230895996,-1.0749965906143188,-1.8148049116134644,-2.99072265625,1.8157958984375,3.11279296875
2.1062499,9.536105155944824,-1.0989385843276978,-1.8076223134994507,-3.204345703125,1.8310546875,3.0364990234375
2.1087499,9.528923034667969,-1.1204863786697388,-1.802833914756775,-3.5552978515625,2.13623046875,3.021240234375
2.1112499,9.524134635925293,-1.137245774269104,-1.800439715385437,-3.4027099609375,1.8768310546875,3.1280517578125
2.1137498999999997,9.526528358459473,-1.1468225717544556,-1.8100165128707886,-3.4637451171875,1.922607421875,3.2501220703125
2.1162499,9.531316757202148,-1.1516109704971313,-1.8148049116134644,-3.7994384765625,2.2125244140625,3.0059814453125
2.1187499,9.536105155944824,-1.158793568611145,-1.821987509727478,-3.8604736328125,2.1820068359375,3.0364990234375
2.1212499,9.5408935546875,-1.1659762859344482,-1.821987509727478,-3.84521484375,1.9683837890625,3.2958984375
2.1237499,9.545681953430176,-1.1803414821624756,-1.8195933103561401,-3.7994384765625,1.9989013671875,3.2958984375
2.1262499,9.545681953430176,-1.1899182796478271,-1.8171991109848022,-3.7994384765625,2.2430419921875,2.960205078125
2.1287499,9.550470352172852,-1.192312479019165,-1.8124107122421265,-3.8604736328125,2.3956298828125,2.960205078125
2.1312499,9.550470352172852,-1.194706678390503,-1.8148049116134644,-3.7841796875,2.349853515625,2.99072265625
2.1337498999999998,9.552865028381348,-1.1875240802764893,-1.8076223134994507,-3.570556640625,2.6702880859375,2.7923583984375
2.1362499,9.557653427124023,-1.1851298809051514,-1.8052281141281128,-3.448486328125,2.838134765625,2.6702880859375
2.1387499,9.564835548400879,-1.1827356815338135,-1.802833914756775,-3.0517578125,2.6702880859375,2.4566650390625
2.1412499,9.57441234588623,-1.1803414821624756,-1.802833914756775,-2.9296875,2.62451171875,2.38037109375
2.1437499,9.586383819580078,-1.1827356815338135,-1.802833914756775,-2.7923583984375,2.7008056640625,2.13623046875
2.1462499,9.603142738342285,-1.1875240802764893,-1.8124107122421265,-2.716064453125,2.74658203125,2.1820068359375
2.1487499,9.619902610778809,-1.194706678390503,-1.8124107122421265,-2.8839111328125,2.7923583984375,2.1209716796875
2.1512499,9.634267807006836,-1.2066776752471924,-1.8171991109848022,-3.0517578125,2.777099609375,1.8157958984375
2.1537498999999998,9.646238327026367,-1.216254472732544,-1.8124107122421265,-2.8076171875,2.7923583984375,1.5716552734375
2.1562499,9.648633003234863,-1.2258312702178955,-1.8052281141281128,-2.9754638671875,2.8076171875,1.5411376953125
2.1587499,9.648633003234863,-1.235408067703247,-1.7932571172714233,-3.11279296875,2.655029296875,1.3580322265625
2.1612499,9.646238327026367,-1.237802267074585,-1.7860745191574097,-2.960205078125,2.8076171875,1.46484375
2.1637499,9.643844604492188,-1.2401964664459229,-1.7812861204147339,-2.8839111328125,2.655029296875,1.5411376953125
2.1662499,9.641449928283691,-1.237802267074585,-1.7836803197860718,-2.9754638671875,2.5482177734375,1.4801025390625
2.1687499,9.639056205749512,-1.237802267074585,-1.7908629179000854,-3.0059814453125,2.7618408203125,1.312255859375
2.1712499,9.639056205749512,-1.235408067703247,-1.7956513166427612,-3.2196044921875,2.685546875,1.068115234375
2.1737499,9.634267807006836,-1.2330138683319092,-1.8052281141281128,-2.9754638671875,2.471923828125,0.9765625
2.1762499,9.63187313079834,-1.2258312702178955,-1.8124107122421265,-3.204345703125,2.5634765625,0.8392333984375
2.1787499,9.622296333312988,-1.2210428714752197,-1.8171991109848022,-3.326416015625,2.655029296875,0.79345703125
2.1812499,9.612719535827637,-1.2042834758758545,-1.8291701078414917,-3.3416748046875,2.4566650390625,0.7781982421875
2.1837499,9.59835433959961,-1.192312479019165,-1.8363527059555054,-3.3721923828125,2.2125244140625,0.7171630859375
2.1862499,9.591172218322754,-1.1779472827911377,-1.8411411046981812,-3.1890869140625,2.0904541015625,0.6256103515625
2.1887499,9.593565940856934,-1.1659762859344482,-1.8411411046981812,-3.2501220703125,1.9989013671875,0.640869140625
2.1912499,9.603142738342285,-1.158793568611145,-1.8315643072128296,-3.11279296875,1.6326904296875,0.3662109375
2.1937499,9.617507934570312,-1.1563993692398071,-1.8267759084701538,-3.326416015625,1.52587890625,0.335693359375
2.1962498999999998,9.634267807006836,-1.1563993692398071,-1.821987509727478,-3.1890869140625,1.190185546875,0.2899169921875
2.1987499,9.643844604492188,-1.1659762859344482,-1.821987509727478,-3.0670166015625,1.3427734375,0.244140625
2.2012499,9.648633003234863,-1.173158884048462,-1.824381709098816,-3.1890869140625,1.373291015625,0.152587890625
2.2037499,9.643844604492188,-1.1803414821624756,-1.8291701078414917,-3.387451171875,1.190185546875,0.1678466796875
2.2062499,9.636661529541016,-1.1875240802764893,-1.8315643072128296,-3.11279296875,0.885009765625,0.0457763671875
2.2087499,9.62947940826416,-1.1875240802764893,-1.8315643072128296,-2.99072265625,0.79345703125,0.0457763671875
2.2112499,9.62947940826416,-1.1851298809051514,-1.8267759084701538,-3.0517578125,0.91552734375,-0.030517578125
2.2137499,9.639056205749512,-1.1851298809051514,-1.8195933103561401,-2.86865234375,0.8392333984375,-0.1373291015625
2.2162498999999998,9.651026725769043,-1.1899182796478271,-1.8076223134994507,-2.899169921875,0.823974609375,-0.2593994140625
2.2187499,9.660603523254395,-1.2018892765045166,-1.7980455160140991,-2.6702880859375,0.6256103515625,-0.1983642578125
2.2212499,9.667786598205566,-1.213860273361206,-1.7812861204147339,-2.62451171875,0.6103515625,-0.2593994140625
2.2237499,9.670180320739746,-1.2186486721038818,-1.7741034030914307,-2.9296875,0.54931640625,-0.30517578125
2.2262499,9.667786598205566,-1.2186486721038818,-1.7693150043487549,-2.960205078125,0.579833984375,-0.3509521484375
2.2287499,9.66539192199707,-1.2066776752471924,-1.7741034030914307,-3.0975341796875,0.3814697265625,-0.2899169921875
2.2312499,9.660603523254395,-1.1851298809051514,-1.7812861204147339,-2.9296875,0.3662109375,-0.2899169921875
2.2337499,9.660603523254395,-1.161187767982483,-1.7908629179000854,-2.8533935546875,0.30517578125,-0.48828125
2.2362499,9.660603523254395,-1.1276689767837524,-1.7980455160140991,-2.8228759765625,0.3814697265625,-0.6561279296875
2.2387499,9.667786598205566,-1.0965443849563599,-1.802833914756775,-2.62451171875,0.48828125,-0.8392333984375
2.2412499,9.670180320739746,-1.0749965906143188,-1.802833914756775,-2.471923828125,0.2899169921875,-0.5950927734375
2.2437499,9.679757118225098,-1.070208191871643,-1.7956513166427612,-2.4261474609375,0.0457763671875,-0.6103515625
2.2462499,9.68694019317627,-1.0797849893569946,-1.7884687185287476,-2.288818359375,0.0457763671875,-0.54931640625
2.2487499,9.68933391571045,-1.0965443849563599,-1.7812861204147339,-1.983642578125,0.1678466796875,-0.5645751953125
2.2512499,9.679757118225098,-1.1109095811843872,-1.7764976024627686,-1.8463134765625,0,-0.579833984375
2.2537499,9.66539192199707,-1.115697979927063,-1.7741034030914307,-2.01416015625,-0.030517578125,-0.762939453125
2.2562499,9.643844604492188,-1.113303780555725,-1.7764976024627686,-1.9378662109375,-0.18310546875,-0.8697509765625
2.2587498999999998,9.62947940826416,-1.1061211824417114,-1.7741034030914307,-2.1209716796875,-0.1373291015625,-0.67138671875
2.2612499,9.622296333312988,-1.1013327836990356,-1.7812861204147339,-1.8768310546875,-0.18310546875,-0.518798828125
2.2637499,9.627084732055664,-1.094150185585022,-1.7812861204147339,-1.6937255859375,-0.2899169921875,-0.67138671875
2.2662499,9.639056205749512,-1.0893617868423462,-1.7836803197860718,-1.6937255859375,-0.3204345703125,-0.9613037109375
2.2687499,9.655815124511719,-1.091755986213684,-1.7860745191574097,-1.64794921875,-0.54931640625,-0.7171630859375
2.2712499,9.672574996948242,-1.0965443849563599,-1.7860745191574097,-1.5411376953125,-0.823974609375,-0.8087158203125
2.2737499,9.694122314453125,-1.113303780555725,-1.7884687185287476,-1.434326171875,-0.79345703125,-1.007080078125
2.2762499,9.703699111938477,-1.1300631761550903,-1.7932571172714233,-1.434326171875,-0.5950927734375,-0.8697509765625
2.2787498999999998,9.710882186889648,-1.1468225717544556,-1.7956513166427612,-1.3580322265625,-0.7476806640625,-0.823974609375
2.2812499,9.706093788146973,-1.1563993692398071,-1.7980455160140991,-1.2054443359375,-0.67138671875,-0.823974609375
2.2837499,9.694122314453125,-1.158793568611145,-1.800439715385437,-1.3427734375,-0.7171630859375,-0.8544921875
2.2862499,9.672574996948242,-1.1516109704971313,-1.7956513166427612,-1.3580322265625,-0.946044921875,-0.9613037109375
2.2887499,9.655815124511719,-1.137245774269104,-1.7980455160140991,-1.2969970703125,-1.0986328125,-0.9765625
2.2912499,9.643844604492188,-1.1204863786697388,-1.7956513166427612,-1.28173828125,-1.1444091796875,-1.129150390625
2.2937499,9.634267807006836,-1.1013327836990356,-1.7932571172714233,-1.312255859375,-1.190185546875,-1.1138916015625
2.2962499,9.63187313079834,-1.0845733880996704,-1.7908629179000854,-1.2664794921875,-1.220703125,-1.2054443359375
2.2987499,9.634267807006836,-1.0797849893569946,-1.7908629179000854,-1.068115234375,-1.220703125,-1.2359619140625
2.3012499,9.636661529541016,-1.0845733880996704,-1.7980455160140991,-0.79345703125,-1.3427734375,-1.4495849609375
2.3037499,9.636661529541016,-1.0965443849563599,-1.8052281141281128,-0.8087158203125,-1.5716552734375,-1.495361328125
2.3062499,9.63187313079834,-1.1204863786697388,-1.8195933103561401,-0.79345703125,-1.3885498046875,-1.617431640625
2.3087499,9.619902610778809,-1.1444283723831177,-1.821987509727478,-0.6561279296875,-1.312255859375,-1.5869140625
2.3112499,9.605537414550781,-1.1635819673538208,-1.8315643072128296,-0.6866455078125,-1.3427734375,-1.6937255859375
2.3137499,9.591172218322754,-1.1803414821624756,-1.8363527059555054,-0.8697509765625,-1.4190673828125,-1.8768310546875
2.3162499,9.579200744628906,-1.192312479019165,-1.843535304069519,-0.79345703125,-1.4495849609375,-1.556396484375
2.3187499,9.567230224609375,-1.1994950771331787,-1.8387469053268433,-1.007080078125,-1.5411376953125,-1.7547607421875
2.3212498999999998,9.560047149658203,-1.2042834758758545,-1.8387469053268433,-0.885009765625,-1.617431640625,-1.7547607421875
2.3237499,9.550470352172852,-1.2114660739898682,-1.8267759084701538,-0.640869140625,-1.556396484375,-1.7547607421875
2.3262499,9.548076629638672,-1.2234370708465576,-1.8195933103561401,-0.7781982421875,-1.64794921875,-1.8157958984375
2.3287499,9.545681953430176,-1.2449848651885986,-1.8076223134994507,-0.5035400390625,-1.9989013671875,-1.9073486328125
2.3312499,9.545681953430176,-1.2689268589019775,-1.800439715385437,-0.3204345703125,-1.617431640625,-1.8768310546875
2.3337499,9.53849983215332,-1.290474772453308,-1.7908629179000854,-0.579833984375,-1.800537109375,-2.01416015625
2.3362499,9.531316757202148,-1.3024457693099976,-1.7884687185287476,-0.579833984375,-1.7852783203125,-1.9989013671875
2.3387499,9.519346237182617,-1.3120225667953491,-1.7884687185287476,-0.4119873046875,-1.7547607421875,-2.0294189453125
2.3412498999999998,9.50498104095459,-1.3072341680526733,-1.7932571172714233,-0.6256103515625,-1.617431640625,-2.1820068359375
2.3437499,9.493009567260742,-1.2976573705673218,-1.7980455160140991,-0.54931640625,-1.617431640625,-2.25830078125
2.3462499,9.478644371032715,-1.2832920551300049,-1.802833914756775,-0.274658203125,-1.6021728515625,-2.349853515625
2.3487499,9.473855972290039,-1.2641384601593018,-1.802833914756775,0.0152587890625,-1.7547607421875,-2.38037109375
2.3512499,9.47146224975586,-1.2521674633026123,-1.8052281141281128,0.2288818359375,-1.495361328125,-2.62451171875
2.3537499,9.476250648498535,-1.2401964664459229,-1.7980455160140991,0.4730224609375,-1.5411376953125,-2.86865234375
2.3562499,9.488221168518066,-1.2425906658172607,-1.7980455160140991,0.640869140625,-1.495361328125,-2.685546875
2.3587499,9.495404243469238,-1.2521674633026123,-1.7932571172714233,0.640869140625,-1.5411376953125,-2.5634765625
2.3612499,9.502586364746094,-1.2713210582733154,-1.7932571172714233,1.007080078125,-1.495361328125,-2.532958984375
2.3637499,9.500192642211914,-1.2880805730819702,-1.7956513166427612,1.220703125,-1.312255859375,-2.4261474609375
2.3662499,9.495404243469238,-1.2976573705673218,-1.7980455160140991,1.190185546875,-1.3427734375,-2.471923828125
2.3687499,9.478644371032715,-1.2976573705673218,-1.7980455160140991,1.1444091796875,-1.312255859375,-2.4566650390625
2.3712499,9.461885452270508,-1.2880805730819702,-1.800439715385437,1.15966796875,-1.4190673828125,-2.3193359375
2.3737499,9.44991397857666,-1.2737152576446533,-1.802833914756775,1.312255859375,-1.495361328125,-2.288818359375
2.3762499,9.440337181091309,-1.2545616626739502,-1.8124107122421265,1.2969970703125,-1.3427734375,-2.13623046875
2.3787499,9.445125579833984,-1.2401964664459229,-1.821987509727478,1.556396484375,-1.495361328125,-2.0904541015625
2.3812499,9.44752025604248,-1.2306196689605713,-1.8339585065841675,1.64794921875,-1.4801025390625,-2.1209716796875
2.3837498999999998,9.457097053527832,-1.2330138683319092,-1.8363527059555054,1.6632080078125,-1.4190673828125,-2.105712890625
2.3862499,9.459490776062012,-1.235408067703247,-1.8363527059555054,1.8310546875,-1.434326171875,-2.1209716796875
2.3887499,9.464279174804688,-1.2473790645599365,-1.8291701078414917,1.800537109375,-1.4801025390625,-2.0751953125
2.3912499,9.461885452270508,-1.2473790645599365,-1.8171991109848022,1.5411376953125,-1.40380859375,-2.0599365234375
2.3937499,9.464279174804688,-1.2449848651885986,-1.8124107122421265,1.3427734375,-1.3275146484375,-2.4566650390625
2.3962499,9.459490776062012,-1.2330138683319092,-1.8076223134994507,1.3885498046875,-1.3427734375,-2.2735595703125
2.3987499,9.461885452270508,-1.213860273361206,-1.8148049116134644,1.64794921875,-1.556396484375,-2.166748046875
2.4012499,9.459490776062012,-1.194706678390503,-1.8267759084701538,1.6021728515625,-1.5411376953125,-2.4871826171875
2.4037498999999998,9.459490776062012,-1.1827356815338135,-1.8411411046981812,1.800537109375,-1.4495849609375,-2.44140625
2.4062499,9.461885452270508,-1.1779472827911377,-1.8555063009262085,2.105712890625,-1.6632080078125,-2.349853515625
2.4087499,9.464279174804688,-1.1875240802764893,-1.8626888990402222,2.1820068359375,-1.64794921875,-2.38037109375
2.4112499,9.466673851013184,-1.2018892765045166,-1.86508309841156,2.4261474609375,-1.2969970703125,-2.5787353515625
2.4137499,9.473855972290039,-1.216254472732544,-1.8698714971542358,2.3651123046875,-1.4801025390625,-2.5634765625
2.4162499,9.47146224975586,-1.2306196689605713,-1.8770540952682495,2.5177001953125,-1.739501953125,-2.38037109375
2.4187499,9.469067573547363,-1.2425906658172607,-1.886630892753601,2.899169921875,-1.617431640625,-2.2735595703125
2.4212499,9.457097053527832,-1.2473790645599365,-1.900996208190918,2.8076171875,-1.5106201171875,-2.1820068359375
2.4237499,9.442731857299805,-1.2497732639312744,-1.9129672050476074,2.7008056640625,-1.64794921875,-1.9989013671875
2.4262499,9.435548782348633,-1.2449848651885986,-1.9153614044189453,2.7618408203125,-1.77001953125,-1.9073486328125
2.4287499,9.428366661071777,-1.237802267074585,-1.9249382019042969,2.7008056640625,-1.64794921875,-1.77001953125
2.4312499,9.425971984863281,-1.2234370708465576,-1.9273324012756348,2.655029296875,-1.7852783203125,-1.6326904296875
2.4337499,9.423578262329102,-1.213860273361206,-1.944091796875,2.7313232421875,-1.953125,-1.77001953125
2.4362499,9.421183586120605,-1.2066776752471924,-1.9488801956176758,3.0364990234375,-1.617431640625,-1.7242431640625
2.4387499,9.418789863586426,-1.1994950771331787,-1.9608511924743652,2.8076171875,-1.6021728515625,-1.4801025390625
2.4412499,9.418789863586426,-1.2042834758758545,-1.965639591217041,2.960205078125,-1.739501953125,-1.556396484375
2.4437499,9.425971984863281,-1.2042834758758545,-1.965639591217041,2.6702880859375,-1.739501953125,-1.495361328125
2.4462498999999998,9.428366661071777,-1.2114660739898682,-1.9728221893310547,2.50244140625,-1.8157958984375,-1.0833740234375
2.4487499,9.428366661071777,-1.2114660739898682,-1.9728221893310547,2.50244140625,-1.8157958984375,-1.0833740234375
2.4512499,9.41400146484375,-1.2090718746185303,-1.9728221893310547,2.166748046875,-1.6326904296875,-1.2664794921875
2.4537499,9.41400146484375,-1.2090718746185303,-1.9728221893310547,2.166748046875,-1.6326904296875,-1.2664794921875
2.4562499,9.409213066101074,-1.2258312702178955,-1.968033790588379,2.1209716796875,-2.044677734375,-1.1749267578125
2.4587499,9.409213066101074,-1.2258312702178955,-1.968033790588379,2.1209716796875,-2.044677734375,-1.1749267578125
2.4612499,9.418789863586426,-1.2617442607879639,-1.9560627937316895,1.7852783203125,-1.739501953125,-1.312255859375
2.4637499,9.418789863586426,-1.2617442607879639,-1.9560627937316895,1.7852783203125,-1.739501953125,-1.312255859375
2.4662498999999998,9.425971984863281,-1.2689268589019775,-1.9536685943603516,1.3275146484375,-1.89208984375,-1.5869140625
2.4687499,9.425971984863281,-1.2689268589019775,-1.9536685943603516,1.3275146484375,-1.89208984375,-1.5869140625
2.4712499,9.433155059814453,-1.2425906658172607,-1.9728221893310547,1.1749267578125,-1.89208984375,-1.434326171875
2.4737499,9.433155059814453,-1.2425906658172607,-1.9728221893310547,1.1749267578125,-1.89208984375,-1.434326171875
2.4762499,9.442731857299805,-1.2330138683319092,-1.9752163887023926,1.4801025390625,-2.044677734375,-1.8310546875
2.4787499,9.442731857299805,-1.2330138683319092,-1.9752163887023926,1.4801025390625,-2.044677734375,-1.8310546875
2.4812499,9.459490776062012,-1.259350061416626,-1.946485996246338,1.5716552734375,-1.7242431640625,-1.6937255859375
2.4837499,9.459490776062012,-1.259350061416626,-1.946485996246338,1.5716552734375,-1.7242431640625,-1.6937255859375
2.4862499,9.48343276977539,-1.3000515699386597,-1.9153614044189453,1.6937255859375,-1.800537109375,-1.5716552734375
2.4887499,9.48343276977539,-1.3000515699386597,-1.9153614044189453,1.6937255859375,-1.800537109375,-1.5716552734375
2.4912499,9.512163162231445,-1.314416766166687,-1.9081788063049316,1.678466796875,-1.5411376953125,-1.4801025390625
2.4937499,9.512163162231445,-1.314416766166687,-1.9081788063049316,1.678466796875,-1.5411376953125,-1.4801025390625
2.4962499,9.528923034667969,-1.2880805730819702,-1.9177556037902832,2.1209716796875,-1.52587890625,-1.1138916015625
2.4987499,9.528923034667969,-1.2880805730819702,-1.9177556037902832,2.1209716796875,-1.52587890625,-1.1138916015625
2.5012499,9.528923034667969,-1.2497732639312744,-1.922544002532959,2.7008056640625,-1.40380859375,-0.946044921875
2.5037499,9.528923034667969,-1.2497732639312744,-1.922544002532959,2.7008056640625,-1.40380859375,-0.946044921875
2.5062499,9.516951560974121,-1.2186486721038818,-1.9081788063049316,3.0670166015625,-1.4495849609375,-0.7171630859375
2.5087498999999998,9.516951560974121,-1.2186486721038818,-1.9081788063049316,3.0670166015625,-1.4495849609375,-0.7171630859375
2.5112499,9.497797966003418,-1.1971008777618408,-1.8938134908676147,2.99072265625,-1.3275146484375,-0.6256103515625
2.5137499,9.497797966003418,-1.1971008777618408,-1.8938134908676147,2.99072265625,-1.3275146484375,-0.6256103515625
2.5162499,9.457097053527832,-1.173158884048462,-1.8962076902389526,3.1280517578125,-1.2359619140625,-0.2288818359375
2.5187499,9.457097053527832,-1.173158884048462,-1.8962076902389526,3.1280517578125,-1.2359619140625,-0.2288818359375
2.5212499,9.409213066101074,-1.1468225717544556,-1.9153614044189453,3.4027099609375,-1.2054443359375,-0.213623046875
2.5237499,9.409213066101074,-1.1468225717544556,-1.9153614044189453,3.4027099609375,-1.2054443359375,-0.213623046875
2.5262499,9.375694274902344,-1.1252747774124146,-1.946485996246338,3.4942626953125,-1.312255859375,0
2.5287498999999998,9.375694274902344,-1.1252747774124146,-1.946485996246338,3.4942626953125,-1.312255859375,0
2.5312499,9.363722801208496,-1.1180921792984009,-1.9752163887023926,3.0670166015625,-1.5869140625,0
2.5337499,9.363722801208496,-1.1180921792984009,-1.9752163887023926,3.0670166015625,-1.5869140625,0
2.5362499,9.366117477416992,-1.1180921792984009,-1.9823989868164062,2.899169921875,-1.3580322265625,-0.030517578125
2.5387499,9.366117477416992,-1.1180921792984009,-1.9823989868164062,2.899169921875,-1.3580322265625,-0.030517578125
2.5412499,9.363722801208496,-1.1252747774124146,-1.9728221893310547,2.62451171875,-1.4801025390625,0
2.5437499,9.363722801208496,-1.1252747774124146,-1.9728221893310547,2.62451171875,-1.4801025390625,0
2.5462499,9.349357604980469,-1.1420341730117798,-1.965639591217041,2.6702880859375,-1.5106201171875,0.152587890625
2.5487499,9.349357604980469,-1.1420341730117798,-1.965639591217041,2.6702880859375,-1.5106201171875,0.152587890625
2.5512499,9.342175483703613,-1.1683704853057861,-1.9704279899597168,2.44140625,-1.6021728515625,0.244140625
2.5537499,9.342175483703613,-1.1683704853057861,-1.9704279899597168,2.44140625,-1.6021728515625,0.244140625
2.5562499,9.375694274902344,-1.194706678390503,-1.9632453918457031,2.410888671875,-1.7242431640625,0.457763671875
2.5587499,9.375694274902344,-1.194706678390503,-1.9632453918457031,2.410888671875,-1.7242431640625,0.457763671875
2.5612499,9.435548782348633,-1.213860273361206,-1.9536685943603516,2.3956298828125,-1.708984375,0.5645751953125
2.5637499,9.435548782348633,-1.213860273361206,-1.9536685943603516,2.3956298828125,-1.708984375,0.5645751953125
2.5662499,9.500192642211914,-1.2282254695892334,-1.9512743949890137,2.410888671875,-1.5869140625,0.5645751953125
2.5687499,9.500192642211914,-1.2282254695892334,-1.9512743949890137,2.410888671875,-1.5869140625,0.5645751953125
2.5712498999999998,9.53849983215332,-1.235408067703247,-1.9345149993896484,2.4261474609375,-1.5716552734375,0.67138671875
2.5737499,9.53849983215332,-1.235408067703247,-1.9345149993896484,2.4261474609375,-1.5716552734375,0.67138671875
2.5762499,9.536105155944824,-1.235408067703247,-1.9153614044189453,2.685546875,-1.5869140625,0.9765625
