# Time (seconds),Accel_X,Accel_Y,Accel_Z,Gyro_X,Gyro_Y,Gyro_Z
0.0012499,8.686508214085334,-4.209402500432449,2.5235977068299364,4.164820927698255,-1.1144198043599365,0.5428529784399866
0.0112499,8.673328938479415,-4.253465314406502,2.6406463698647067,4.670063204532476,-1.1958727509342513,-1.081485490663194
0.0212499,8.678458671374953,-4.245362303957479,2.742557549791432,4.928181781203589,-1.3052905907728343,-2.999051689689239
0.0312498999999999,8.694803487393882,-4.2553100784969375,2.8144262198310033,5.071305707180672,-1.545914256965732,-4.9675375249952065
0.0412499,8.632448559665066,-4.210910966225937,2.8337719593011044,5.1216804258025315,-1.9886667127217628,-7.36179882509856
0.0512499,8.511976424858647,-4.154875994558592,2.8202596465658147,5.366447597541011,-2.5144248704801866,-9.90524611596218
0.0612498999999999,8.48474904648054,-4.209989472678443,2.886222925964267,5.842956437825444,-3.118612410461451,-11.789804260215814
0.0712499,8.495207945697182,-4.22658945666167,2.9511855950793167,6.601211456294193,-3.4817425090147402,-13.194581990881531
0.0812499,8.416987959086509,-4.127359284103544,2.900587051994908,7.405697929176338,-3.924247089437714,-14.302099961710407
0.0912499,8.329102894549742,-4.019295277116267,2.792785674179955,7.854869374497542,-4.570919252679669,-15.275155694310879
0.1012499,8.228017704926259,-3.9637188044469727,2.6824728869682315,7.962221027391058,-5.256750210554521,-15.923507689438352
0.1112499,8.103165586517159,-3.9429095487473163,2.609657586327073,7.689742386835108,-6.012264084154417,-16.20376767628555
0.1212499,8.093039919514524,-3.8927139080596413,2.577440753095518,6.726723008577809,-6.455429799447354,-16.209743140311097
0.1312499,8.14795025298375,-3.7705231387113662,2.5008673339597665,5.081239971023368,-6.342521825785503,-16.178678784324113
0.1412499,8.135252072759378,-3.6149297288024025,2.403840303885523,2.9238541290037836,-5.90377823747345,-16.449767923873427
0.1512499,8.147860543979869,-3.4682078675650447,2.352231737724636,0.8749744795699934,-5.665757625609979,-16.617744111067115
0.1612499,8.166839420163452,-3.3630452700559905,2.290342549254087,-1.0161310198044782,-4.88274380154799,-16.73372501859446
0.1712499,8.121815485358443,-3.2988721775401637,2.256603446751642,-2.643870657283327,-3.5407149138489054,-16.6243740775508
0.1812499,8.12783203844684,-3.2434008519595445,2.249536343914618,-3.2143984263059213,-2.206836845478335,-16.084968486873137
0.1912499,8.16202622278741,-3.1852227451440287,2.235177234376404,-2.809636773546893,-0.8422305390426161,-15.446507276948948
0.2012499,8.14860769915975,-3.1653109932110812,2.252257468157911,-1.7555752549803383,0.5391050977423998,-14.715103030702723
0.2112499,8.140480941118314,-3.1969945655451206,2.3075424932423707,-0.19931918268289578,2.3176916113855888,-13.70362372247809
0.2212499,8.182313623433778,-3.2076040827717236,2.403263260653291,1.763256968079338,4.415030852946793,-12.279678162738827
0.2312499,8.267030106967765,-3.2078916459238687,2.5643604735429206,4.468942720235731,6.74708147063628,-10.631033662667157
0.2412499,8.354485106947994,-3.1816163597745146,2.679562520255176,7.644882710242748,9.135612187714338,-8.794415344682248
0.2512499,8.41649750562444,-3.1412177491187343,2.667853925594083,10.950918609460274,11.478190329534483,-6.88491692277564
0.2612499,8.455701247191843,-3.115338545996449,2.656234068179884,14.105207932261692,13.466680267211295,-4.84209679533219
0.2712499,8.473123938598563,-3.027865694993408,2.6810785651239963,16.339043014250567,15.179701178545315,-2.6540262220512174
0.2812499,8.545820144470648,-2.8889663102950984,2.707770991277939,17.83096432084303,16.887267620864574,-0.7772600041360864
0.2912499,8.670585332488994,-2.791811055783052,2.7412210433161075,19.267259608594117,18.23252514813698,0.665653383744255
0.3012499,8.827318786298248,-2.6564197713082627,2.7898677195747865,20.508326780087387,19.289920496447063,1.799407056228621
0.3112499,8.982586126116173,-2.5200666634276194,2.798437479780368,21.46704798125352,19.925510970742067,2.4626686929993724
0.3212499,9.111475619926917,-2.456724689985671,2.7865594667151865,21.842984414599325,19.96612190298169,2.596339792111339
0.3312499,9.211614963675407,-2.4734794052801723,2.800000824868234,21.49389556504817,19.77979717205654,2.333127597370031
0.3412499,9.297609124733315,-2.5521099826692146,2.894561062261094,20.883815815777947,19.518864704089903,2.063525111974556
0.3512499,9.552136896224654,-2.4991650416082147,3.103513328501725,20.04217420776348,19.380079466280105,1.122093904634728
0.3612499,9.787367114027743,-2.53146757447227,3.2100805874916594,19.529483059848015,19.01137373491594,-0.5762911122529283
0.3712499,9.798749450255908,-2.784618550827176,3.3323154644138664,18.580746872333194,19.21499475008468,-1.5022311048745718
0.3812499,9.754412685298302,-2.991878267881416,3.4953741708920494,17.843275194472966,19.776575595062905,-1.7664064754401603
0.3912499,9.791572500530528,-2.9312545695312062,3.5556690850837755,18.370527436058225,19.34531031433671,-2.5076111809548167
0.4012499,9.721413556336584,-2.748249495590984,3.7295694204948595,19.343972523476896,18.413911354763894,-3.8569187565605443
0.4112499,9.548469480946196,-2.6274508756016934,4.074011630216152,20.520582109956738,17.287996538034193,-5.349925685515053
0.4212499,9.425410971891424,-2.4604348656177804,4.3413569423600915,21.766100665274788,15.566177857244417,-6.537702553711247
0.4312499,9.385402769479768,-2.2529492270925577,4.5447002915378185,22.9394216926468,13.530202472062168,-7.841376015358414
0.4412499,9.328218289065797,-2.1580809272104466,4.728325628584561,23.4550490795831,11.332322047488903,-8.761703050164009
0.4512499,9.166947724333337,-2.05015588959403,4.847853849257963,22.34738366760544,9.089828629103472,-9.197872938204199
0.4612499,9.115009873396177,-1.8762180950976888,4.922003297844302,20.363962045401298,6.706177652897839,-9.463156767754887
0.4712499,9.099874508584376,-1.812647899587648,5.0010423752588125,17.25370557753825,4.597701055329521,-9.17658841138381
0.4812499,8.927331521328515,-1.878915541975942,5.0101132078241015,12.725790707950495,2.6018158744670568,-8.077393609829556
0.4912499,8.744724261815627,-1.965498262231228,4.8940520810732115,7.597993990467896,0.41554896146848613,-6.197624606881083
0.5012499,8.668927627851016,-1.9294719423546745,4.803443666384194,1.4490435408247848,-1.9276267352897165,-3.819575707414429
0.5112499,8.596985336511626,-1.747133041680532,4.761894140055107,-5.185520069616839,-4.602720879408631,-1.827152270741668
0.5212499,8.450200787292522,-1.5937567116334868,4.598393217900924,-11.17013092584546,-7.69626430039946,-1.197547054383607
0.5312499,8.382694544774814,-1.6406242269570417,4.303586307128551,-15.831316529123411,-10.780668158810192,-0.9638283888024759
0.5412499000000001,8.37042172685449,-1.8927144923576558,4.018755400339245,-19.033851674387527,-13.32011842780857,0.17054589622820582
0.5512499000000001,8.365745269162048,-2.0986010913531747,3.7964903422145424,-20.96115173581647,-15.246383577818255,2.1369836668429323
0.5612499000000001,8.495311909864741,-2.1446589337102857,3.649195185862965,-21.31495452802314,-16.65270157250472,4.442884368538289
0.5712499000000001,8.713264979818849,-2.177307717789204,3.505306977431497,-20.151244353019486,-17.202698007928525,6.865830228602573
0.5812499,8.902732647997253,-2.300915454592088,3.243207129063386,-17.431789885079628,-17.24760736151086,9.491729449383067
0.5912499,9.048655029548483,-2.4406593107318773,2.9679344192165176,-14.223283956918031,-16.846089969294265,11.996917280496854
0.6012499,9.151393491680524,-2.5440600809141327,2.74963521864531,-11.206989757374572,-15.771314516229454,14.425683068634859
0.6112499,9.181223687761843,-2.626569749412098,2.5242932577165345,-9.047032576010976,-14.459128641303035,16.17347162216383
0.6212499,9.153286210323731,-2.7042756659630527,2.3782219486079543,-7.92459945717854,-13.10478900044403,16.718145733697444
0.6312499,9.123070605506172,-2.7701011307701973,2.3581903083670355,-6.774294093791706,-11.757340064918985,16.016116275842766
0.6412499,9.069661672576123,-2.892477399996708,2.3692567373160474,-5.468073478035148,-10.261744632648801,14.267112207890921
0.6512499,8.971680302460573,-3.1893742760448527,2.341697696595531,-4.063133227886687,-8.506606140514885,12.48575734459796
0.6612499000000001,8.807653795941489,-3.5171735680959193,2.3194855507583907,-2.2258528916189,-6.9287108433417135,11.135813124547099
0.6712499000000001,8.594156045461423,-3.708662221572807,2.388330110607661,-0.11158946014496518,-5.4961230068919065,9.8300923281949
0.6812499000000001,8.359611844046611,-3.8398265123023694,2.4967245156688453,2.377262536995381,-4.038672740623865,8.269240055502678
0.6912499000000001,8.16450180853368,-4.008009831829305,2.5760502583104907,5.470741767401171,-2.870159184163308,6.6271724111893
0.7012499000000001,8.105754385437729,-4.15823142052191,2.721946626641877,8.758565691252215,-1.2884962273378233,5.142358787810098
0.7112499,8.074396592132546,-4.217098710468946,2.909147580165641,12.117172320052227,0.6702136905609912,3.8398877645827834
0.7212499,8.006866998787205,-4.216805707575499,3.062113324842762,15.3092811055912,2.423477837875358,2.8791714520369704
0.7312499,7.956329458212399,-4.179389009860972,3.104828132088021,17.75603072804243,4.6282756668879,2.337139653957363
0.7412499,7.951063821889791,-4.1057455037866015,3.04721631499367,19.12803367024339,6.407455206428108,2.1743727474444605
0.7512499,7.987296079313011,-4.019806135217451,3.0103750343411266,19.402303548493727,7.640888083656958,2.147712955954951
0.7612499,8.049510236640383,-3.9091124089354206,2.982412346786468,18.28632606307063,9.068335496391978,2.4324274071441176
0.7712499,8.192965493295624,-3.775324282021718,2.943335795078103,15.675300162328588,10.147378187201024,2.9316574690674857
0.7812499,8.419458917068134,-3.677314147106453,2.9306450992132818,11.779647952665716,10.956312472983758,3.4559312902815593
0.7912499000000001,8.601108332471641,-3.6089069555725652,2.9332368232175146,7.055607612441499,11.51987015308943,4.078218952396445
0.8012499000000001,8.667002569083575,-3.595704679966143,2.908882074006407,1.8771437738330143,11.404528260917706,4.770633013615791
0.8112499000000001,8.713826495676493,-3.6815069903507704,2.9264519637116697,-3.1827485551363814,10.952077126279569,5.4432141319049645
0.8212499000000001,8.832076713516997,-3.775358100166915,2.986291808356871,-7.1356895820085215,10.390878468636018,6.212010639515019
0.8312499000000001,8.958319251238146,-3.8443367327881126,3.040763398709586,-9.96141711594956,9.535986678623306,7.112417571526036
0.8412499,9.039277209308032,-3.952770738981513,3.1456477395902325,-11.74946082259595,8.622276565716108,7.798834940260968
0.8512499,9.081068946713074,-4.04046616287447,3.2037905456744102,-12.013325750464594,7.598973989564713,8.390625581984658
0.8612499,9.099674922230918,-4.066491745676462,3.1969005943299362,-11.382079037369687,6.323766086591052,8.83777022966366
0.8712499,9.06798938430863,-4.0943468044228855,3.2220685988787934,-10.542052200298688,5.050921694252549,8.920001845279284
0.8812499,9.027167458897384,-4.111576102220644,3.2574360915163676,-9.425550496722465,3.7795661197460313,8.807879106417762
0.8912499,9.034983578809378,-4.058531906556141,3.3107095217851166,-8.605312840010553,2.6208533375176826,8.180639318223143
0.9012499,9.044519648492397,-3.958750421311704,3.404628265032883,-8.100672215988627,1.7873344288424646,6.841044677356785
0.9112499,8.99935485744289,-3.9068865569046967,3.5084222216782224,-7.52796669486587,1.2867610179768747,4.954707425231665
0.9212499,8.92116023672132,-3.879491598446355,3.5573176500446713,-7.337749970107017,0.9517600644451503,2.9477773439940846
0.9312499,8.849123530857362,-3.7953321249722967,3.5294082549713517,-7.729865188719057,0.7392505696755328,0.5804971858188612
0.9412499,8.797382984848069,-3.7285661564856656,3.458911690594722,-8.24069090580211,0.28682966921332487,-2.0390109293050567
0.9512499,8.759158683510002,-3.7332914245056683,3.425787141496672,-8.553608452914164,-0.28173902435004944,-4.090685795342573
0.9612499,8.713390172549147,-3.7256740609505776,3.4348302884703132,-8.517737294378371,-0.6775076625445551,-5.5703279818112215
0.9712499,8.680077809266066,-3.6748814287131917,3.4631897799193263,-7.919804435016171,-0.8569551613741561,-6.537842992784184
0.9812499,8.651398610637816,-3.608530122314119,3.4965931205375416,-6.69927528587613,-1.0251117433288996,-7.182373636477303
0.9912499,8.644174720072073,-3.514090528513996,3.430827747703098,-5.397517697541418,-1.177101899700705,-7.41816652188834
1.0012499,8.710267228262934,-3.4302151679510495,3.3622170920521333,-4.206272036474695,-1.4229045763842953,-7.108837696606232
1.0112499,8.765315223192214,-3.342430742921057,3.3545366306601503,-3.1057177133700495,-1.4506526878674098,-6.607991011806344
1.0212499,8.745880848262292,-3.263166478840263,3.3283381590652077,-2.4773351856950385,-1.430469579799426,-5.801526766934619
1.0312499,8.697807056316728,-3.2394467987314357,3.279541706341807,-2.5739219066354604,-1.3280547972575998,-4.846451571802665
1.0412499,8.64699641098148,-3.219492894248888,3.1871891590671764,-3.892897508238351,-0.9953044482173018,-3.9854042473048628
1.0512499,8.665843629735186,-3.1281313345802864,3.077890594059284,-6.6179786381653924,-0.43157334640602996,-3.6304763504222053
1.0612499,8.73418798205655,-2.9332679494514875,3.038987084082151,-10.5918072795295,0.4154549231193499,-4.133390453847973
1.0712499,8.750839590812983,-2.7686802040620293,3.1039607871072525,-14.802523219006181,1.6728274924554887,-5.2986002242693155
1.0812499,8.698955848687971,-2.749149236700687,3.165456846720468,-18.540644415031345,3.201568979051377,-6.150759939975543
1.0912499,8.545595553829607,-2.7720608543847667,3.1298709250295027,-20.949230346039155,5.049159942613963,-6.0703259341150115
1.1012499,8.301504846931023,-2.8003548896138555,3.011700695285662,-21.07612534922858,6.862968595901778,-4.4894604311273225
1.1112499,8.071748658224074,-2.7660211481692456,2.8357896355842174,-19.218577384198746,8.499823019478328,-1.3368485970256916
1.1212499,7.815583150368593,-2.5919300362709725,2.6585232208821594,-15.52615318165959,9.97739858362669,3.1077419793420895
1.1312499,7.498696487417314,-2.3928026303346095,2.463804538082396,-10.159542303035218,11.572369784260614,9.237270276071813
1.1412499,7.16120427483355,-2.277690529804019,2.1599463794637237,-4.971937086622829,13.886345149231296,17.46973236689465
1.1512499,6.831127927665338,-2.1394508146769575,1.9046038624466337,-1.1253494499016212,17.25804289151464,27.372185434280517
1.1612498999999998,6.543016627362822,-1.8700096108049353,1.9005522655264007,1.8831017782395263,22.475229527116202,38.35790838682823
1.1712498999999998,6.119464830421936,-1.7211615988730027,2.0307820500651004,3.5857749764111575,29.026793459036252,50.44680956604577
1.1812499,5.470472898723038,-1.801908815215296,2.176869082140932,2.9648888473694375,36.04350152570926,63.646857440201266
1.1912499,4.6652403621707395,-1.9247268556177601,1.928287992336229,1.192489693260312,42.13091283622506,76.88502885346628
1.2012499,3.751765922766116,-2.103606060576321,1.3337528301382615,-1.9369791260951514,46.592100440507004,89.36129503906018
1.2112499,2.6015821305300144,-2.4067804273417437,0.9600428519615856,-8.601605261012836,49.853952839629564,102.4527082215967
1.2212499,1.0576319332093875,-2.91744287459933,0.47979154002696184,-17.732190516889787,50.843658679189645,116.55597753536628
1.2312499,-0.34419529415653344,-3.6503357695529597,-0.30072161304653267,-27.424160046109563,49.86725751663378,130.15003161023583
1.2412499,-1.358650624986079,-4.133321977662923,-1.072003838627268,-38.732320124414414,47.29092805115701,143.5886046774569
1.2512499,-2.1624643173690834,-4.211841277374638,-1.6993080700635967,-51.74473930263175,43.17820741875274,156.7105229665643
1.2612499,-2.5570876632518096,-4.365643867530857,-2.040936424812303,-66.45079917149732,39.833069102771475,169.5719111306672
1.2712499,-2.2780661035694525,-4.846935297548881,-2.3105645882169545,-83.242939345431,40.49942375034844,183.5704691035576
1.2812499,-1.6236750175427423,-5.634532481359213,-2.6703674554143677,-103.44134281874527,45.565465334532824,199.49083557954756
1.2912499,-1.1010926647258918,-6.585296008611975,-3.114930965413777,-125.95099574074654,55.34415895469372,217.18786666039094
1.3012499,-0.947625949503476,-7.82721189780674,-4.107909639994083,-149.31464872324761,68.50796060713317,237.15065357555974
1.3112499,-0.767912503615956,-9.309784996486536,-5.3686582918597985,-173.3245881264071,84.23729727312093,258.7354350855588
1.3212499,-0.2965785126082884,-10.890477720278799,-6.2110601110024595,-195.36558741596627,102.98023697416171,281.337956377571
1.3312499,0.2234571092721914,-12.836830884792278,-6.692771215955648,-212.6898767600254,123.3677349880427,305.7896175516758
1.3412499,0.6695022983187369,-15.035417250484183,-6.947394722103684,-226.4406729438551,145.26841396993058,331.627984661919
1.3512499,0.9843513324169773,-17.172610047287723,-6.945861847574569,-240.369264834458,168.6516811173641,357.22113021582703
1.3612499,1.5916733766761535,-19.227110632823084,-7.008326690874987,-257.7072268319762,191.89819252607185,379.05906297206144
1.3712499,2.415414270437665,-21.26486710610036,-7.211769427202528,-275.244083544423,213.10576293694243,390.4743741047707
1.3812499,2.9851704683128255,-23.815562223490065,-6.809589801789977,-287.31162997187107,228.18955804225453,389.2596493480821
1.3912499,4.260621207504336,-27.33749135091633,-5.514076962978898,-295.3933443458417,236.92027257266363,380.2341421256645
1.4012499,6.506675296074931,-30.702656289100425,-3.628389391638847,-311.73417953755205,243.41660032752674,363.84510881351986
1.4112498999999998,8.537696292930665,-33.66142963916898,-1.793813773453746,-338.13922546755384,247.95270533686255,333.18640230675567
1.4212498999999998,10.109523142874265,-37.058218384619664,-0.8014300100162467,-368.8843448947477,248.06378966578262,288.898825153819
1.4312499,12.040356929350379,-41.125952046378195,0.09115852098509021,-395.2885350437099,244.34291296526035,236.97480225002138
1.4412499,14.541550434612256,-45.10313454334269,2.0730888959295752,-408.1696031224148,235.04121357320315,181.6159956445191
1.4512499,16.758455910951156,-47.98886856087107,5.389715165167842,-397.08344002354545,213.90400516315336,125.25021425056178
1.4612499,18.465106173900097,-48.441021289643004,9.235066707475076,-353.68112766209975,179.3007066392467,65.51799566122855
1.4712499,20.897189709824655,-46.97796065111541,13.346825870288344,-281.8301637562716,127.09856826924043,-2.696017860244793
1.4812499,23.373845098543644,-44.69959078196969,18.897082628020687,-221.3231821955308,59.780879045274744,-77.10319629531509
1.4912499,24.487429012119083,-41.38256148360234,25.885711415973017,-205.97770890064908,-10.968033517755007,-154.09467588077874
1.5012499,25.083921584876393,-38.35333535874887,33.154756764848884,-224.13762379110503,-84.48499215882866,-235.64151542022952
1.5112499,23.75883846708935,-36.71906845541539,39.222462803402294,-258.088796814856,-156.25812726665842,-319.62639656632865
1.5212499,19.701431495502685,-35.948789979448236,41.936194932025295,-294.68449405526854,-221.8288528805977,-411.58632536385085
1.5312499,15.264360498894858,-36.297830971657916,42.52039331511959,-314.4034357429256,-276.8852489021408,-487.13493221223257
1.5412499,10.248329532369533,-37.27041974014539,42.793982365192385,-305.92641413379573,-319.5211326937106,-503.10477259129846
1.5512499,4.132240261029268,-38.18007714540046,41.86734614578166,-266.9288992997488,-351.79777260175445,-498.8353679167034
1.5612499,-2.6661439726256657,-39.18781260211022,39.71034102812824,-207.95469915615746,-378.64779213852944,-500.1940760306318
1.5712499,-10.775738184903197,-40.41512674758695,36.482451638106326,-146.1516782538843,-405.3784389274628,-500.09033668261776
1.5812499,-19.631345426730256,-41.02989920396838,32.583667880622784,-103.0588359879904,-426.75218976896457,-499.85473780679945
1.5912499,-29.225081910706095,-39.609920550536856,29.262928945445775,-86.64651571455005,-439.0023492440123,-500.28311420191017
1.6012499,-41.10089450620098,-36.21268472240734,24.789707563361684,-80.25779366697034,-444.6636608266261,-499.5072322472627
1.6112499,-51.395038988030336,-31.292925800570018,15.66408763629368,-83.25066300812821,-417.6289279707858,-500.27024263321283
1.6212499,-56.308105227794506,-23.105839584170756,8.11343309775825,-86.74193974426109,-356.27043520465935,-501.3366359098339
1.6312499,-58.85393168779546,-11.039030882134199,6.395355561927105,-68.45216546111052,-275.61922379271067,-472.244034989741
1.6412499,-58.99774753959861,1.6896804723048446,1.2944332011943396,-51.4522102908419,-163.5136641238906,-427.85373983189794
1.6512499,-58.084883269994954,11.117615101778307,-5.432843141466768,-23.52297952499791,-50.88518469445346,-395.9316330420868
1.6612499,-55.67720347118653,14.046825703679854,-10.147786039104576,33.40954485700625,42.848476270857205,-350.47011583343794
1.6712498999999998,-48.606017848144695,10.014478458230375,-14.981120217471789,114.10709013836029,114.42724204688261,-266.58732457888186
1.6812499,-41.604917899728534,6.19010479959959,-18.658866379400294,196.29583085212877,157.14989426748016,-154.39783065073271
1.6912499,-36.800612837794915,7.929408705593816,-20.183973210662444,253.04883700097622,179.67861830865357,-51.84913048850787
1.7012499,-31.399535965090962,10.52476471456951,-19.891413514277698,277.85662658663233,193.85122994267294,21.645211247568245
1.7112499,-26.335321141194957,8.900482837179938,-19.28128123761582,277.1664866200107,200.169438784373,77.3224189743082
1.7212499,-22.38723329330737,4.383345857632358,-19.51004959597458,252.54370028718418,199.36020484673506,127.51410504168389
1.7312499,-18.178171001164177,-0.7912965368042862,-19.67923128321727,209.7092150113798,192.0593782799822,172.8492805284893
1.7412499,-13.178092105167938,-5.210433987390847,-18.32100093873338,158.03072483430037,179.93074526693337,208.41338537478836
1.7512499,-8.066231057767224,-7.996656062609716,-15.450138467796714,100.33117287621725,171.2136923538729,227.45373174328552
1.7612499,-3.3955533324651017,-11.151356501144736,-11.887673582504526,46.27388893607818,165.33632387391143,232.06600657484685
1.7712499,1.013446510385804,-15.457140258861608,-7.91357916920015,2.893296822477672,163.44008817850442,229.87058038571377
1.7812499,4.555323784053412,-18.40570253456869,-3.9848547108999304,-27.068474561797572,167.70740649678677,219.3716868231316
1.7912499,6.4677109774098405,-19.554136209202916,-0.9189157332551631,-34.34414537685751,172.20851574028907,197.0519548798015
1.8012499,6.916323372155486,-20.717760927846502,1.062995757107663,-14.4669366454557,174.33423566804373,168.47881029075216
1.8112499,6.516575374779434,-21.74125498126771,2.9512650900701516,23.88033157877854,175.31326647926014,141.39254308263284
1.8212499,6.284585881210852,-21.851541879072066,4.572754191511022,72.38507682351843,175.90264620589946,117.99776446859956
1.8312499,6.977966622133261,-21.296192231632332,4.76035764664923,121.35200667803143,176.29235277294484,96.6345176932184
1.8412499,8.20090903617757,-19.67086928263594,3.991813847262669,159.78623029523263,174.12631574663737,74.1848334896
1.8512499,9.335862833354597,-17.178506522888647,3.3770909137923417,185.88252857155697,169.30136120187643,48.77399551156072
1.8612499,10.20974895960727,-14.65821909687815,3.194318531193581,198.21732628061113,163.4712356330143,20.501058574113376
1.8712499,10.617253930399425,-12.165005276327076,3.1778012243769584,192.90825677595657,156.24527947611983,-10.368881501517057
1.8812499,10.493339854168966,-9.880474822373468,2.9330597745728766,173.4691417876745,148.83395918878858,-43.171743864152816
1.8912499,10.048737853560246,-8.468913841769709,2.3686757168047574,150.82998038236497,141.8632213423295,-74.59059943877936
1.9012499,9.703637411671549,-8.177217769781816,1.7484832733981575,132.2004212140721,135.36494298846023,-98.81884505318659
1.9112499,9.611249945333478,-8.441320179678153,1.5366381927326598,119.28454292304959,129.41839996587112,-112.81830760726311
1.9212499,9.494338729631771,-8.577614019437732,1.5941096843399956,113.20813757087687,125.54580970591176,-118.40824934136488
1.9312499,9.149926387632851,-8.270499093956262,1.2954282455305717,112.37911375870935,124.3759660596156,-118.77826315692211
1.9412499,8.753644113475918,-7.885188021872607,0.9755733701832819,117.12778061953864,120.68295144102062,-116.51987089135388
1.9512499,8.652560888422153,-7.37167470030552,0.9920941826065137,125.62670927488111,118.37942245204329,-112.54757200184191
1.9612499,8.640223376379822,-6.572131475880657,0.8116698633019439,131.81704290344697,118.99171504832863,-109.4575151571973
1.9712499,8.242392389309797,-5.750613597199328,0.4389099273097964,134.1772760327854,120.42211938888637,-107.25870617096845
1.9812499,7.695062699169773,-5.14933604626195,-0.10727644821099418,135.53384878975535,119.99684543601481,-104.50326882416776
1.9912499,7.568203701169425,-4.929474709148139,-0.9905182453944159,137.31020410968517,116.13377061017495,-100.96209910801772
2.0012499,7.453313542814121,-4.984345632472017,-1.5739990371575534,138.11559174151802,110.79777351067771,-96.45944423645916
2.0112499,6.805615447181544,-5.1027870440273135,-1.712315876715908,137.4096886146801,105.95573346373276,-90.77643489651014
2.0212499,6.235663025775738,-5.2995209635141265,-1.9584060687037965,137.46546234090738,100.71759972893062,-83.57662855908168
2.0312499,6.203512613636529,-5.224036996413632,-1.929379139401377,137.26305157029586,95.07301022457902,-76.74133391296098
2.0412499,6.277358704685439,-4.691306537123802,-1.4755970539770606,134.79733595738443,90.44220663420123,-72.86113877628922
2.0512499,6.231928954345871,-4.382482679756359,-1.2658818543847674,131.34375595732357,86.54113699304546,-72.1657268299345
2.0612499,6.442555771383821,-4.5285075727078015,-1.2953528797846543,126.42827079219131,82.25346422939228,-72.90962654931373
2.0712499,7.060833601040152,-4.681421103155439,-0.8448353906121499,119.15078358885917,77.63237732872275,-73.124116337335
2.0812499,7.916149198599931,-4.835206952808449,-0.22180736791720052,113.70244918711857,72.32256347155865,-71.94696379920687
2.0912499,8.963945841498541,-5.041470206345064,0.02007983777274429,110.8843171681196,66.3429703387454,-69.40306736013447
2.1012499,9.873085483320386,-5.032573174897137,0.3464455578250223,108.71950559687681,59.60457385532032,-66.47811158139491
2.1112499,10.146172947808266,-4.788052765697904,0.7597961537640547,105.3193414387359,52.23680458384053,-64.38384770351448
2.1212499,9.991729114769633,-4.499365178548601,0.9769520878684653,99.238485477081,44.43377478580416,-64.20958089763704
2.1312499,10.143630914566286,-4.335960710758256,1.0895767781198147,89.77372256078266,36.39294561398138,-65.72037897354512
2.1412499,10.651835930361448,-4.184999994922744,1.4912707762419042,76.08420557054772,29.38704547616921,-68.17108058652605
2.1512499,10.81616213102538,-3.982286063651583,2.230904788740249,59.698726159067704,24.225935013560346,-71.73336174685176
2.1612499,10.552022957845981,-3.8791242402675357,2.8754976741097726,43.297177903181684,20.448858996458284,-77.7044329238603
2.1712499,10.450256165753233,-4.0037488833990675,3.2598132578821235,29.049906398111492,17.64207962585093,-84.35805984724715
2.1812499,10.681965643127986,-4.299155833476681,3.561121457272946,17.72151680740349,15.776218029959946,-88.7129932291696
2.1912499,10.721666432570068,-4.650245111366957,3.9115848946232687,10.10725850228713,14.497192735466943,-89.9148195268982
2.2012499,10.38387730175085,-4.926191806511854,4.132273936640064,6.307989060464842,13.687609592257248,-88.78074116878777
2.2112499,9.974851972638184,-5.120926767920951,4.01873684829264,6.309293696197124,12.83286287857597,-86.57385871752311
2.2212499,9.670407474680706,-5.209968731565989,3.8841334567296886,9.52753415579661,11.573458668817583,-83.54337072102297
2.2312499,9.581444386742856,-5.11089569326815,4.124437622116785,15.33271562311287,10.432155285152225,-79.78423413919234
2.2412499,9.564993878418045,-4.819369184204326,4.485986963789337,23.2249856910958,9.656301669241454,-75.79483922540959
2.2512499,9.437228757390294,-4.5318264669542145,4.613900987704435,32.20768010450747,7.849406284877507,-71.71163651307765
2.2612499,9.253217548235742,-4.329265452904653,4.465074555303609,40.74201217108297,4.860939163945945,-67.55046930069736
2.2712499,9.090088064530917,-4.11312355681116,4.104171813134019,47.458119212201424,0.9672039285438493,-62.914888802395986
2.2812499,9.043743780103126,-3.8590356263471097,3.7301991587889214,51.068247722160386,-3.394651015480447,-58.49182983591935
2.2912499,8.905929207115443,-3.685492612884825,3.49178601234684,51.36951469119509,-8.766257045766704,-54.16687576724262
2.3012499,8.654451835610748,-3.3273121019755236,3.2513341510427605,47.67821370971185,-12.956031596204783,-50.006177479116666
2.3112499,8.547881782354326,-2.7513283831714843,3.0165829759034484,40.50724386908819,-15.78730025956264,-46.57608683990586
2.3212499,8.62197541494797,-2.1987605968690223,2.9560481245031847,31.5375408684725,-18.150057314832697,-44.49898581959458
2.3312499,8.726374915426753,-1.7394246311426604,2.8611288853268078,22.455712413298656,-19.50660488098909,-43.83503990950802
2.3412499,8.698563604578998,-1.5230681642361588,2.7486629601720187,14.411813904418608,-20.212746165155522,-43.47162059366234
2.3512499,8.44141162991925,-1.5973106862429498,2.779350505889723,7.7039315392727366,-20.305555507002545,-42.60430207176831
2.3612499,8.19186934516037,-1.7479427035351944,2.8317854699458795,2.3619492364402825,-19.75754766911576,-41.002175673080274
2.3712499,8.148943093642504,-1.7970562468706697,2.7750333566074343,-1.8742394374324014,-19.339637139521997,-38.534747043114486
2.3812499,8.103372020924589,-1.7805441661955699,2.764602717056095,-5.6412719538597145,-18.62337585979743,-35.20446338128835
2.3912499,7.951267509741162,-1.7112035800978773,3.0000391706877703,-8.919569532750312,-16.73104737465431,-31.68112326866459
2.4012499,7.797979237741127,-1.6825740526192614,3.289777599487561,-10.784959960133973,-14.481020132502358,-28.250763778610555
2.4112499,7.711867219934396,-1.7090724329302172,3.4978784600271795,-11.802882266732045,-12.389523502389874,-25.269121223635118
2.4212499,7.6687439462947875,-1.6972871055088816,3.614833706185621,-12.957696503279616,-10.010425489119738,-22.81798117131573
2.4312499,7.667372095053761,-1.7165304192715207,3.7053625164660384,-13.728380393119792,-7.51465199315065,-20.26560286685035
2.4412499,7.746688267640407,-1.8560958999326527,3.9368037410441605,-13.097373849255414,-4.884687792231474,-16.844588826221447
2.4512499,7.853498154814388,-2.1870471532242957,4.212073585218325,-10.608077580127057,-2.0225048451229,-12.224953140751607
2.4612499,8.004543641555095,-2.623618681834693,4.356126415787703,-6.9587008045851055,1.0014451170402936,-6.515219330720493
2.4712499,8.19768809575191,-2.899712478720916,4.272617409603887,-3.624825591706195,4.092786184968872,-0.4739474777330656
2.4812499,8.478742891801653,-2.9066892635053874,3.981726220212703,-1.2094312086976655,6.614046733154431,4.8691284009728735
2.4912499,8.791806796266961,-2.759353311296474,3.691973410112374,-0.0884462917569842,8.075552425481137,8.840128900046308
2.5012499,9.018842341587344,-2.639193591572158,3.439265442931351,0.3239579121342656,8.758076795577729,11.401430881219238
2.5112499,9.322291997748605,-2.6510902305925876,3.1399335396508796,0.5377806817391937,8.805194072293185,12.776556747987959
2.5212499,9.694613387127918,-2.7934358255948983,2.830405150369216,0.5878802543588703,8.120105935648713,13.576494548912525
2.5312499,9.952251336233006,-2.933323879246744,2.6521686172128685,0.08499033247800411,7.135471567605394,14.289315651757756
2.5412499,10.189311190133598,-2.9410779187937974,2.6716294661408186,-1.5358947504017104,6.239899725440967,14.487051249718698
2.5512499,10.429011331490738,-2.9016238572885404,2.7797839172848664,-3.7823800670543175,4.823037277571416,13.741360112001733
2.5612499,10.436216711825107,-2.9794132388813743,2.8087098970112887,-4.960630279115913,2.7047609494020555,12.313348989815129
2.5712499,10.196877533645148,-3.1749807748952152,2.733521949609113,-4.577074788538991,0.08981497954661727,10.594634236538448
2.5812499,9.856240358373094,-3.3910715450438804,2.6875570331767062,-2.877673352398138,-3.129676771891226,9.07878084370943
2.5912499,9.47518106577382,-3.621806975269527,2.744789197042484,-0.8250302332089815,-6.527294575132389,8.115378859148253
2.6012499,9.119411062490535,-3.79336051628682,2.826559015884091,0.19637412803914187,-9.400966637606244,7.158863357469232
2.6112499,8.839690254616496,-3.7874601696720154,2.9145807323739685,0.3308858757536134,-11.626566357194033,5.456487887936622
2.6212499,8.611986637855818,-3.6998947001923024,2.9730782178014286,-0.06287332931306985,-13.262669869767834,2.657802110200215
2.6312499,8.421329787080797,-3.664440596785059,2.9863613794919917,-0.8919775197073996,-14.30268456392199,-0.45026147016818574
2.6412499,8.349538058270527,-3.68791039312378,3.132131454141454,-1.0768339372385445,-14.551548746330587,-3.1157012940965036
2.6512499,8.334831671544743,-3.6982108463432013,3.3855814191161993,-0.8214744115872014,-13.751520937044374,-5.0799313095741425
2.6612499,8.228004075160081,-3.6829119187841903,3.5061869784456334,-0.17487441932780284,-11.943351678606245,-6.137847196553914
2.6712499,8.091931052459355,-3.6620180285583137,3.548943366645779,1.1308358662952842,-9.64737014218938,-6.663822552357576
2.6812499,7.9898206472112525,-3.6360637453226032,3.5306693414147863,3.1795282551196555,-7.367897645148238,-6.927499001374829
2.6912499,7.9024189508061,-3.615870270086257,3.428324791121029,5.7338141030817615,-5.280189470390879,-6.920647395129097
2.7012499,7.8689098544798615,-3.576399200754269,3.4615412553625435,8.396929809165345,-3.337582757050394,-6.408734102126648
2.7112499,7.852454143843731,-3.554911152469143,3.561138863552516,10.726810206485593,-1.3189509236924442,-5.516862657622572
2.7212499,7.822974073344328,-3.535629738134201,3.490418297231848,11.831632964488161,0.26348357021029156,-4.624998236632707
2.7312499,7.874170111380741,-3.45130189727702,3.3958276224062875,12.055662693735067,1.0898940194958677,-3.9145848245464787
2.7412499,7.970618931209806,-3.4098705542445353,3.392072258675473,12.00470863747798,1.416213332126554,-3.0409419084177602
2.7512499,8.088677124471875,-3.4533466865161904,3.466430313451163,11.301989512098476,1.8531401445097349,-1.5982923138276768
2.7612499,8.375561620568131,-3.3916697493333507,3.557881115996252,9.63350431884561,2.670909858095025,0.291026533729872
2.7712499,8.648696569764795,-3.2594161048603123,3.605313822613212,7.548874688556631,3.4822486406499755,2.061076581606948
2.7812499,8.648505683716284,-3.20058752801674,3.55336794320257,5.295312301211502,3.8457901548086504,3.1896213894670638
2.7912499,8.556903784961795,-3.217777168529658,3.392514476441327,2.8603702678151333,3.2411935122785245,3.7257708432775916
2.8012499,8.541836831434944,-3.3137516808416025,3.255496318470438,0.6966996443350995,1.7763424567775579,4.222204083637253
2.8112499,8.56085057722917,-3.433900873380826,3.2442369766634047,-0.670062714396213,0.03580256256187392,4.834587391687615
2.8212499,8.633650455219561,-3.470521610723922,3.320819516027973,-1.1077817239166488,-1.4287024686435348,5.243665057626244
2.8312499,8.782489611296132,-3.4807211314748794,3.437518390846768,-0.715377555229137,-2.215257283371005,5.776760839009018
2.8412499,8.937219299827282,-3.552492615896184,3.618279110870686,-0.26829187770666735,-2.199605584392596,6.173474826422371
2.8512499,9.07281017610645,-3.57256783381411,3.768745353616088,0.25145188747554675,-1.4784526574591375,5.959735654430379
2.8612499,9.189480377148897,-3.525104541466522,3.775756108105454,0.927005358679673,-0.583318000821325,5.604121250219433
2.8712499,9.180383496775033,-3.5071437227633306,3.7388386257353554,0.6564409425810731,0.1647941690940853,4.823122056918962
2.8812499,9.032771839438501,-3.5456699820980235,3.658112569212581,-0.1935505918561488,0.7246603426904098,3.8027042176494312
2.8912499,8.904668855800297,-3.637294626229193,3.500155649961749,-0.9784081344974972,0.4461085211421486,2.870687370760272
2.9012499,8.757812040578845,-3.73941465183366,3.3654838181509565,-1.8439698300054326,-0.4340806289137381,2.1821508308708792
2.9112499,8.551357834170172,-3.7853310787941568,3.2317335458616907,-2.5643460125943207,-1.2458603319655768,1.6068144768610433
2.9212499,8.452713827411381,-3.8076227589415095,3.1281342340281038,-2.9361001649105463,-1.9465023987979881,1.4079047723319502
2.9312499,8.385623894392017,-3.9090777851574927,3.1578109380288306,-3.1788953315889406,-2.203754093402625,1.8765212377365237
2.9412499,8.23322240941899,-4.00212326852966,3.1609242688823453,-3.7221181658771454,-1.668332049025864,2.655294994444118
2.9512499,8.07003266929238,-3.9819293993351654,2.988652072556865,-4.837035968159109,-1.1895391706520926,3.755041182192326
2.9612499,7.8895366237588025,-3.8956828004321666,2.8226972516948514,-6.503206526033687,-0.8544786216298288,5.237525633509404
2.9712499,7.6813282057316,-3.767694628328795,2.7371103343254104,-8.594298911853809,-0.032737674180415295,6.963995970359628
2.9812499,7.413864414010816,-3.66746030676296,2.6581791631872633,-10.942899784061602,1.0692201343353045,9.07644180843245
2.9912499,7.058310589596699,-3.654697819919203,2.573495981991099,-13.100469946717512,2.2090423955592366,12.358759251231522
3.0012499,6.642669821752766,-3.640792305453602,2.4502248497336643,-14.92930215984903,3.370383628427089,17.17627553747323
3.0112499,6.148739116409603,-3.616317907592741,2.226998748345347,-16.41307661182864,4.40643132143481,23.638624793053367
3.0212499,5.606511245107443,-3.612767159570336,1.9254477512775114,-18.49047624570292,5.679090216298537,31.87200841839404
3.0312499,5.081088027992276,-3.5832676497825724,1.6919323143157952,-21.63611239501719,7.477473189805588,41.59941319068058
3.0412499,4.499760525656,-3.502481537969686,1.4701327172285608,-26.16469533400007,10.32666153037088,52.32642368057084
3.0512499,3.9161083970555532,-3.3347356985625054,1.1830591012203298,-32.1740177024704,14.554229465145061,63.55274010185033
3.0612499,3.4895481572604385,-3.1498646099101895,0.9549379499902266,-37.49266483166815,18.143095889254518,74.43175122802357
3.0712499,3.283129555357248,-2.9747865766639117,0.7862855901749671,-43.59542278778388,22.399157073529878,84.49922058082495
3.0812499,3.252817300975602,-2.781956037143307,0.7443990981007781,-50.94035726695235,28.54573374620169,93.98173104572413
3.0912499,3.237274368943739,-2.6925504517056362,0.8079453036470955,-57.84380520494559,36.36238493347412,103.39360082770368
3.1012499,3.158194057383021,-2.7419848167858256,0.8795954500942124,-63.44852768388388,45.37239214597255,113.90564772367048
3.1112499,2.8674065246143243,-2.9117921393124133,0.8160624986902077,-68.4318071527536,56.39396451455226,127.53808803270681
3.1212499,2.451106227138657,-3.1945805055947796,0.5156586126348576,-71.99074899659664,67.89759930953741,143.66592998588268
3.1312499,2.106720843079868,-3.557773763679983,0.16998158686881898,-74.53224380906123,78.27269541668588,161.35400813753057
3.1412499,1.7562283594225,-3.886483558132213,-0.2154948428034437,-77.69480638606909,88.47453802878839,181.04591867418694
3.1512499,1.4603891934018982,-3.9737975728166686,-0.698634485120915,-82.63880646787713,98.52934685433213,201.02843004266416
3.1612499,1.145253962087786,-4.180540385970117,-1.1692408523386348,-91.27010838644178,108.05560979371758,220.34865402899737
3.1712499,0.7737247992204196,-4.797697517435803,-1.548368557566391,-103.83597584602936,117.66887242924861,238.8030380342505
3.1812499,0.38696312204128325,-5.585705115925002,-1.9284731765167336,-119.12303590670324,126.80003182683744,256.4285745780007
3.1912499,-0.006700014954590157,-6.878684867377918,-2.622548757198556,-136.4597448282192,134.79172278083016,274.88526164070805
3.2012499,-0.3079132020268869,-8.898571178234073,-3.722060166008681,-159.79597797551185,143.05024890702555,295.64019525027794
3.2112499,-0.6712320350484843,-10.875687896049875,-4.9346410580995155,-192.42385818881,151.9605539289394,316.6136136625861
3.2212499,-1.2171612696955023,-12.30838672835664,-6.195696480332259,-233.5411897281609,161.03830670373847,333.10847624032573
3.2312499,-1.8069929192794008,-13.567024274954811,-7.798993372629643,-283.90365817849124,171.1453562986053,340.7122033939144
3.2412499,-2.6225961908395057,-15.026082578881425,-9.28336495429598,-339.0836480244653,182.12955926749675,337.60175503792897
3.2512499,-3.505935770037069,-17.237390372616513,-9.518203407233562,-383.94174002515877,192.84971725202814,330.1684775318019
3.2612499,-3.3547205641075757,-20.65767808292371,-8.420464285728912,-402.4716421913051,204.04700868902512,327.88320335598854
3.2712499,-1.898688843776047,-25.049823848653688,-6.665253415313101,-389.6620472489434,216.3996822179791,336.2115760412495
3.2812499,-0.07837331671289505,-29.447885604289535,-4.435252221143361,-349.01168312511,229.84250239589565,353.1109440993124
3.2912499,1.711993664609656,-33.171329201072425,-2.2651970844739635,-283.8901260330031,245.126152650563,368.0116682272904
3.3012499,3.6839220210233328,-36.62103131201888,-0.22552215992032754,-203.28474938600544,256.41803501072854,368.27077841414695
3.3112499,5.960778836289814,-39.4499561912628,1.9062526543232141,-129.96421696819792,261.4881768518985,348.0471601205473
3.3212499,8.48585696633384,-40.560228710537835,4.121960106233526,-82.42794077452837,262.37800361076694,307.18913505974507
3.3312499,11.763695459113595,-39.95354908357807,7.687199188982817,-65.39548553950661,254.38426982175932,246.54408673273736
3.3412499,15.430488614005283,-39.011526670954204,11.822295481278433,-74.86881139027199,233.9733605657787,170.7876734776914
3.3512499,18.486851443652903,-38.61138002793998,14.779668246076708,-104.46287442324196,196.88326935041644,89.50179465661938
3.3612499,21.34236166420373,-37.3838613929017,16.728433402238394,-146.20492137581294,140.3208946716514,6.762898976502917
3.3712499,24.382621924653147,-34.832345309724836,18.850717835088947,-196.72620174878443,65.86248722683018,-77.66201801573469
3.3812499,26.006280275280503,-33.32173041393664,22.5437684032148,-246.35093089717373,-18.18271998891806,-156.58610828898037
3.3912499,25.17095392133307,-33.659090177338044,27.100277648140153,-282.19387001345297,-100.23457337316448,-224.56113097921292
3.4012499,23.281188345511755,-33.931578762502504,30.869104122381987,-303.28250319468316,-173.3715980553705,-288.3046486211579
3.4112499,20.5796125956103,-33.75694414444591,33.98004974852885,-312.2842143903085,-235.23884186777408,-353.4311571268842
3.4212499,16.22478500672081,-34.22472432345261,36.50168534980395,-306.7862598021426,-285.05976288189123,-423.17169947322236
3.4312499,11.071458911866344,-34.925827545139875,37.42674341404031,-282.41987710358103,-325.6345251463048,-484.67814867227565
3.4412499,6.13184633253404,-35.49218887234492,37.06783155056181,-235.08339659444943,-362.6200540521237,-502.64392302339957
3.4512499,0.7579729941374868,-36.254169157161286,36.128060840593,-173.96411887297148,-399.195065849983,-499.254348839353
3.4612499,-5.715460900667979,-36.18467249323974,34.3256512470529,-125.00838517798884,-438.17674203255353,-500.0070429395405
3.4712499,-12.730839498220242,-34.68562224490694,31.61756982717821,-114.88208597450368,-479.5177027506221,-500.0930370537714
3.4812499,-19.393161851735066,-32.24693772109004,28.6142348627369,-150.79791775560096,-500.1318323883723,-500.0029179080954
3.4912499,-26.14080028888138,-30.576763233217115,26.104792869523497,-216.12333620366252,-500.6936236249864,-500.0053736584496
3.5012499,-35.39038961235306,-31.356366462169873,24.47115595659659,-276.38215017306686,-498.9218590961259,-499.61152961711264
3.5112499,-45.897563766709666,-30.07864700632315,20.635654545741396,-309.02421075719764,-469.6076993815175,-501.45887926386933
3.5212499,-52.1723111011419,-20.75628942276485,14.127148487930375,-315.9200097626657,-402.63586631146063,-491.63522686429565
3.5312499,-56.25468459397454,-8.103913924263072,9.378287626770032,-294.0237165772841,-303.4416304534844,-460.08663404231305
3.5412499,-59.51347998363893,0.48449119737325275,5.640384292893707,-236.75656653339547,-187.40075684877863,-423.390353449433
3.5512499,-56.10132549012578,6.058700300461792,1.9401848295688864,-133.22671337570262,-78.35780943563243,-375.35270436611523
3.5612499,-49.236471387657126,8.996723291965987,-2.0620093314752,-1.1885260549037906,8.157545207987365,-303.2334678974604
3.5712499,-42.78413900926835,7.936885466404597,-6.7065959893823,122.97591380926872,69.34973660244661,-207.3986556650726
3.5812499,-37.12831272040791,7.219632616626312,-10.192386598881413,215.31961012817192,109.78210683982435,-106.9057478057559
3.5912499,-33.28024437941979,9.296871340399726,-12.574225154263134,252.34430527849474,138.33762822772965,-27.083826716066568
3.6012499,-30.44573460837479,10.317326665103261,-14.493484132397114,242.32822062443967,156.5764995430417,27.093720352381183
3.6112499,-26.778195839176313,8.229430083739846,-15.480164054117068,213.80155101912004,161.37501063331302,67.8838475881966
3.6212499,-21.92090977472204,4.3788637380673645,-14.60014890597918,181.57443018957818,158.5028366251029,106.28174391431924
3.6312499,-17.066886343941565,0.027535037505653535,-12.623273130156575,153.5212794241807,153.38140727095637,143.75016002764573
3.6412499,-12.590044375416506,-3.8201361591261103,-11.159531128648165,130.0366498696653,148.4290285870311,176.2376363876585
3.6512499,-8.426408150787527,-6.874912550261045,-9.962298575055785,102.38025508016804,145.72212253470641,201.710467793907
3.6612499,-4.8418530937689965,-9.670982193069536,-8.027175904723833,73.9689376765324,144.98882602283442,217.97731044637993
3.6712499,-1.3301710072687372,-12.475706749332407,-5.930212628852302,55.456784117035724,146.99667204553893,221.68244957882916
3.6812499,2.4343896208281963,-15.035722036595185,-3.921297317451235,50.01849953081078,153.4209392303514,211.54175094170225
3.6912499,5.727302668890174,-17.002341076731764,-1.6404186208050944,59.50051517657729,164.4983996546499,188.3630308725115
3.7012499,7.896213781464473,-18.599924006972145,0.3594821337521242,83.9581368398024,179.46690022355196,158.466546732251
3.7112499,8.965906639789075,-19.784253612333085,1.8094461516471976,117.97785002744487,197.2938762068767,130.33658550336142
3.7212499,9.116009685056838,-20.09715499721494,3.01767724955126,160.48396309842826,211.73318239369823,106.49783341687643
3.7312499,8.87061076949388,-19.638899989862107,3.223202627225507,208.0481272972137,217.47906078157627,85.97903050843595
3.7412499,8.822005829558659,-18.844955061295007,1.7099965339398073,248.97995541314333,214.85277269725066,66.53877338065757
3.7512499,9.1151652694877,-17.474018835187785,-0.7218306776278022,277.82049765828936,205.66843705427902,46.975178446941634
3.7612499,9.744757024464448,-15.023541593061367,-2.5804052352269484,287.6564534706434,191.3293961360447,25.168414605702356
3.7712499,10.212591996040764,-12.2018920896557,-3.0864493556161223,272.32258452088627,176.26461732108862,-1.4650339996262947
3.7812499,10.513098758165569,-9.958185545541275,-2.283620698713912,238.11553874993382,164.20689327628946,-32.73945553920151
3.7912499,11.03695996479268,-8.672601320789715,-1.0782942636433421,195.66797161358878,157.43286564130992,-66.94087463782863
3.8012499,11.352892981546399,-8.462466570192458,-0.03791345506322212,154.65389111046733,155.7472735205664,-100.60617547019253
3.8112499,11.334363664886002,-9.059684446911385,0.7502206436259562,130.05622597183506,157.1051079805698,-124.22978642075137
3.8212499,10.961245534406553,-9.665803509059447,0.9973866800463119,123.71107691163932,158.28311080795706,-135.6300445596371
3.8312499,10.08174377838954,-9.651689902022522,0.8031954929211367,130.09662090030636,153.6087474612417,-137.73718692964744
3.8412499,9.387092419029182,-9.30189750822463,0.41379049819784675,147.15743848185073,141.77036606281843,-132.48591747338676
3.8512499,9.36831732332217,-8.816327007711914,-0.2295015208290976,166.33528524559497,128.19994239554998,-123.64758432661687
3.8612499,9.355135255537101,-7.966543427211803,-0.5620149147919025,180.16757143096282,113.05651651579412,-114.64002593283966
3.8712499,8.903234459748273,-6.877950867374938,-0.48486936288950494,186.40372538706964,96.69671565982206,-108.75910560612378
3.8812499,8.445741536935014,-5.761672932343932,-0.4671674180398988,184.02965280064728,83.57032306472976,-106.11147190363447
3.8912499,8.130771173936969,-4.68238404376233,-0.312533826856046,173.24679441749686,73.80213308752036,-106.73548117713122
3.9012499,7.790610981629096,-3.9414783743509525,-0.14002745510809428,156.61918334865373,66.84410238399322,-109.6746326220096
3.9112499,7.668288977192511,-3.8083069228325446,-0.17129715537937584,137.44776366092557,61.17757965799393,-112.48247461923869
3.9212499,7.787467814221879,-4.09455645770763,-0.12355266167457492,117.40036369659072,56.13905177401857,-114.54759210299434
3.9312499,7.792598491970766,-4.598778857856,0.22251665658707598,98.33641337008595,52.79880425237897,-115.56310084123535
3.9412499,7.6428444211861795,-5.076171027808147,0.7869094075341667,82.47076910327362,51.90484044441868,-115.41306082017142
3.9512499,7.597684276392189,-5.299059570335565,1.2736927998555314,70.38840740602049,52.69368732316675,-115.34656762685748
3.9612499,7.66106875690735,-5.345677365866656,1.5592183251686147,62.45085417471402,54.14944915666364,-116.01588409897208
3.9712499,7.646164786437154,-5.254503391289043,1.885148792033603,59.391375356514764,55.16413767484087,-117.11363827711263
3.9812499,7.856331520997315,-5.213005164701465,2.161873288349965,62.47823517707194,53.93444281999269,-117.23840928345639
3.9912499,8.58033296719836,-5.424748617459668,2.1538976645748207,69.13723375495654,50.57100255447007,-113.81979602939552
4.0012499,9.149298717043129,-5.534617658134629,2.0421440544259544,75.55596123591927,45.79219728856084,-107.9842921405784
4.0112499,9.198618629495167,-5.431671318130912,1.6533458984093583,81.14704282771386,40.41519377973149,-102.15283294397014
4.021249900000001,9.24311608025072,-5.144470955768066,1.2976053680587603,83.9985956065812,35.31159325866823,-96.66786271186079
4.031249900000001,9.498808802842852,-4.539541855524859,1.3875941564314358,80.92395323137372,31.622331530524892,-92.554828247321
4.0412499,9.659102731019562,-3.7341208383782507,1.6216874735271085,73.00323483470896,30.392472690039497,-91.72608731419709
4.0512499,9.555680278824292,-2.926783541400688,2.000937627598471,62.78946783673492,30.815989709638277,-94.25143171105793
4.061249900000001,9.323284304839294,-2.310797728559531,2.504181726361847,51.063242924405245,32.53535807167361,-99.24322725374105
4.071249900000001,9.264072502598843,-2.5075027786873174,2.6266110508397325,42.50549434050809,36.235257629360135,-103.18596240894674
4.0812499,9.291913896875087,-3.7543206884352696,2.4662164620921057,41.76557943251587,38.17099307126371,-102.34066285841149
4.0912499,9.425029888696049,-5.083530183771283,2.1346855168043968,46.70050153475861,38.42387798558838,-96.07538397030933
4.1012499,9.723941978586184,-5.536424786822728,1.770131751330355,52.15385558217747,37.552214587012244,-87.07450227296023
4.111249900000001,9.88320259344502,-5.156337710651161,1.8579397172862135,57.876685573267466,33.07520510253682,-79.48879875387716
4.1212499000000005,9.713323225096042,-4.389042760558284,2.2511954421309404,64.6194415306141,25.254409471548392,-76.05574211324985
4.1312499,9.50058101984974,-3.962310009999371,2.686322291649665,67.4567675831984,16.418107252876283,-75.46858631921485
4.1412499,9.570286987850734,-4.164797791356974,3.0704582736987303,63.08088756712419,8.983672325765466,-73.34261172092337
4.151249900000001,9.631002890994612,-4.132499799659473,3.202417091836207,52.12049542959018,3.479171285550621,-69.29264968429051
4.1612499000000005,9.552707054048275,-3.619411865532134,3.15257759471584,37.06991874244551,-1.7727891865642467,-65.36061985070285
4.1712499,9.194024411068872,-3.364107140655039,3.1304394209649864,20.503837169655625,-7.350865560143508,-61.289164046302176
4.1812499,8.683390017420056,-3.443881879643261,3.0788115431318896,4.921883685596391,-12.067359776409242,-56.19454406432746
4.191249900000001,8.530224525878149,-3.5291534007107197,3.1065089569720636,-7.909409296409308,-15.436490279552263,-49.79697289323186
4.2012499000000005,8.725363443808005,-3.5429420175069217,3.3333572038188533,-17.342441773895263,-17.335240670085266,-42.624602979410014
4.2112499,8.982551384460374,-3.619779059919108,3.6081898318958405,-23.44167936364096,-17.857707962015485,-34.82045678138902
4.2212499,9.195484213268308,-3.6429535777335147,3.740925082360796,-26.987162714890403,-17.124135260975187,-26.254582625318694
4.231249900000001,9.175979363302103,-3.3609143433227535,3.749506523774226,-28.06593078708811,-16.133638155510482,-18.152075568647057
4.241249900000001,8.95383244879218,-2.943811079719319,3.745886469748534,-25.947854909523578,-15.707711587685068,-11.493300495768507
4.2512499,8.834387011539391,-2.6959761424040183,3.653245853030809,-20.634600713722065,-15.787065134586632,-5.984913602394045
4.2612499,8.759039514572072,-2.5639310242463553,3.4682080510910787,-13.463903492061684,-16.319732378381207,-1.3831590449188214
4.271249900000001,8.597032514868598,-2.411212227296971,3.286747562965847,-6.949819638271514,-16.929407838902605,2.256096251421755
4.281249900000001,8.462621216456625,-2.2782565903179073,3.2685149946685397,-2.3740119919300837,-17.285304327565466,5.355257075077441
4.2912499,8.354223225995504,-2.1229596327305473,3.3418818514805975,1.0293812884240148,-17.303909267823887,7.4636963153315135
4.3012499,8.296739047818114,-1.9494157055697614,3.3131672764599167,1.9691226345320847,-17.200026117186134,7.9983456842047005
4.311249900000001,8.262830317866129,-1.8693910142566514,3.3833977427981705,0.5748895112233715,-16.943690307500745,7.18787232321567
4.321249900000001,8.154633715462204,-1.8722312839023982,3.624121375776576,-1.7096053108588045,-16.260445681388795,5.921382683322588
4.3312499,7.992542019240047,-1.8916260488710428,3.8859096616310413,-3.8975961374665027,-15.355503877414568,3.7642472474322295
4.3412499,7.783833778272775,-2.1032679222033135,3.9233230302103683,-5.136479169779941,-15.048480267750866,0.637285999866537
4.351249900000001,7.712739331406167,-2.501176735660875,3.7564766615031306,-5.772257486515408,-15.210651549743249,-1.8001502112300463
4.361249900000001,7.772016245346023,-2.784801683538136,3.751724665581973,-5.524930797057987,-15.076902075422883,-3.2103914098502453
4.3712499000000005,7.779234686099857,-2.901055488984034,3.854105080776347,-3.6200252409570517,-14.755756854175088,-4.377374381575497
4.3812499,7.8008026994601005,-3.024313547076511,3.716998324516712,-0.3540390643215506,-14.130348909299109,-5.217693204841113
4.3912499,7.886267885415503,-3.2390094701819674,3.500290783097902,3.3789230769568945,-13.398197846764052,-4.978891379481701
4.401249900000001,8.024673693631696,-3.3402877921398995,3.382425832554713,6.866502883822535,-12.068164315708291,-3.5973291401958996
4.4112499000000005,8.21163226180394,-3.1764143629338517,3.2573333391478063,9.973926733247954,-10.079890791248804,-2.1640200452828737
4.4212499,8.437282100131942,-3.0088220968925543,3.1778169965481986,12.984462924453103,-8.315046378500668,-1.0629302472348146
4.4312499,8.614117312186128,-3.028830384262178,3.0895109557142946,15.51727299225227,-6.474418724442506,0.38658631140745425
4.441249900000001,8.720735249306204,-2.984002394041051,2.9141010954942557,16.824982170085683,-4.472555416028292,1.6509954355389203
4.4512499000000005,8.860032477825063,-2.858254443695282,2.7534390913786293,16.609602856713813,-3.014113287805908,2.1314796377411898
4.4612499,9.017776037734027,-2.8747772683399226,2.7416453465170454,15.068970441486716,-1.799876788988324,2.885578090604441
4.4712499,9.140424272695586,-2.992136419416493,2.843307528521016,13.602187364929783,-0.9631192102418326,3.8884437645054435
4.481249900000001,9.210427378424946,-3.075280690272475,2.8334219741352826,12.05913007409708,-0.47796570712599545,4.794186771990762
4.491249900000001,9.174899334645662,-3.134484327064556,2.7962417543675127,10.073375325705198,-0.7830015531185677,6.040437784482801
4.5012499,9.093844887946268,-3.1406001104137107,2.933276063002068,8.101043024848153,-1.2991282467507785,7.504011185491605
4.5112499,9.04671013772215,-3.170889104988554,3.032149719427069,5.567139853139951,-1.6696685896409174,9.08733868959201
4.521249900000001,8.933280346564775,-3.1818634877565177,3.0626215215917623,2.4908951002823696,-2.468133490577524,10.069234659613127
4.531249900000001,8.851282951124066,-3.065603893340613,3.1126435588491193,-0.008746470714823906,-3.238605755713851,9.459157227694801
4.5412499,8.91674122964081,-3.1230695890353317,3.109535438105553,-0.769637280590457,-3.925411519856566,8.242689014942876
4.5512499,8.933615917585946,-3.4328827291216117,3.0943299965845767,-0.5080787897951214,-4.208947110348214,8.073000285845323
4.561249900000001,8.915961566790273,-3.582363658073698,3.1880964021528135,-0.07102770505588643,-3.8066836743125636,8.615301487646919
4.571249900000001,8.979779822918788,-3.422847244622132,3.340417311555428,0.7804390549167499,-3.09979219333355,8.66603486958434
4.5812499,8.950635501900761,-3.2442456019374246,3.3832688231427763,2.3648430439007715,-2.6525049297271797,8.060484616460004
4.5912499,8.855017258907733,-3.190706755032499,3.377829527339022,4.117862841088828,-2.6091943491693113,7.102166491832348
4.601249900000001,8.800813014603458,-3.22109921843288,3.3808606724864,5.330699646624913,-2.6148572274555892,6.195129000505759
4.611249900000001,8.728120410884138,-3.3420416691694466,3.3514823157125866,5.948645439849216,-2.818101119426418,5.703338499871348
4.6212499000000005,8.637465671295883,-3.45121140620397,3.3542678762958515,6.091851301736735,-3.340465414535401,5.416911595435132
4.6312499,8.523050122856315,-3.3850299938009023,3.3647908027174727,5.788679929073987,-3.9579573781594704,4.553919481355148
4.6412499,8.450409813421093,-3.305833734445327,3.2261356883811114,5.521996818871535,-4.817188967342662,3.5115370181796957
4.651249900000001,8.459307418129203,-3.360942605733317,3.108048450803147,5.033680731925896,-5.689260559650667,3.1544814356026603
4.6612499000000005,8.491897515387405,-3.384497182752465,3.224341426761623,3.939139161060459,-5.855908738861575,3.3511692958397057
4.6712499,8.586111070739703,-3.276102708862485,3.3830954677903007,2.715961740227542,-5.238876699571644,3.5183688452927098
4.6812499,8.680340647890304,-3.2016211784807647,3.480014692827435,1.8086207830588426,-4.051753486868747,3.2639493623845355
4.691249900000001,8.71307265708155,-3.2513592053147975,3.5255447597033327,1.5590462870704622,-2.9624866843132427,2.918634742559309
4.7012499000000005,8.673661662229806,-3.368294436251122,3.4203267229820136,1.9072436264508115,-1.980664896658239,3.0059442563530565
4.7112499,8.57080315508748,-3.482335797656122,3.2668414051621815,2.251953565044888,-1.1614224916538889,3.601706516830192
4.7212499,8.485328595358126,-3.5461546661864127,3.1637515716071962,2.5260248719732807,-0.9576622928424989,4.367705894812712
4.731249900000001,8.467928090400278,-3.52895823014731,3.172839974319951,3.2815944127142282,-0.8574519677686948,5.216249325619736
4.741249900000001,8.49419532419944,-3.4573616491375665,3.215598645630825,4.22244137124521,-0.8040184752861442,5.705546689180654
4.7512499,8.525484439672775,-3.4322817002790016,3.151796689117177,4.958422086713148,-0.850234021965502,5.63161942224313
4.7612499,8.58516192335567,-3.4523782584300444,3.08653253875367,5.311351584179856,-0.6731686663185021,5.296563457007518
4.771249900000001,8.691827262567342,-3.4765643448361563,3.0706481531293823,5.10907013229309,-0.2646530554134533,5.0943171447547275
4.781249900000001,8.778173158878754,-3.5007990104941644,3.0761199082822093,4.191236217497961,0.031705270089054105,5.0931508483090635
4.7912499,8.805583183374395,-3.465082399909306,3.1579400997050544,2.8911117903175727,0.4365114246792692,4.776438888844822
4.8012499,8.838048396996367,-3.344493138422545,3.1900067827705145,1.6743530377852258,1.0381135794014833,3.897835044223895
4.811249900000001,8.852518840758606,-3.2498281246985807,3.1212389162613556,0.764770709009254,1.3080474057123448,2.928896070811419
4.821249900000001,8.76123546145725,-3.312095286339046,3.0491916513672943,-0.18286995176754062,1.413299282054438,2.2109592499128268
4.8312499,8.615370709141892,-3.4355179996851866,2.9919561663000995,-1.4057510899897236,1.6234385732697334,1.646317551764342
4.8412499,8.525583300345689,-3.4848625644911366,2.928245838163181,-2.8393881184234573,1.9433025202246343,1.280082063709786
4.851249900000001,8.480368052716763,-3.488872736995121,2.8839204330176016,-4.29067266701928,2.598098183207732,1.2453371866052798
4.861249900000001,8.39920849449447,-3.4454911994760087,2.8188661966361894,-5.568088695842437,3.3861736696157534,1.445083928805564
4.8712499000000005,8.283896206683622,-3.399741959006189,2.68607016470289,-6.85561773112897,4.425439466396126,1.9903214371758504
4.8812499,8.144477151381377,-3.429383356212265,2.515843578840409,-8.500430724508908,5.54757221112397,3.1956480043367783
4.8912499,7.995812361366101,-3.458714913905386,2.3521128365198187,-11.02065067215891,6.759674532039482,4.851158224088223
4.901249900000001,7.849141531928449,-3.462405259055489,2.235469607646522,-14.699395992829043,8.206420531471352,6.785662832958133
4.9112499000000005,7.7060217785591805,-3.499426133416035,2.198067719160083,-19.531514176751845,9.957594860282924,9.014463684762426
4.9212499,7.522206314971464,-3.6165367966949145,2.1842569833038556,-24.85939947905733,12.221914736448833,11.659917311359907
4.9312499,7.362528520069309,-3.7707603171509425,2.1985070832445617,-29.95868639833874,14.906640845853058,14.696537243133234
4.941249900000001,7.330597453183014,-3.8931382091938755,2.3665528939018903,-34.227202751480554,18.159052615932335,17.632551467525335
4.9512499000000005,7.310792671316604,-3.9907204670222303,2.6550738660447126,-36.7120020917991,22.159115897470915,20.39991310282465
4.9612499,7.19967711640011,-4.0608623191744595,2.937520928971811,-37.049098044915205,26.717749867544736,23.25652350893379
4.9712499,7.102686530780525,-4.108208333724884,3.1972744913838618,-35.06535566326058,31.391854392548495,26.404959291338447
4.981249900000001,6.983683845484857,-4.120659205452874,3.348017977261654,-31.190801686930495,36.07236935135616,30.20991872220567
4.991249900000001,6.735050177612851,-4.038739537570895,3.3363890509534575,-26.333757280792316,40.35013010424439,35.13301909311183
5.0012499,6.426125580016954,-3.8226585560819264,3.2249082494889842,-20.99040429273553,43.98586632102064,40.75434415377737
5.0112499,6.077940750488862,-3.5670648571714954,3.096079410990098,-15.575004569022731,47.32263129416114,47.230534431153835
5.021249900000001,5.733801675293408,-3.365315616815552,3.02809071158041,-10.376002509713082,50.588506142515776,55.244834406773144
5.031249900000001,5.3422216105303555,-3.208152526049528,3.064019374152762,-5.906700267494544,53.93369603118146,64.89357260012065
5.0412499,4.857218937115271,-3.080109124168305,3.0897741653807795,-2.9807875194508737,57.25201040182746,75.85207827810488
5.0512499,4.311903253267655,-3.0493701516118272,3.0949055267532315,-1.743614842389632,60.27298764203122,87.9043288257651
5.061249900000001,3.6984327516626103,-3.151439124047929,3.100848039610398,-3.119933168721051,63.07928470235938,100.61272706007983
5.071249900000001,3.0566061876559028,-3.254116260917817,2.9716336788845843,-7.910816917372198,65.29450628893223,113.39896623549365
5.0812499,2.4875388879257447,-3.2972042401481034,2.6952562610720356,-15.557176978406485,67.09476721439552,126.4169332625534
5.0912499,2.0679521428652845,-3.3428492935008425,2.3705270685867754,-26.71961239451117,69.40381178320794,139.4326440921803
5.101249900000001,1.7984602822879672,-3.4718092817872765,2.1997431072114524,-42.107633631069504,73.1562637138911,151.60449709735923
5.111249900000001,1.5994998706733388,-3.6715084633997916,2.0658344789737977,-60.27497037906897,78.03672693283887,162.8389308032
5.1212499000000005,1.3597562939798253,-4.009009431140511,1.5735264493655414,-79.86103301669995,83.0350789509528,173.2778859170154
5.1312499,1.0094137362940347,-4.638891197470096,0.8899102991989765,-100.94003491040927,88.48588704597988,183.48677433922413
5.1412499,0.6262230035600844,-5.392231422707377,0.38156041816665065,-123.00495785506205,94.69466191875891,193.72868237689534
5.151249900000001,0.31760416489963356,-6.158623151212047,-0.09663345274564265,-144.7334484072594,100.9653181656047,204.07431124499305
5.1612499000000005,0.05511007568591741,-7.057483356353491,-0.4891656010661928,-164.49550634666332,107.63818849455238,214.47696962788928
5.1712499,-0.1529084874241811,-7.93327604932797,-0.8127272572708046,-180.38951679728316,115.85555207010599,224.48492811927215
5.1812499,-0.325575716167302,-8.71018491759654,-1.265284961325007,-189.39927721297096,123.01452028933902,234.39595309593778
5.191249900000001,-0.4903881519393901,-9.684735368857831,-1.6282465999213491,-191.81915213822305,129.79482993440573,245.28858399194772
5.2012499000000005,-0.6143829861425915,-10.679247585373277,-1.8451300190870816,-189.92127773439927,138.37247447476926,257.5695023058611
5.2112499,-0.7789211022238764,-11.492246383868354,-2.0067054371242645,-184.95772994497557,148.32528662184276,270.97045154447795
5.2212499,-0.907355928346687,-12.71379202658537,-1.8491868926431485,-176.61273816369982,158.36919551926718,285.7772373276155
5.231249900000001,-0.9601193584429655,-14.027809650099021,-1.874760502821119,-167.39616218546294,168.6910519697944,300.91874266283105
5.241249900000001,-1.0110041009433461,-15.007157522142991,-2.448828259672223,-159.36192178610568,178.54031880122037,315.47924801071576
5.2512499,-0.8124323588479968,-16.078157039808612,-2.7631760190917367,-153.0331555331024,187.24477909723066,327.7643860586261
5.2612499,-0.4915502063906695,-17.189309188742115,-2.6809229859143806,-151.10812923278786,194.78674530148282,334.6860241872215
5.271249900000001,-0.373130518676939,-18.23600597201928,-2.6600920945837796,-156.71573981127983,201.24851275871936,335.866053002968
5.281249900000001,-0.3657222474257663,-19.542824254980545,-2.426349585616345,-170.50170531527758,206.97085647435318,332.05860224660773
5.2912499,-0.4242483797649419,-20.818746562044296,-1.9200897838655528,-191.1955964693142,211.51613602773983,321.7987260427211
5.3012499,-0.5906806136368337,-22.028687370475488,-1.5982819712308909,-216.0990969431333,214.4051712964559,306.1959694622007
5.311249900000001,-0.5550565418821769,-23.855756263558096,-1.3206936051092695,-240.94590910974858,215.14239256486883,290.3259883404758
5.321249900000001,-0.05993507059111529,-26.001493767343028,-1.005206361482485,-265.5128228651309,213.56048248402118,275.83222452429607
5.3312499,0.5680521825098336,-27.84170123653193,-0.5928451916901747,-286.531027399756,207.8936688390666,260.1569237763227
5.3412499,1.2769201759330244,-29.66522382325155,-0.04999984829770798,-300.8159782777613,197.87920176769592,240.6403700882843
5.351249900000001,2.17943785497639,-32.150697265516236,0.5209282529428241,-307.0230221576168,183.37053907265016,216.7772910864706
5.361249900000001,3.3096162435857637,-35.057773523787375,0.9525531149383941,-301.0181350188347,164.25257753038875,187.39899686302172
5.3712499000000005,4.934117818707481,-37.521205769782526,1.1103863681192458,-283.0211703870943,141.40370308454422,150.433955819949
5.3812499,6.997856411812389,-39.32557685225407,2.0125816839976336,-260.08423022969953,118.06972976347915,106.04909338865342
5.3912499,8.864602696760942,-40.156831634670546,3.704147135258671,-239.8597139324058,96.8186229653679,54.74212397301086
5.401249900000001,10.31502862512522,-40.64211472486689,5.326743434746006,-225.77892939657443,76.64860693650415,-3.3301595738673506
5.4112499000000005,11.350675855087454,-41.06545620707353,7.116015947730258,-220.84171930184712,58.45733722782976,-68.54778826198498
5.4212499,12.013616510652966,-41.24148403205804,9.247559751363386,-220.73792141670657,40.65403276242399,-140.40420585160965
5.4312499,12.619406396263502,-41.34549291991358,11.814867077660479,-221.12488248604112,20.42136015601842,-218.1299965110818
5.441249900000001,12.889661273454015,-41.329601460002415,15.150377094274027,-219.9323901401256,-2.896514254436287,-299.41818687363946
5.4512499000000005,12.157397155935135,-41.17429790270739,19.05567794662958,-210.31398699681696,-30.129366272701688,-380.61391562482197
5.4612499,10.421114959389133,-40.808629288486124,23.06402514535766,-192.6674465512117,-62.24809724464923,-459.08003719065323
5.4712499,7.722206866083124,-40.10146285172867,27.306328194791504,-175.24102299256694,-100.52671117176463,-500.47709550971405
5.481249900000001,3.590705965391766,-39.385641915426966,31.83447989018108,-156.7823989827179,-145.94069398108144,-500.49300508086293
5.491249900000001,-1.8136900118876664,-39.03771810806836,36.1421494756664,-132.62697687222732,-197.27687541276194,-499.4000702189957
5.5012499,-7.838276753655409,-38.8573632066471,39.19445013608401,-111.6596476336244,-254.15688504191075,-500.2898163746042
5.5112499,-14.189215513440617,-38.49802781108957,40.008476541004846,-101.8666842160761,-314.1291098873452,-499.93180112014164
5.521249900000001,-20.305992412053502,-37.79818948597711,38.934213671918386,-98.77977111140049,-368.7802558904798,-499.9916289257052
5.531249900000001,-27.617805699916428,-37.73334872558804,35.00965978686814,-103.65497153474982,-419.5474132893275,-500.036396598972
5.5412499,-36.836175579520734,-38.31450365258828,28.200410637931522,-121.7366242985014,-459.05608519738587,-499.912866677399
5.5512499,-46.51160261821806,-35.81972473904414,21.348124845407348,-148.85490167010602,-464.1375835221792,-500.15579124405565
5.561249900000001,-55.28621812403088,-27.8665981554651,14.625778107398412,-189.71837817729596,-427.6839487957795,-499.95811010072015
5.571249900000001,-57.43087163345162,-16.43462832381854,7.541992881924377,-220.94786480550528,-360.4737466246841,-499.29153265461883
5.5812499,-53.212340633897576,-3.9199737813093414,0.9277181820810023,-220.54075932062088,-269.26550953454165,-502.67211796523634
5.5912499,-52.73126092911286,5.973547857854914,-6.240548326287778,-192.2272770205092,-163.64834030701132,-480.2857079974298
5.601249900000001,-54.34036110023315,10.720030022022607,-12.07845400661885,-119.58090839672573,-69.99487170992961,-400.36327119064055
5.611249900000001,-51.14640125619624,11.388155371564762,-14.373439097030314,-20.69057216797431,12.202187485274795,-287.61238257246123
5.6212499000000005,-46.26957248209579,10.09169913591942,-15.228128883416744,80.26771368694435,84.32280912109886,-163.51614422405424
5.6312499,-41.70342040376952,8.727127975805326,-16.500817897289565,173.2446421709648,134.28951798483817,-47.42562711513967
5.6412499,-36.75947240298971,7.805906262426011,-17.906170732228198,228.6201544245167,167.10803377868706,44.275102814915336
5.651249900000001,-32.31872100134185,6.742380964312517,-17.847355589806643,240.1946428809989,188.57829232932673,105.96312589510738
5.6612499000000005,-27.390628148739907,4.666234039480689,-16.214913619645717,222.98378044451636,200.91843994009642,142.90814184009776
5.6712499,-21.30822362214238,1.4499804597940453,-14.196128164061344,180.67743131388656,206.62019585766518,166.38162761396492
5.6812499,-14.736843456889924,-2.208178826727138,-12.2328665210634,121.7036589484328,205.18295914244044,182.72561460649786
5.691249900000001,-8.490155740995323,-5.59236575998233,-10.32008941685211,61.03114287801654,195.41871682711312,194.51493114676438
5.7012499000000005,-2.7023300639231036,-9.31697984346741,-8.069543624951155,8.212345052759746,178.02525331692104,204.4088055375259
5.7112499,2.0225125649943023,-13.204327886448565,-5.561261680237561,-20.666569157109723,158.32146025374408,209.57094628041548
5.7212499,4.867323579916729,-15.861171738356093,-3.521343504286001,-20.993899430385408,143.17775741357383,203.6223003625275
5.731249900000001,5.914510080688286,-17.574331878417823,-1.9018931736236926,-1.4682595266836411,134.01536994624948,186.41908623362795
5.741249900000001,6.089295318349998,-19.04583137112166,-0.3849105395937637,29.755889783536883,131.3706356084783,163.99717541138898
5.7512499,6.829634318705718,-19.688065898133623,1.274997088063623,66.56006664815924,136.16761345340083,140.13194477207884
5.7612499,8.014478777092778,-19.112736395842973,2.3535599087041352,108.14943328204326,143.96605449203648,115.85356429348137
5.771249900000001,9.208399660421339,-18.015837053303557,2.023730982289763,152.0399898817959,148.74974331553045,94.02586297613819
5.781249900000001,10.261923405859177,-16.751907152716562,1.1333484567912304,186.75408201871738,149.81070687149224,76.2709143324031
5.7912499,10.169950087292547,-14.984534967940917,0.6484957756513613,206.06394830527387,147.51053281756393,60.735093172258225
5.8012499,8.744510255613319,-12.60573299267042,0.23385741074213068,207.41871072037225,140.0625010177204,45.838887053426916
5.811249900000001,7.147619292857254,-10.344877625744575,-0.13326594187558138,188.973554426545,128.30117611758195,30.547633817115457
5.821249900000001,6.407929485431875,-8.86642621770592,-0.39718409354415457,156.92128485398055,116.36656864909475,14.272338899592219
5.8312499,6.801414717054142,-7.857627147661331,-0.7992923349331571,120.58048932916928,104.85683899696265,-3.516167089812872
5.8412499,7.768658676872729,-7.0554123249263165,-1.1872802364077313,89.04390394628884,96.07645150630519,-22.09052564485013
5.851249900000001,8.68215696553245,-6.852855653917233,-1.386740303885982,69.55793495434757,91.89624550041309,-38.94646506234856
5.861249900000001,9.537907274403182,-7.210345535199505,-1.4579895842018913,62.972079801548155,91.43959521166049,-52.59705706282225
5.8712499000000005,10.184426098743788,-7.644198652926622,-1.3465580957945487,67.01034236374093,95.83732020908606,-61.542324251400274
5.8812499,10.28842633013361,-7.918752631708213,-1.104035678223331,79.40041969267504,103.81042366680643,-65.15619108758624
5.8912499,9.970898300943196,-8.11686601913478,-1.0341100745323444,97.82474558771632,112.61364322393774,-63.751487774418365
5.901249900000001,9.498496288476693,-8.197905552100618,-1.2433111990883245,118.89162621971555,120.30772923933482,-58.678352422227725
5.9112499000000005,9.095984048077055,-7.836010264843969,-1.5739132027220317,139.14970339054528,125.41721461305228,-53.1828168802468
5.9212499,9.017867134379575,-7.264576339553849,-1.6732002380408486,157.9179891787342,126.66900505976665,-49.64477672125574
5.9312499,9.06808851966184,-6.703150455199828,-1.5560855466510561,173.48923834188966,125.25921183706114,-49.53132763525357
5.941249900000001,8.964341223202595,-6.113163528089343,-1.410884647871343,184.11557441455489,121.93051245766038,-53.908294579672074
5.9512499000000005,8.995206311646761,-5.858304245643184,-1.5074570432182488,189.4000793794209,116.83756184012827,-61.15632664433893
5.9612499,9.19110521777446,-6.035469291806357,-1.7279510290722728,187.35577942060596,111.89779938693617,-68.43723887904257
5.9712499,9.135958505574708,-6.124034673671073,-1.7105381612286723,178.2713517526229,108.30865546942903,-75.20999390855172
5.981249900000001,8.814834852829932,-5.876396624137873,-1.536613994965176,164.55234713862077,106.28482296735707,-81.98837575898628
5.991249900000001,8.499766893372769,-5.552311575341598,-1.0692471067208564,149.19232677062294,105.45435665817614,-88.73487855237761
6.0012499,8.385341641502947,-5.293391697856664,-0.41065658957919376,136.2086135445795,105.8413382805223,-95.42704584120915
6.0112499,8.518520303202251,-5.11817323950785,0.15189350194033732,128.01484259401548,105.20193962834425,-100.59425350088257
6.021249900000001,8.946858063347443,-5.147388072335432,0.5859132868906031,125.64561493447566,101.72038536797129,-103.49912903031434
6.031249900000001,9.360035946052957,-5.244376007346469,0.7907356628118927,127.66723217689426,96.50054067745343,-104.77187142884313
6.0412499,9.323853453197119,-5.3810208448925065,0.7898394429225667,132.4267089014878,89.4161978602857,-104.00537503611058
6.0512499,9.178722641129138,-5.627326840003208,0.6205439424660235,138.46864087995675,80.4658285427547,-101.07621389400241
6.061249900000001,9.243435056223454,-5.583096658076644,0.4612136170164895,141.46810317496863,71.76683759607764,-97.30757136083483
6.071249900000001,9.29443779889639,-5.133769505475378,0.5776151722381476,139.31673429490115,64.47373757648975,-93.92407020654427
6.0812499,9.291012148854486,-4.666364012170441,0.8233599405599209,133.8207925718891,57.620429304824995,-91.8812835917079
6.0912499,9.505160776518142,-4.287264668731716,0.8971616697524167,127.25906567932148,50.38798163568519,-91.63144863888635
6.101249900000001,10.049178154794026,-4.05739791894538,0.6679635750361662,120.1843879458575,42.38025853128104,-91.54210114556423
6.111249900000001,10.585493435775069,-4.128547673264833,0.5603285873164737,113.38999852810299,33.734472561099764,-89.30879934966306
6.1212499000000005,10.647648124400652,-4.416129407699152,0.8543181902098078,107.53261062345098,25.56114192170218,-84.24333920884446
6.1312499,10.280474011182779,-4.627014907681024,1.088369318041587,101.48505176969178,18.17049212664726,-77.37700245892339
6.141249900000001,9.869674661664229,-4.504204279093508,1.109377854105795,93.98842233517775,11.087116129617687,-71.15308341588808
6.151249900000001,9.514317862830152,-4.121593441092508,1.2152209092978041,83.46997484436787,4.7062311751338815,-67.01352194645649
6.1612499000000005,9.173655352801262,-3.738577537395095,1.4091469101590879,69.81711825708146,-0.30156102406171753,-64.90988716778465
6.1712499,9.171462244882782,-3.6311234502156213,1.6222425212133404,54.47924868828165,-3.569399581158099,-63.46782365472426
6.1812499,9.562106877171374,-3.695651371431663,2.1297463680028548,38.763065802562664,-4.208296751174126,-61.19287994722009
6.191249900000001,9.90266355764237,-3.656647031762533,2.762649738160673,23.97175695481772,-2.151716086378527,-58.82940592980117
6.2012499000000005,9.887250829433885,-3.7090837487521426,3.17967176972605,12.065864793947217,1.0169033643811851,-56.64087967564044
6.2112499,9.568029904681191,-4.10654361182976,3.5689252562039555,5.1895329949745035,4.363586210157955,-53.07046353478431
6.2212499,9.131425270604227,-4.526513018280673,3.7812021898422787,3.2209273425565015,6.812230246012759,-48.184439596872934
6.231249900000001,8.657916159688117,-4.759199701725778,3.723957169487173,4.471912502833891,7.781379713687894,-43.02238452202954
6.241249900000001,8.329463733011238,-4.873599515755158,3.618485718009323,8.273477158331353,7.448060640286981,-38.34045508075078
6.2512499,8.244605380075553,-4.818963613640528,3.5350808648646805,13.568136108504751,5.835204880083318,-34.60630977020973
6.2612499,8.216679138925372,-4.597865450305677,3.5158647311565963,18.0333760006573,3.7835520398119145,-31.948520815036684
6.271249900000001,8.157202390474927,-4.271292869838439,3.4585239072540372,20.988959971594426,1.1171328040354174,-30.400384862828457
6.281249900000001,8.16636050250497,-3.9131832982399612,3.2581069834192222,21.209654004021115,-2.3707756109385594,-29.256456434510756
6.2912499,8.183501107235108,-3.5607956064253585,3.042748696431612,17.225858071675475,-5.59083759851226,-28.28360467500173
6.3012499,8.171227875742952,-3.2809716412033043,2.918889359417968,10.751564448473427,-8.276167410532112,-27.210372407593532
6.311249900000001,8.163371756906315,-3.1924848310239597,2.8043280306065044,3.9703503980678083,-10.419579417422314,-25.2974767763426
6.321249900000001,8.229307665554682,-3.050915578669966,2.546979828309317,-3.2144873867538926,-11.67251526081958,-22.809940032035364
6.3312499,8.466587119428752,-2.767910194352541,2.428663568680945,-10.69837333810649,-11.511282553629874,-20.397727520870404
6.3412499,8.676197611606002,-2.563867215682969,2.63757535286697,-16.873925300632415,-10.461488125388636,-18.064145950661096
6.351249900000001,8.801454501803716,-2.4212765940813243,2.8701494674079027,-20.19075770150336,-8.407131580157774,-15.850884300469785
6.361249900000001,8.797841115277585,-2.392944800020836,3.020462674767319,-20.72753813748847,-6.476199486047161,-13.831982038641549
6.3712499000000005,8.623859095733202,-2.556085522056125,3.111548334952001,-18.330051696980522,-5.361303596788299,-11.815699174710327
6.3812499,8.491054327386832,-2.7435655016587424,3.0160505667873885,-14.247623061744294,-4.200343571107337,-9.547699431606317
6.391249900000001,8.27425770584571,-2.9684610737028145,2.879803418580715,-9.975596529181175,-3.7561777512170873,-6.360144517332245
6.401249900000001,7.937931217704891,-3.1260667771565696,2.791211681836107,-7.258723006982166,-3.620820282868254,-2.2649089264337263
6.4112499000000005,7.711529683733241,-3.0020505169779237,2.649568983931865,-8.195073477010625,-3.1099524198061426,1.1638259549748664
6.4212499,7.7215605464956845,-2.659464408502297,2.543750848188109,-12.477264855148867,-2.0777744194261993,3.3374548405513345
6.4312499,8.049851152861253,-2.2461775170267604,2.669365449869841,-18.581873735712207,-0.36057035482898203,4.356733282599628
6.441249900000001,8.447541123664335,-1.9334408135270549,2.997603866713486,-25.70584342589977,2.2426776192905677,4.361729255325744
6.4512499000000005,8.676993899076155,-1.9767121864951975,3.3363066791923965,-32.696039603350115,5.479683949118584,3.869667918717984
6.4612499,8.779477531615775,-2.3689889406492144,3.610229290298263,-36.83153759152716,8.320730484816872,3.4983508079786656
6.4712499,8.75711317517979,-2.860427181270382,3.8060579080911956,-37.69465426180984,10.289006902938834,3.030018857356406
6.481249900000001,8.73387027834671,-3.231438820607419,3.9573011787420613,-35.83000171969887,11.359534140104282,1.8925463663710886
6.491249900000001,8.825776809261676,-3.5483724173760205,4.0900092762025375,-30.572247390389744,11.564285607467772,0.31147474742152814
6.5012499,8.88099650073615,-3.9285980705868297,4.1710554951163035,-21.879130562178766,11.114378186451145,-1.2036704270714724
6.5112499,8.816631628851278,-4.238509143738109,4.13438409468838,-11.204271966868236,9.944440692063873,-2.4785161586092688
6.521249900000001,8.810004089769922,-4.3347923400243324,3.943129900785692,-0.23753667393077713,8.142304821696984,-3.2728760340984944
6.531249900000001,8.92907299246477,-4.244174095728743,3.6833588613469606,8.31802012436668,6.130384387719729,-3.6446813029157408
6.5412499,9.034236969070658,-4.129456913018953,3.5548730268184063,13.237820024671425,4.170528291637259,-3.6240111722030925
6.5512499,9.154631217357865,-3.989586107139397,3.5065133726552165,14.787579509166674,2.347815872530707,-3.836424996948108
6.561249900000001,9.3837613540133,-3.7758814516127646,3.3178275340788437,12.818818116138798,0.753571766802874,-4.550319095143516
6.571249900000001,9.540382401959329,-3.540535114435561,3.0599443799210966,8.103196999165748,-0.800165766662821,-5.960547102782711
6.5812499,9.47679300517434,-3.3976253176212143,2.8857276805864975,2.2169270490683237,-2.335645044928704,-7.416995761880516
6.5912499,9.38673225230742,-3.403827285027847,2.779721817219127,-3.079685182879776,-3.2500304678155225,-7.9494600924405345
6.601249900000001,9.330316316262387,-3.4658109966231927,2.698442287126355,-7.213307673815359,-3.60579109786072,-7.720588298681335
6.611249900000001,9.260594563646332,-3.4718087346390885,2.7431076464983786,-9.749224022396993,-3.825639059578214,-7.405277794407504
6.6212499000000005,9.205998796658708,-3.443577774480142,2.874707341725852,-10.266978492704137,-3.7467214639820448,-7.3471028124520235
6.6312499,9.079494015334884,-3.4614373917323156,2.9483885365319833,-9.03474033462029,-3.508275107295002,-7.080329697103645
6.641249900000001,8.944638833225644,-3.4835791056370367,3.018404528887392,-6.8051341605216535,-3.615810635740142,-6.243378647287664
6.651249900000001,8.868494469158827,-3.4505773204737,3.191736719377171,-3.6302319770586817,-3.7766153633907407,-5.145090182592122
6.6612499000000005,8.63765191403658,-3.3997408970294627,3.2734494953456275,0.07402397472945552,-3.7159276430648216,-3.734246875341352
6.6712499,8.277570492008595,-3.3722316319484316,3.1838139606264204,3.3874630626961006,-3.929248885268948,-1.7527944588659368
6.6812499,8.04573535251764,-3.3072495254213643,3.0104043821480313,5.597706607805267,-4.062357820867406,0.3602278458267135
6.691249900000001,7.905332203064531,-3.196298751667449,2.925884754088072,6.082983109686851,-4.005177546374847,2.198959562869429
6.7012499000000005,7.7486336650076195,-3.0888610649743815,3.032894468840044,5.047855491531299,-3.260676275452463,3.656036986200031
6.7112499,7.588673290942678,-2.9521576823659164,3.0838828451855322,2.240606324824814,-1.424945502169512,4.491551165512434
6.7212499,7.403710664579801,-2.845112736889684,2.93750144838606,-2.0408615712112463,0.6731071444954655,5.271059045403889
6.731249900000001,7.173369584260144,-2.838928740879959,2.789904672517916,-7.1139620520619005,3.139847123136841,6.838667873615211
6.741249900000001,6.936393282834981,-2.8140594650296187,2.774780036390061,-12.007931716354497,6.172271427404688,9.516078384691014
6.7512499,6.750609318728776,-2.735369012891261,2.8245032775393066,-15.749296005449589,9.838891121991498,13.3653524929104
6.7612499,6.505177056232815,-2.6671190403854266,2.7306750555869423,-18.412733319629336,14.253710673380887,18.539815770635446
6.771249900000001,6.115188096962043,-2.609716617576114,2.5099571947045596,-19.868237998009388,18.372316479427504,25.34010400722583
6.781249900000001,5.677283728402495,-2.5317538876455035,2.243944160566953,-20.29506951744655,22.867367503451078,33.784751820151996
6.7912499,5.194260685649145,-2.493797509226253,1.8544628632356206,-20.275756256003604,27.37030112874508,43.67838544171043
6.8012499,4.6549513614097995,-2.477764633870789,1.4349324825216472,-20.979470410139673,30.744465940756005,54.71121801408171
6.811249900000001,4.065797824860229,-2.5371675248110073,0.9359689147819613,-23.92810106023763,34.61527244332208,67.02565609162635
6.821249900000001,3.494197841811952,-2.6825399590593215,0.26221638098517547,-30.115531601979885,39.612424743392054,80.71303237205396
6.8312499,2.914618079465661,-2.5798692045117506,-0.29668932100477874,-41.11235414225438,45.89438858404434,94.86569271490787
6.8412499,2.1729401984558985,-2.458128748967069,-0.5921958219477836,-55.139075511378834,52.49500762447731,109.65385132665
6.851249900000001,1.3954853110445862,-2.6540327710895864,-0.8211722340328156,-68.31259480590138,58.43462137811716,126.40565505874078
6.861249900000001,0.8845186093405879,-3.0013853028854043,-1.1684359272712765,-80.21448207678107,64.49045749642778,145.9829109789618
6.8712499000000005,0.6243601697653751,-3.4053500650567363,-1.521882364157526,-91.82205985979076,71.34581006065766,168.10100253232727
6.8812499,0.4587845059758542,-3.7456623406476957,-1.6619367742673954,-102.51521636090702,79.68209473522636,191.74031782554152
6.891249900000001,0.377472326601887,-3.987672150210622,-1.6827357931158708,-112.95601295362063,89.51421968032726,216.35668058691328
6.901249900000001,0.2679517532450579,-4.422192079691649,-1.7030394556926167,-123.81801708197153,100.69016041452403,241.9189691189442
6.9112499000000005,-0.05858730138040618,-5.2665952655555355,-1.7690858435566892,-134.4889327821537,113.19354072148899,268.6773291947297
6.9212499,-0.6107664584519737,-6.501863160591156,-2.140716702596055,-144.27700482648217,126.04767628477374,297.23933684158106
6.9312499,-1.408783626078033,-7.855408733405448,-2.8163882855903597,-152.9627860712527,138.01036371126776,326.8031609359878
6.941249900000001,-2.4021154817463803,-9.35771365024828,-3.4358196628181292,-159.46302271424815,149.83643303962103,356.3190396958715
6.9512499000000005,-3.5285951089049012,-11.09158314517099,-3.69745577491468,-165.27088250424407,162.37470123771604,385.3354149944723
6.9612499,-4.641973798331573,-12.69432856196344,-3.6415647712371935,-173.66225548381874,175.9159189606522,410.7796369453271
6.9712499,-5.602159007726328,-14.222365212647635,-3.483888238189916,-183.876252873423,190.6687611712528,428.37770093679256
6.981249900000001,-6.410191174471535,-16.390334526563674,-3.3989106924761776,-195.43091547759406,205.6892374488152,437.87141724463646
6.991249900000001,-6.9718026181053006,-18.871855566290428,-3.171961468924122,-208.69016973369503,219.36443394011152,438.63617049104005
7.0012499,-7.074274457557077,-20.695335547781408,-2.4297212321619113,-220.98871216533576,231.02551581137973,429.48544424638834
7.0112499,-6.571645636056354,-22.834884409138546,-1.0961965913681895,-228.20907136398446,241.2296934647426,413.90911637425745
7.021249900000001,-5.7484318159601075,-26.49469918599767,0.7122539314102424,-226.68115575980258,250.12948220423561,397.1695719081902
7.031249900000001,-5.033524043429592,-30.699294780064097,2.2725538733294703,-215.00220871590383,257.4224848110441,377.9827479185738
7.0412499,-3.992889657621846,-34.17710737081141,2.7900642666184536,-196.6024838122869,261.4531146204238,351.7361936623475
7.0512499,-1.4351489191458793,-36.98622086481926,2.5047661665262377,-179.96645053926517,262.0702193805405,319.280086572383
7.061249900000001,3.0993139874009854,-39.15822320273591,2.7125010051162577,-175.99223223971975,261.578565858448,280.76278834419855
7.071249900000001,8.271546299589676,-40.51755708939927,4.1230394491687035,-188.6738323405255,258.71735944406146,230.06957839638878
7.0812499,12.095980191172627,-41.60268894783356,5.463424682238007,-209.9832476993941,250.62865485498102,166.91989881431692
7.0912499,14.854069659849538,-41.88430027689471,5.5196653965292946,-238.29268438997016,234.89217009894617,93.83686515430867
7.101249900000001,18.01729944747885,-40.88823905569142,5.497118920480489,-276.48533144017534,210.446924521783,9.307650647041198
7.111249900000001,21.160283726036955,-39.834089779460875,6.6080101457227425,-315.2093480334629,178.06830721939872,-80.84881271403344
7.1212499000000005,23.20423894574917,-39.630848296513314,8.88414062857606,-345.54853068033873,137.72897148881444,-163.99417764491696
7.1312499,23.868060590521576,-39.58422743412342,12.533525696837334,-362.25556775136505,90.16170259771943,-234.7123662680689
7.141249900000001,23.007518585524902,-39.06125780936299,17.961941509416572,-357.00797839516673,37.71157356471771,-295.9671877019872
7.151249900000001,21.169607894337688,-38.74458005552847,24.821059561166955,-332.06542035801954,-18.978695892324406,-348.85581967109135
7.1612499000000005,18.19406406788491,-38.88324614475556,31.97090880430549,-298.2444019275561,-76.58573589415757,-395.6760687262865
7.1712499,13.048178147709494,-38.30626237590728,37.55273240893736,-271.62085606028285,-135.56416330065457,-449.3605282351878
7.1812499,6.9946040483091165,-36.43316510286881,40.01213467219051,-264.234949299111,-196.700754400661,-494.3246554293478
7.191249900000001,1.6488063469342698,-35.162227924471736,40.416442060652194,-270.2473129424077,-257.315196588161,-501.8037275995815
7.2012499000000005,-3.237176083585727,-36.11995544049143,40.627695498948256,-271.3009989152541,-311.81397635817706,-499.213191425873
7.2112499,-8.412366251461645,-38.54912560591009,39.95635380759462,-252.5789888329053,-358.2291240672664,-500.17444215247696
7.2212499,-13.756971981020657,-41.03513107924153,37.64858646364507,-212.6905901691299,-399.4224334433664,-500.04034540509645
7.231249900000001,-19.500655983199405,-41.84603201913291,34.148890251764016,-167.5100725150672,-434.375632329685,-499.94139894826645
7.241249900000001,-26.343019829023163,-40.767456631995785,29.943097937365437,-137.5987247829161,-466.0255317549083,-500.0099708305107
7.2512499,-33.345041656117935,-39.36945066765508,24.948659722952762,-136.10278810628265,-489.62391464989054,-500.114793769925
7.2612499,-41.38540356821283,-37.07528152965205,20.481023123078007,-165.94977385645157,-474.86939354644244,-499.6568480350835
7.271249900000001,-52.76368841779278,-31.412219979241293,16.526856160660202,-184.65217278821737,-422.32204465453657,-500.53929728448827
7.281249900000001,-60.91410746831384,-20.54413616607997,10.460005125131648,-163.59907668779124,-350.44125705183006,-499.17007398799245
7.2912499,-58.56315590815986,-6.196924714022198,4.81400031419519,-134.12762800657498,-249.16095282834587,-479.9262134402053
7.3012499,-52.08096666450438,4.646846439434978,0.3621584069056198,-93.14448419569219,-131.45873970286186,-450.81937566098486
7.311249900000001,-48.18092694475892,8.822599507957044,-3.870200671620387,-25.699709065686285,-19.379686538158666,-410.55305052027364
7.321249900000001,-47.424450090866955,7.757878979854909,-7.412954899765639,62.483549884536686,81.80581045266119,-339.69530126746173
7.3312499,-45.21076705044239,5.911120636610246,-11.846805377080933,156.9251572347353,157.6809504329805,-247.2837881645562
7.3412499,-39.116682624082856,6.8901688325016925,-16.691429788630995,238.28015441960954,198.97794177916083,-159.8392661318384
7.351249900000001,-32.93271214887267,8.575378623348199,-19.48234943524411,290.568838702882,215.90304093749938,-91.92472820926506
7.361249900000001,-28.355603975945918,8.241632509221905,-19.578913035562785,310.8612173788893,218.35725115778962,-37.490876846306286
7.3712499,-23.918223204065022,5.781749775861777,-18.40861283395505,305.0456024207045,212.53909307082347,12.847784150807744
7.3812499,-18.92293146798528,1.9710217471599856,-17.03343247076431,277.9117967736226,203.1079699678146,61.91377524370169
7.391249900000001,-13.88424963996637,-1.6569320074168685,-15.502203834195301,232.32097498469196,192.27614330457834,105.9923969398953
7.401249900000001,-9.34430520030948,-4.377840505446644,-13.327235168164917,176.75299804344883,183.60129876662248,136.5646307139435
7.4112499,-5.620703098984496,-6.878504877022945,-10.727512162772223,123.15662365553331,178.3787362768722,149.1493160846947
7.4212499,-2.3173199280430175,-9.481059859549042,-8.013578468951671,76.42711192798386,175.76069464756594,147.59257690003713
7.4312499,1.3622563583504144,-12.855875662819825,-5.060987561854113,41.74792653709443,174.3990060833872,139.136192980702
7.441249900000001,5.205727701768268,-16.260421034256638,-2.3800112276794674,30.09831897532025,173.7817315024077,128.46731303336654
7.4512499,8.276704406969463,-18.22041267282879,-0.37980051152415506,40.69478007001533,174.45299664233272,115.49842275686079
7.4612499,9.937637400894024,-18.9824782592051,0.743661561031428,60.97941335682302,175.8006192014369,98.2600830331472
7.4712499,10.087140468351325,-19.097287473862114,0.9761142731986324,84.03239199169484,175.4845846087175,77.61131932957527
7.481249900000001,9.51928299949153,-18.42699690745033,0.9629532179205277,106.36759702212976,173.31121553233712,53.92601894068874
7.491249900000001,9.101140195553935,-16.858007295420784,1.0396009738622602,126.9333715964448,170.8074587930499,27.26496715520929
7.5012499,9.018813603891392,-14.975619767720564,0.9709684858878393,145.77096976502477,168.20831874243626,0.7600096839588989
7.5112499,9.2394712022394,-13.542145945193377,0.6971244407257057,162.1592486253704,165.63535944333617,-21.056709219038993
7.521249900000001,9.555090395401413,-12.489128644382038,0.6343045937897435,174.62183695038453,162.06785295236958,-38.09213822550385
7.531249900000001,9.678200691223044,-11.324026292216088,0.6948976084846656,181.4610229966573,159.4269580203201,-53.31822358523117
7.5412499,9.876990131275376,-10.042714901504711,0.17526599488393496,182.18654395073096,159.21939389032363,-69.03915278873639
7.5512499,10.02815164150857,-8.91368559244305,-0.5317291764682373,176.10920204753728,158.5980476952783,-85.14833382999028
7.561249900000001,9.652504287460655,-8.014087794494836,-0.6289667356105098,165.88097949675984,156.89537719744027,-100.83543088964976
7.571249900000001,8.917758621293249,-7.32543859947043,-0.36197094866319895,155.2373382411367,155.74643990241353,-115.29236939435856
7.5812499,8.218861904923394,-6.934039826562724,0.019828686574491473,147.60698222177592,153.52526096985898,-126.92943367467288
7.5912499,7.842684002618285,-6.644946579502085,0.23701305911972015,145.05883792257606,148.08944557566917,-133.89520425273176
7.601249900000001,7.92500545583712,-6.165151033768621,-0.004105299249190813,144.72642905015798,139.28764015579046,-135.26398144395645
7.611249900000001,8.167044974347466,-5.54447678035111,-0.2400303061378616,142.97029149420987,128.67113463851612,-132.28725989150166
7.6212499,8.051609882316773,-4.889244316149794,-0.3407346094343972,137.1456943261445,117.78975003909663,-127.47930544711842
7.6312499,7.644682596012594,-4.261147812018238,-0.36230739141439594,126.19102668532439,107.98140832515577,-122.33739191643613
7.641249900000001,7.290700782312822,-3.7199855059136753,-0.3323865274512178,110.98520449757517,100.85619367735212,-117.01347640300054
7.651249900000001,7.11408571808606,-3.0286221023815014,-0.30568069175269286,91.08983160359374,96.65642894493497,-113.61434294990346
7.6612499,7.198223610182848,-2.459662442484783,-0.20694350340118112,69.35681710635609,94.87562211956407,-112.74032934375903
7.6712499,7.50541083602162,-2.5505423593668235,-0.20460433449503032,49.70469921268428,94.27592917779168,-111.90750434737441
7.6812499,7.9009235994942255,-2.943051270602691,-0.4217402171249714,31.789261497628942,93.59778303261021,-110.15643346284013
7.691249900000001,8.098792989895568,-3.0847761556333837,-0.47912297429051426,14.373048078062933,94.36929348828998,-108.0787795598779
7.7012499,7.947201565549652,-3.2312954860071557,-0.1206968195332054,1.560292547258708,95.7120344818601,-105.92767954600204
7.7112499,7.658556767240315,-3.6604836016181594,0.09462975824116054,-3.9437930737531413,96.19133195869843,-103.18119097784793
7.7212499,7.5167039062859775,-4.098670301876568,0.04642675048311917,-2.8976158069952853,95.55677661917616,-99.70230429865015
7.731249900000001,7.608748348298294,-4.314230186946057,0.31067811150306635,2.7533159766355033,94.08070237618183,-96.17912580985329
7.741249900000001,7.690136004710429,-4.363218980619886,0.791101966992926,10.386571188801375,92.68768801113157,-93.64788345831863
7.7512499,7.781062270972142,-4.660311348940726,1.1513286822388695,20.60218905767723,90.2213184850772,-90.26922506497476
7.7612499,8.198135854825404,-5.101593405423126,1.5548261974629427,33.196798023472326,85.92714485498325,-84.84977438277059
7.771249900000001,8.568116330532144,-5.46434695001258,1.9931421388141464,46.62904651748937,80.56692848110191,-78.19500560517307
7.781249900000001,8.49895548540851,-5.682146363853169,2.096827252978544,57.645131059167895,74.94980499529898,-71.58597827276976
7.7912499,8.35014653601729,-5.435592282452576,1.7487931443671534,62.20116907220326,69.27447044901959,-66.40869564226821
7.8012499,8.39878099601713,-4.717325783444445,1.336351334783123,58.38864943687455,63.20902627624899,-63.77526673513335
7.811249900000001,8.513974004592656,-3.846861615932186,1.4045027708272644,47.68529630133005,57.30234378486946,-64.80362189375677
7.821249900000001,8.749521383132084,-3.2138668322807447,1.7106762024481565,34.249328413943964,52.48048038455952,-68.52137653210056
7.8312499,9.247082910518465,-3.0853490331768927,1.7519055269770398,21.6510445270585,48.25279355900718,-71.93032833165029
7.8412499,9.73561592220679,-3.4433522334187474,1.8661342286357683,10.875235050646221,44.25951403694437,-72.0203019989143
7.851249900000001,9.862758022163309,-3.763490251057678,2.2091341783820306,1.4913295195062908,41.59300709674947,-68.9225258847531
7.861249900000001,9.818800585084071,-3.82706623542151,2.2140500855176746,-6.54664903110662,39.21545618233634,-64.49413081096152
7.8712499,9.906645273025854,-3.8419609748096493,2.023062445941198,-12.591895711066309,36.028325489562874,-59.48272704481446
7.8812499,9.926576628645591,-3.9688982719646204,2.171823523466372,-16.52558175808765,32.91939863891144,-54.00169832898219
7.891249900000001,9.811802823657132,-4.076001131295517,2.453189154715564,-17.463643228341354,30.306740635821754,-48.80270389225203
7.901249900000001,9.817913600300772,-4.00548898235775,2.557759911158259,-14.687822065597114,27.79538937348291,-44.13155691955394
7.9112499,9.996040642849117,-3.8740354635184047,2.6409610644965853,-8.639154343865249,25.222780130971472,-39.077132404595936
7.9212499,10.075246275095562,-3.866221251977734,2.9032222914510735,-0.5891633972193537,21.882852568962587,-32.49891930607536
7.931249900000001,9.969861870058393,-3.9749223286991326,3.0789849360346078,7.700231653380656,17.884719583856565,-24.87159635363235
7.941249900000001,9.934257859888804,-3.907290720800834,2.8440827900602366,14.071110173841115,13.124861565586288,-17.13308881436023
7.9512499,9.976582720056838,-3.6399478244427494,2.7035815890199473,17.650051140432765,7.626333425213838,-10.022353681221174
7.9612499,9.954499513150672,-3.37308825692158,2.9680940370507876,19.766719315914596,1.946914973015973,-5.0163852097834685
7.9712499,9.871151816998054,-3.028360673541961,3.0962774082344935,20.902941636035827,-3.701294672284729,-2.7202952776153992
7.981249900000001,9.78895502617118,-2.702051718395641,3.035120764838068,20.06292511870583,-9.035173957346489,-2.7438986675773567
7.991249900000001,9.645310311536688,-2.6609843882200575,3.2353966102728777,16.61436403093003,-13.20159919632916,-3.6222885239073075
8.0012499,9.562288216724768,-2.6523845134984523,3.6257082832251224,10.701138557134113,-15.393601561284267,-5.2572941234075286
8.0112499,9.65674446847191,-2.4961294701792776,3.8079505149625463,3.571347230097435,-16.23950961402221,-7.795112701766968
8.021249899999999,9.641333059858441,-2.574330462518039,3.8046575841190244,-2.3872092215221556,-16.262124341850523,-10.159278061492342
8.031249899999999,9.371217711313026,-2.8888502002868046,3.777949600234298,-5.700354162179473,-15.965220419854758,-11.532769068372778
8.0412499,9.009565250035,-3.152244092234208,3.7645158773649388,-5.96192007570275,-15.82624004414153,-11.927699934632633
8.0512499,8.604621489166192,-3.4061234310560273,3.636788208891912,-3.833233837393627,-15.933231002523616,-11.637159566227115
8.0612499,8.205436388806573,-3.6414683194024207,3.3960630087251125,-0.29705166691534934,-16.503084114837257,-11.442603287013132
8.0712499,7.9677586890619265,-3.776738036060041,3.3063217362987904,3.3097039759731284,-17.4068511477033,-11.47552621720016
8.0812499,7.921748636707741,-3.8683249116755283,3.4838075280070897,5.60633452567874,-17.57776283886425,-11.790256595296096
8.0912499,7.9731439337888945,-3.9309166861925684,3.624549359394151,6.871807715268195,-17.057690595893284,-12.849423399939175
8.1012499,8.15666659409785,-3.833017823710968,3.572392506514332,7.86404389532616,-16.055546112025464,-14.194211984402193
8.111249899999999,8.325609793303812,-3.7201497683061033,3.5288207823031223,9.290812481471455,-15.13457799563934,-15.234227303931508
8.1212499,8.28836268233704,-3.7112228149800233,3.4640892392197715,11.102228431836924,-14.121600165955646,-15.960410004167073
8.1312499,8.188144336648449,-3.6960428347895955,3.165353438526562,11.588554203675288,-13.03140889296148,-16.199737678682308
8.1412499,8.078094332407924,-3.637284887697287,2.8957119405571476,10.60051019660815,-12.90916166292019,-15.76382886687533
8.1512499,8.006474377736605,-3.4694588454951365,2.831243341805704,8.346493953317193,-12.496309903661494,-14.727303974950821
8.1612499,8.132510156785951,-3.1522002409382988,2.756846726297062,4.633263598580728,-11.820379242259639,-13.657919254823547
8.1712499,8.387690119370195,-2.8666151403906346,2.71771904364949,0.3151997300186595,-11.875272673534003,-12.917179035420096
8.1812499,8.584625292947871,-2.717846105216208,2.816767184747144,-4.2161813312134235,-11.857528297812227,-12.712320507573411
8.191249899999999,8.662821877319336,-2.6330344651042568,2.9155048834143,-9.510449284110404,-11.914900629947073,-12.580705976643193
8.201249899999999,8.65071845403903,-2.639070642572974,2.9685649773646046,-15.268862089045841,-12.708636432509369,-12.518038372463154
8.2112499,8.564079444458878,-2.8610042348252502,2.8806418383697405,-20.293130097378302,-13.524223288021936,-11.738926686937155
8.2212499,8.464663961054436,-3.311018153206663,2.7970154857615097,-24.839396747063095,-14.431274940604716,-9.443398391659555
8.2312499,8.47534820843507,-3.677298110316858,2.956250816599629,-27.878464445961743,-15.003210607130635,-6.869110360455909
8.2412499,8.62642982370107,-3.7447599037349275,3.1067916177312362,-27.954040587607974,-14.77885223555409,-5.684382501221702
8.2512499,8.723482567567663,-3.8301843194272838,2.9813511986200685,-25.68010323734853,-14.3167232464878,-5.740435447121615
8.2612499,8.692575119339642,-4.092909806476121,2.8330533401597826,-21.476833716127032,-13.332911215810798,-5.326457414115851
8.271249899999999,8.682640940285843,-4.232216839793656,2.745220866076501,-16.480770813997363,-11.601192633234731,-4.413029910154416
8.281249899999999,8.743655262021887,-4.151513266415385,2.6118157640387265,-11.034700083334664,-9.57871088667563,-3.432628203436316
8.2912499,8.822220081418877,-4.061702892719645,2.432755685674807,-4.158788108132619,-7.899706260758357,-2.1691660096946253
8.3012499,8.920948166287497,-3.9966505009584576,2.183492068740436,3.9941996582844856,-6.842241703636886,-0.593975963132984
8.3112499,9.02753950046205,-3.7587735822355914,1.9662090643457348,11.744436191380384,-5.812382368625843,1.2149521388915652
8.3212499,9.184218786519532,-3.4399645466243634,1.976921710728908,16.61140369047492,-4.691381047471211,1.9959006558782515
8.3312499,9.332609146808831,-3.1792670714563953,2.0372381816295744,19.14212440358372,-3.4736466025932784,1.8248239917064994
8.3412499,9.279497621820603,-3.0283864756567134,1.972653958858927,19.72107428258371,-2.3365936227809927,1.200834100657936
8.3512499,9.044043159743264,-3.0532772978537004,1.984769082416175,18.24087004508527,-1.5958178551449396,0.24707339719907243
8.361249899999999,8.841536510885671,-3.118792744224482,2.1474845521292556,14.841173008622787,-0.8534023940009888,-0.8439388223334627
8.3712499,8.712920814495371,-3.126439235496637,2.327089140692458,10.43881861992702,-0.2809802173228265,-2.0085548199468075
8.3812499,8.567330356169084,-3.195716861810089,2.547516595305559,6.517628661203128,-0.07452481427502239,-3.262783893716189
8.3912499,8.36939080374928,-3.357690120889981,2.697189930161605,3.249363052604922,0.27536892348096204,-4.229133256085384
8.4012499,8.167558129713154,-3.5084171918797944,2.6662473622065543,-0.2821927230404763,0.7982058981758995,-4.635537318964657
8.4112499,8.09895647955825,-3.5604268138510786,2.663202329412774,-3.8719453208745467,1.2537620583898792,-4.71347275376706
8.4212499,8.189808606977808,-3.5471975015412602,2.802521252079061,-6.4252339306793536,2.181950937326199,-4.655956478623397
8.4312499,8.282315932694546,-3.567900072619477,2.9593545325818043,-7.733680413508716,3.671729867698165,-4.480838766748414
8.441249899999999,8.336989936202627,-3.6104935615659874,3.019988826260056,-7.428061690503916,5.625332308998739,-4.305279063766148
8.451249899999999,8.405358387614386,-3.6225786119848946,3.045389730334727,-5.299820105508842,7.672902954732853,-3.5575178699331342
8.4612499,8.405988358334207,-3.6267153443437072,3.0457185525451242,-1.864609132263138,9.587248178891013,-2.1003900639817648
8.4712499,8.337986561886721,-3.6050639797960455,2.88362171347783,1.387541689807802,11.33917154689827,-0.10917709318197011
8.4812499,8.227144204279687,-3.56704315616877,2.7085203562164457,3.859523236634623,12.378893639674489,1.5043278562200846
8.4912499,8.127766896168835,-3.5819784500915133,2.6035769149819368,5.305223571665297,12.790073435674033,2.805126721848366
8.5012499,8.209077978457065,-3.5869807453339986,2.5131082003409935,5.6014841281500525,13.047245628888307,3.8400162779800464
8.5112499,8.440681002828452,-3.5304830341438325,2.5200674060083728,4.885472972895365,13.234317534583408,4.649881268317031
8.521249899999999,8.633143461862897,-3.5243022253843814,2.719727550639311,3.0349419662111754,13.530651924858198,5.493800734941426
8.531249899999999,8.722517496291042,-3.5139946973862646,2.9525275247415506,0.4278474396611415,13.893471705395065,5.931236069053729
8.5412499,8.781019207272953,-3.5276138114636315,3.028595071608831,-2.1981391393402356,13.969540106504098,5.8313372623956665
8.5512499,8.773850634890502,-3.6824934369022295,2.9745674192390754,-5.141472397474931,13.515269047376744,5.681085643432672
8.5612499,8.677170967552748,-3.812425600590412,2.8801446075841444,-8.358247655101295,12.792319742309516,5.881613604757318
8.5712499,8.588657786343692,-3.852631641020091,2.7955518933700403,-11.740976684409956,11.901296986483798,6.13252742870623
8.5812499,8.49033227130783,-3.8936538507383482,2.6744782272863246,-15.028020538214742,10.65829403008499,6.247985857648545
8.5912499,8.517957580608634,-3.9272403393040167,2.6738565204200557,-17.545324548427022,9.417593200817167,6.377184977276481
8.6012499,8.806270832670828,-3.8525308929282924,2.8885066939123014,-18.424461749444834,9.057047571668413,6.384064910339327
8.611249899999999,9.096370425685347,-3.6878152129120996,3.0795997950327187,-16.89713364368089,9.477119276430157,6.232512529539888
8.6212499,9.283339191407878,-3.6146625700314523,3.192007173918501,-13.443862608339995,9.977857044575304,6.192211700616909
8.6312499,9.403280073003359,-3.6765012809273614,3.2394021081202493,-8.770599766428358,10.16347973880262,6.395592691582734
8.6412499,9.385507747986205,-3.6953390803612365,3.183998220574517,-3.999874426423623,9.970374232054118,6.743937830930159
8.6512499,9.30379621730954,-3.572542085259534,3.149191201361262,0.15955170954424977,9.481448200519111,6.682653121153136
8.6612499,9.199271010030268,-3.426387271659685,3.1377380830192254,3.437402006093901,8.354947436167912,5.703228546652921
8.6712499,8.980034740924333,-3.3975738406235028,2.9934138734548563,5.350380893699282,6.55012649438374,3.9308758122121854
8.6812499,8.768498827737687,-3.3969611211669704,2.7813327084947947,5.534355313249516,4.032560438619789,2.3596892049784945
8.691249899999999,8.799435923337086,-3.321796110720916,2.767857308801495,4.5810757763285705,1.342160713033685,1.2005830434698614
8.7012499,8.96507456987055,-3.2390956302504543,2.925098196623763,3.57465061031479,-0.6748355856194175,-0.08408087548362518
8.7112499,9.01975068092195,-3.160339248592568,2.9425344125783233,1.9589792982690053,-2.091448087695812,-1.3201913740711264
8.7212499,8.939879316702022,-3.1727574499404123,2.910634824361957,-0.4774046582751778,-3.2252855236242044,-2.296236270497523
8.7312499,8.87747979770714,-3.226832113980988,3.0190630921713653,-2.0113345621638676,-3.9477048579747107,-3.167023831798447
8.7412499,8.832225673496879,-3.194799222817463,3.0453113268923007,-2.233691634999031,-4.303781546300622,-3.911115288082773
8.7512499,8.692211916617172,-3.1831794228348835,2.9489988180138127,-1.5033682722187316,-4.349934972881272,-4.3876058269474285
8.7612499,8.521096591747087,-3.266304289496958,2.896243162883684,0.48710767361298896,-4.1948960917736935,-4.413858397461619
8.771249899999999,8.462976927404977,-3.3688422455319675,2.9315174566559135,3.56968750066818,-3.832828905538777,-3.9299690279718624
8.781249899999999,8.527014585135442,-3.3798464552266543,3.059231060908212,7.095869806262145,-2.958638223862787,-3.1570217436589347
8.7912499,8.548659122406892,-3.3296775495638204,3.2097060289777692,11.317460153084221,-1.483531888838042,-2.3885560891572566
8.8012499,8.431074447877931,-3.282244519169915,3.224422853676658,15.160871919797403,0.2793913912530406,-1.3353430313687624
8.8112499,8.267100331577144,-3.2661713587741827,3.090038660909146,17.768517069803977,1.7921011934970226,0.15626581697228642
8.8212499,8.120675364597853,-3.2693234940789173,2.957323262362579,19.611269463801662,3.470555240941854,2.0275331995443
8.8312499,7.946052096852632,-3.3227488378541894,2.852836280241163,21.054386750151444,5.2056305868062065,4.550602993906617
8.8412499,7.753535509032841,-3.3764733352837872,2.705863646079169,21.81094411022474,6.656846178508661,7.733607504385704
8.8512499,7.6008274750949125,-3.3914493044860206,2.5412644039602137,21.84251329502437,8.296295022354148,11.402730768157532
8.861249899999999,7.462557058012562,-3.3878175316934023,2.421825279675226,21.31624377580483,10.080047236372879,15.323647830285132
8.8712499,7.232427422235367,-3.385217384755368,2.3569623192427587,20.21900866650402,11.89895953780609,19.52039047695407
8.8812499,6.861099499372273,-3.4122097105987885,2.2933008331841758,18.562687830339055,14.354462281094863,24.472694616662935
8.8912499,6.407243549601343,-3.474824466681367,2.1724041654386395,16.807923698464062,17.178314578007534,30.42086522404743
8.9012499,6.026808279215241,-3.490952464875071,2.0430966346988733,15.174526172256854,20.664912990263506,37.63448481750006
8.9112499,5.66135836055802,-3.431179690425139,1.8701395637548834,12.798308332135697,25.398973169724904,45.899087226731
8.9212499,5.173377311465816,-3.346269999202509,1.526811146458016,9.362213817073822,30.14876374690974,54.86525765381161
8.9312499,4.735942327534753,-3.2742004730711676,1.1450747292412624,4.152333972002579,35.731144382050545,64.71668975130511
8.941249899999999,4.261672477125894,-3.2545706082942507,0.8797184986979482,-3.0521326619719997,42.07728904486553,75.04519903338178
8.9512499,3.462632503140312,-3.372242257832438,0.4012552786161375,-11.690213531393137,48.10253530429524,86.2111384791607
8.9612499,2.517006798471793,-3.670344917976121,-0.25973579655187184,-23.302978981435267,54.135002074745834,99.44480923764715
8.9712499,1.6885583307628833,-4.022686336094864,-0.7126306639315966,-38.19470973654125,60.59888994152122,115.00269969997039
8.9812499,1.0793911009248534,-4.304881205850347,-0.9776919203020016,-54.884949217987064,68.05362355974961,132.20427242873592
8.9912499,0.8160611213494865,-4.483890648606692,-1.1337728867734815,-73.71299093729,78.01857114971351,150.3333785180977
9.0012499,0.7590356099541138,-4.649008059426623,-1.0961743135435513,-95.48009847488836,91.33106572957843,169.6838795166835
9.0112499,0.6703690707153374,-4.942828573793664,-0.9336121550212313,-117.88071087745789,106.10766325187855,187.7097332465854
9.0212499,0.45133837149226314,-5.412615117156299,-0.896219443733672,-140.04707049830643,121.40866104820718,203.7627907197078
9.0312499,0.12601741303988434,-6.171643478703648,-0.9952751305152194,-160.83795333926668,136.42264907540894,219.6157704866851
9.0412499,-0.21337370171556186,-7.2868468879565,-1.137699646428061,-177.78444199786603,150.16442614407086,235.98191834375513
9.0512499,-0.6836518263232929,-8.44750640286824,-1.3477737980243387,-189.57152577487838,161.58764090212992,252.47107681327157
9.0612499,-1.331483021822236,-9.51241456820352,-1.5666225356855763,-197.55469657703816,170.74656348182955,268.63592597554907
9.0712499,-1.9972259627934732,-10.444232237312153,-1.7210936285605463,-202.24230195337148,178.38346269643108,283.07523589189225
9.0812499,-2.660289405968599,-11.213259019761592,-1.7844497182396717,-202.72348318573611,184.22587301603676,294.7005224395438
9.0912499,-3.244107432912995,-12.053416496445372,-1.7296632388388227,-198.9480424100345,188.9826314316533,303.7117523994889
9.1012499,-3.7174139185361885,-12.988429281346878,-1.6419233429352067,-192.96722102394605,193.50493279950487,310.4366212943279
9.1112499,-4.146483912270688,-14.214235697391349,-1.3497739257654913,-186.15804032176635,197.35657734304618,316.6374040924033
9.1212499,-4.261306266133124,-16.039789506009086,-0.8218135191422608,-179.92869993310956,201.5986592409557,324.273218793796
9.1312499,-4.0767490603497984,-17.885494580071175,-0.18646273976423372,-177.25013258411923,205.52342840741122,331.69915182710497
9.1412499,-3.9574826460725916,-19.097754240193908,0.4386535053072522,-178.58647210609936,209.95857319466035,335.8706461015279
9.1512499,-3.8267000236108,-19.799814348438733,0.5783083394024923,-184.27383056528998,215.64719724351377,334.9420079213868
9.1612499,-3.1923119642502535,-20.728718493931872,0.5663640633207114,-194.3691913790141,219.9448372459957,328.52608488084337
9.1712499,-1.9223054830358828,-22.45363508520025,1.0023093967887173,-209.4335158907121,224.4663902686682,316.7689961981536
9.1812499,-0.3716729081451805,-24.5426757197134,1.4723465853872855,-225.57531507184754,227.84413735535193,300.56431390836593
9.1912499,1.2915916588151086,-26.437991278103524,1.553897549393914,-238.13436981668116,228.6968438794891,280.5940265262436
9.2012499,3.0503316550642197,-28.7607908898112,1.6395260331059307,-246.94346166640062,227.1289697406801,257.2420832391606
9.2112499,4.673625649454373,-31.926598253940746,2.081548588149784,-251.0092277558983,223.2539359752001,232.31753754690612
9.2212499,6.24120720218763,-34.88415151758658,2.6696385044137396,-250.1852429484776,219.2735593207501,204.5403676799366
9.2312499,7.820520503034846,-36.60022568671623,3.4832887930381973,-243.15009993222992,213.63152502137393,167.61129584187356
9.2412499,9.282937761135047,-37.996641902651746,4.796530351089391,-228.6945059988833,202.87708414298032,119.4331419483025
9.2512499,10.970276351891913,-40.070640363780825,6.215924371097917,-209.95836594614923,185.1479375985052,64.90485877821394
9.2612499,13.3224701542459,-41.75006348617362,7.06752304495481,-195.9233868879847,158.86997283831883,5.526142119522918
9.2712499,16.169698180463975,-41.74176259094951,8.176727765486124,-199.29263891012243,125.36098934168953,-61.53899034441152
9.2812499,18.6528818896217,-40.3815978951726,10.67207722281419,-222.1581663977579,87.5511737523667,-135.30573263056164
9.2912499,19.713129862573705,-39.4083453391869,14.10845518098708,-257.5856953162649,44.50138503748475,-209.4526925027147
9.3012499,18.942668482240595,-40.087057947719394,17.63953531413858,-299.36740436278393,-1.963356453685074,-278.65384523253874
9.3112499,16.58718803422949,-41.62648571350172,21.033077566539134,-332.079339426866,-47.49334622582315,-342.47183060613133
9.3212499,13.341783572552277,-42.82608066804172,24.88833540134317,-339.1193641174726,-91.76528055658389,-410.5846994532349
9.3312499,9.306610607732418,-44.207566189817165,29.10927176095209,-317.0696900008699,-137.29982901249332,-477.6548820194247
9.3412499,4.132741123870161,-45.34121411707844,32.538301977382794,-273.59097176324536,-186.4084079162716,-502.64037784921874
9.3512499,-1.3856679663048475,-44.49407649295308,34.32024057304617,-223.53014886595474,-239.00193745543328,-499.47250483061515
9.3612499,-6.419757922993852,-42.466500846981134,35.198275497581776,-179.1890158956929,-294.068012867571,-499.83130598511826
9.3712499,-11.682631781104138,-39.719747421171796,35.97454428383812,-148.0261246099039,-349.68486329745326,-500.19162272368305
9.3812499,-17.336495979101347,-35.30701225124433,35.534584597371655,-136.73899028587442,-402.06438617406116,-499.94192658548934
9.3912499,-22.310411662508134,-31.67121174901794,34.07036376147053,-150.97271260877397,-446.1515989693279,-499.95599011204484
9.4012499,-27.66414394341961,-31.5227676920285,31.760431091959564,-182.77299667119152,-476.33550452546234,-500.0587517464406
9.4112499,-34.27154656161929,-31.992936803122056,27.652776873166953,-219.52699204704888,-484.9608833113122,-500.1794214340526
9.4212499,-44.12868118076903,-28.626565424872886,22.621030735373203,-246.7420652511621,-463.67771120064526,-499.0472497485509
9.4312499,-57.178770620104146,-24.339490436270253,16.21098068477107,-255.41978772661415,-399.30842774356336,-502.35030043872706
9.4412499,-63.576276076126355,-18.840255933489342,9.25380683298445,-215.93359532493088,-304.198596594222,-493.07761415383
9.4512499,-59.29364094159746,-3.9888392904475807,5.439743563780899,-124.33498766081823,-202.52390585507868,-447.6813830582776
9.4612499,-52.741955914263826,12.92592636371659,2.2993797387821306,-57.925496853086564,-86.08123826413603,-410.71552335326754
9.4712499,-49.89229282465773,17.981848185058887,-2.7232320957872305,4.500115260811045,22.825576905783887,-374.6718474164183
9.4812499,-46.81117378888842,13.739674748373837,-8.412858671400254,97.45801360468785,101.61889314882454,-295.0500647162759
9.4912499,-41.65627987751189,9.324248678398305,-13.849607556610694,182.69459160557994,149.18465961613066,-179.19128050996704
9.5012499,-36.39913093756478,8.552185828187207,-17.841416044374725,239.2792118699315,172.64083965594634,-66.0131137530183
9.5112499,-31.441052009309775,10.516708346277035,-19.513761148550945,262.80445390036897,181.95997640787144,17.61464451406681
9.5212499,-26.742003571337946,10.773123819812792,-18.784922986342163,259.1404402286524,183.99898211610508,72.20906520733644
9.5312499,-21.585215785935972,7.212450878490349,-16.44368894437537,237.66517800117407,184.64272140589324,111.44936741611544
9.5412499,-16.314645414054304,2.376166654380163,-14.19164076913901,198.62927160940413,183.7165687353667,141.4553083465506
9.5512499,-11.859801507207742,-1.9547010157573437,-12.343016062417304,140.09412358989186,178.6575127016392,162.94944431221415
