# Time (seconds),Accel_X,Accel_Y,Accel_Z,Gyro_X,Gyro_Y,Gyro_Z
0.0012499,9.095572471618652,-3.584120035171509,1.558625340461731,32.71484375,18.8140869140625,24.2919921875
0.0037499,9.165003776550293,-3.603273630142212,1.5538369417190552,33.50830078125,18.798828125,24.261474609375
0.0062499,9.244012832641602,-3.6367924213409424,1.5466543436050415,34.0118408203125,18.951416015625,24.4598388671875
0.0087499,9.301473617553711,-3.667917013168335,1.5298948287963867,34.1339111328125,18.9208984375,24.71923828125
0.0112499,9.342175483703613,-3.6966474056243896,1.5203180313110352,34.4696044921875,18.646240234375,24.810791015625
0.0137499,9.361329078674316,-3.7253777980804443,1.5203180313110352,34.515380859375,18.707275390625,24.9176025390625
0.016249899999999998,9.368511199951172,-3.751713991165161,1.5322890281677246,34.36279296875,18.798828125,24.9786376953125
0.0187499,9.370905876159668,-3.773261785507202,1.558625340461731,34.1949462890625,18.341064453125,24.9176025390625
0.021249900000000002,9.411606788635254,-3.8307228088378906,1.625662922859192,34.027099609375,17.9290771484375,25.3143310546875
0.023749899999999997,9.454702377319336,-3.8594532012939453,1.6639702320098877,33.935546875,17.7764892578125,25.390625
0.0262499,9.50498104095459,-3.8810009956359863,1.7094600200653076,33.5235595703125,17.8070068359375,25.4669189453125
0.028749900000000002,9.555258750915527,-3.9001545906066895,1.7477672100067139,33.1573486328125,17.5933837890625,25.7568359375
0.031249899999999997,9.603142738342285,-3.9193081855773926,1.7956513166427612,32.71484375,17.3187255859375,25.8636474609375
0.0337499,9.646238327026367,-3.9456443786621094,1.843535304069519,32.379150390625,17.486572265625,25.7110595703125
0.0362499,9.679757118225098,-3.9815573692321777,1.8986018896102905,31.982421875,17.333984375,25.4669189453125
0.0387499,9.701305389404297,-4.015076160430908,1.9560627937316895,31.31103515625,16.815185546875,25.1922607421875
0.0412499,9.706093788146973,-4.060565948486328,2.006340980529785,30.6854248046875,16.693115234375,25.2532958984375
0.0437499,9.708487510681152,-4.113238334655762,2.054224967956543,30.242919921875,16.5557861328125,24.993896484375
0.0462499,9.694122314453125,-4.182670593261719,2.0853497982025146,29.8614501953125,16.4031982421875,24.5513916015625
0.0487499,9.672574996948242,-4.268861770629883,2.118868589401245,29.5257568359375,16.204833984375,24.444580078125
0.0512499,9.648633003234863,-4.364629745483398,2.1475989818573,29.0374755859375,15.80810546875,24.3072509765625
0.053749899999999996,9.619902610778809,-4.469974517822266,2.1811177730560303,28.4576416015625,15.31982421875,23.9105224609375
0.0562499,9.600749015808105,-4.570530891418457,2.22660756111145,27.984619140625,15.0146484375,23.345947265625
0.0587499,9.579200744628906,-4.671087741851807,2.2697031497955322,27.4505615234375,14.5416259765625,23.3306884765625
0.061249899999999996,9.550470352172852,-4.7620673179626465,2.322375535964966,27.069091796875,14.16015625,22.94921875
0.0637499,9.516951560974121,-4.850652694702148,2.3702597618103027,26.6571044921875,13.6566162109375,22.4456787109375
0.0662499,9.48343276977539,-4.946420669555664,2.4229321479797363,26.123046875,13.18359375,22.0794677734375
0.0687499,9.454702377319336,-5.039794445037842,2.470816135406494,25.7415771484375,12.725830078125,21.4691162109375
0.0712499,9.428366661071777,-5.135562419891357,2.52109432220459,25.4364013671875,12.3291015625,21.026611328125
0.0737499,9.404424667358398,-5.228936672210693,2.559401512145996,25.1007080078125,11.962890625,20.538330078125
0.0762499,9.3828763961792,-5.307945251464844,2.5929205417633057,24.627685546875,11.65771484375,19.9737548828125
0.0787499,9.35654067993164,-5.374982833862305,2.6192567348480225,24.3072509765625,10.9100341796875,19.47021484375
0.0812499,9.342175483703613,-5.434837818145752,2.63362193107605,23.9410400390625,10.1470947265625,18.9208984375
0.0837499,9.32541561126709,-5.492298603057861,2.6455929279327393,23.590087890625,9.58251953125,18.1121826171875
0.0862499,9.327810287475586,-5.5545477867126465,2.655169725418091,23.2391357421875,9.1552734375,17.0745849609375
0.0887499,9.334992408752441,-5.621585369110107,2.674323320388794,22.94921875,8.331298828125,16.3421630859375
0.0912499,9.351752281188965,-5.688623428344727,2.7054479122161865,22.6287841796875,7.5836181640625,15.6097412109375
0.0937499,9.361329078674316,-5.758055210113525,2.7437551021575928,22.4456787109375,7.110595703125,14.58740234375
0.0962499,9.368511199951172,-5.825092792510986,2.784456491470337,22.2625732421875,6.5460205078125,13.7786865234375
0.0987499,9.375694274902344,-5.884947776794434,2.829946517944336,21.8658447265625,6.04248046875,12.908935546875
0.1012499,9.385271072387695,-5.935225963592529,2.87064790725708,21.8658447265625,5.4779052734375,12.0849609375
0.1037499,9.399636268615723,-5.9735331535339355,2.918531894683838,21.6827392578125,4.7760009765625,11.016845703125
0.1062499,9.409213066101074,-5.999869346618652,2.96162748336792,21.5606689453125,4.45556640625,9.9639892578125
0.1087499,9.423578262329102,-6.021417140960693,2.9927520751953125,21.331787109375,3.814697265625,9.1400146484375
0.1112499,9.433155059814453,-6.035782337188721,3.021482467651367,21.6064453125,2.99072265625,8.2550048828125
0.1137499,9.440337181091309,-6.04775333404541,3.0382418632507324,21.575927734375,2.6702880859375,7.4005126953125
0.1162499,9.457097053527832,-6.04775333404541,3.045424461364746,21.54541015625,2.3040771484375,6.4849853515625
0.1187499,9.478644371032715,-6.038176536560059,3.050212860107422,21.2249755859375,1.861572265625,5.4168701171875
0.1212499,9.50498104095459,-6.01423454284668,3.0550012588500977,20.965576171875,1.312255859375,4.6234130859375
0.1237499,9.533711433410645,-5.995080947875977,3.050212860107422,20.751953125,0.885009765625,3.8299560546875
0.1262499,9.552865028381348,-5.9735331535339355,3.050212860107422,20.56884765625,0.4119873046875,2.9296875
0.1287499,9.567230224609375,-5.966350555419922,3.0550012588500977,20.2789306640625,-0.030517578125,1.89208984375
0.1312499,9.579200744628906,-5.95677375793457,3.050212860107422,20.4315185546875,-0.48828125,1.0986328125
0.1337499,9.583989143371582,-5.9519853591918945,3.047818660736084,20.172119140625,-0.9765625,0.1068115234375
0.1362499,9.591172218322754,-5.940014362335205,3.043030261993408,19.927978515625,-1.5106201171875,-0.4730224609375
0.1387499,9.59596061706543,-5.920860767364502,3.0310592651367188,19.7296142578125,-1.7852783203125,-1.129150390625
0.1412499,9.605537414550781,-5.899312973022461,3.021482467651367,19.622802734375,-2.105712890625,-1.953125
0.1437499,9.615114212036133,-5.872976779937744,3.0095114707946777,19.3634033203125,-2.6702880859375,-2.6397705078125
0.1462499,9.634267807006836,-5.8442463874816895,3.002328872680664,18.9971923828125,-2.9449462890625,-3.2501220703125
0.1487499,9.660603523254395,-5.810727596282959,2.9903578758239746,18.6309814453125,-3.173828125,-3.9520263671875
0.1512499,9.68933391571045,-5.770026206970215,2.983175277709961,18.463134765625,-3.509521484375,-4.241943359375
0.1537499,9.72285270690918,-5.724536418914795,2.9712042808532715,18.2647705078125,-3.8299560546875,-4.913330078125
0.1562499,9.751583099365234,-5.671864032745361,2.956839084625244,18.1427001953125,-3.90625,-5.7373046875
0.1587499,9.773131370544434,-5.614402770996094,2.940079689025879,17.76123046875,-4.0130615234375,-6.2103271484375
0.1612499,9.78989028930664,-5.5545477867126465,2.9257144927978516,17.6544189453125,-4.2877197265625,-6.7138671875
0.1637499,9.799467086791992,-5.494692802429199,2.913743495941162,17.2882080078125,-4.669189453125,-7.293701171875
0.1662499,9.799467086791992,-5.434837818145752,2.896984100341797,17.2271728515625,-4.669189453125,-7.843017578125
0.1687499,9.797073364257812,-5.384559631347656,2.873042106628418,16.7083740234375,-4.913330078125,-8.331298828125
0.1712499,9.782708168029785,-5.331887245178223,2.846705913543701,16.204833984375,-5.0201416015625,-9.124755859375
0.1737499,9.761159896850586,-5.284003257751465,2.8107926845550537,15.80810546875,-5.2337646484375,-9.429931640625
0.17624990000000001,9.734824180603027,-5.238513469696045,2.7700912952423096,15.1824951171875,-5.4473876953125,-9.7808837890625
0.1787499,9.708487510681152,-5.193023681640625,2.741360902786255,14.70947265625,-5.4931640625,-10.498046875
0.1812499,9.684545516967773,-5.1595048904418945,2.7054479122161865,14.2059326171875,-5.645751953125,-10.711669921875
0.1837499,9.66299819946289,-5.128379821777344,2.676717519760132,13.6566162109375,-5.9051513671875,-10.772705078125
0.1862499,9.643844604492188,-5.109226226806641,2.6455929279327393,13.2598876953125,-6.2103271484375,-11.1846923828125
0.1887499,9.624691009521484,-5.097255229949951,2.6144683361053467,12.7410888671875,-6.317138671875,-11.4593505859375
0.1912499,9.605537414550781,-5.085284233093262,2.5905263423919678,12.14599609375,-6.40869140625,-11.7340087890625
0.1937499,9.581595420837402,-5.078101634979248,2.5737667083740234,11.322021484375,-6.622314453125,-12.0391845703125
0.1962499,9.552865028381348,-5.063736438751221,2.5546131134033203,10.894775390625,-6.8511962890625,-12.298583984375
0.1987499,9.524134635925293,-5.04218864440918,2.535459518432617,10.4522705078125,-7.049560546875,-12.4359130859375
0.2012499,9.493009567260742,-5.011064052581787,2.513911724090576,9.552001953125,-7.3699951171875,-12.6495361328125
0.2037499,9.461885452270508,-4.972756862640381,2.4851813316345215,9.0484619140625,-7.87353515625,-12.6953125
0.2062499,9.437943458557129,-4.924872875213623,2.4660277366638184,8.0413818359375,-8.1329345703125,-12.9547119140625
0.20874990000000002,9.421183586120605,-4.884171485900879,2.4396915435791016,7.26318359375,-8.1939697265625,-13.3209228515625
0.2112499,9.404424667358398,-4.853046894073486,2.4181437492370605,6.5765380859375,-8.087158203125,-13.2598876953125
0.2137499,9.3828763961792,-4.833893299102783,2.3965959548950195,5.8746337890625,-8.2855224609375,-13.5650634765625
0.2162499,9.35654067993164,-4.824316501617432,2.3702597618103027,4.8980712890625,-8.4991455078125,-13.8397216796875
0.2187499,9.320627212524414,-4.81473970413208,2.341529369354248,3.997802734375,-8.7890625,-13.885498046875
0.2212499,9.284713745117188,-4.807557106018066,2.3104045391082764,3.0517578125,-9.033203125,-13.7786865234375
0.2237499,9.251194953918457,-4.8051629066467285,2.2840683460235596,1.9073486328125,-9.063720703125,-13.9923095703125
0.2262499,9.205705642700195,-4.790797710418701,2.255337953567505,0.885009765625,-9.2620849609375,-14.2059326171875
0.2287499,9.10993766784668,-4.752490520477295,2.207453966140747,-1.52587890625,-9.70458984375,-14.0380859375
0.2312499,9.064447402954102,-4.733336925506592,2.185906171798706,-2.6092529296875,-9.9639892578125,-14.2364501953125
0.2337499,9.05247688293457,-4.738125324249268,2.1523873805999756,-3.265380859375,-9.9334716796875,-14.2059326171875
0.2362499,9.042900085449219,-4.752490520477295,2.1284453868865967,-3.7841796875,-9.70458984375,-14.2059326171875
0.23874990000000001,9.040505409240723,-4.76924991607666,2.10210919380188,-4.5013427734375,-9.9029541015625,-14.2364501953125
0.2412499,9.028534889221191,-4.7836151123046875,2.075772762298584,-5.67626953125,-10.3607177734375,-13.9923095703125
0.2437499,8.992621421813965,-4.776432514190674,2.0470423698425293,-6.53076171875,-10.5438232421875,-14.0533447265625
0.2462499,8.949525833129883,-4.759673118591309,2.0159177780151367,-7.7362060546875,-10.8489990234375,-13.916015625
0.2487499,8.904036521911621,-4.7405195236206055,1.98958158493042,-8.7738037109375,-11.5814208984375,-13.702392578125
0.2512499,8.87051773071289,-4.733336925506592,1.9632453918457031,-9.429931640625,-11.749267578125,-13.4735107421875
0.25374990000000003,8.841787338256836,-4.728548526763916,1.944091796875,-9.8876953125,-11.9476318359375,-13.5498046875
0.25624990000000003,8.834604263305664,-4.738125324249268,1.9249382019042969,-10.3912353515625,-12.2833251953125,-13.5040283203125
0.25874990000000003,8.825027465820312,-4.73573112487793,1.8986018896102905,-11.29150390625,-12.4664306640625,-13.5345458984375
0.26124990000000003,8.813055992126465,-4.72376012802124,1.8722656965255737,-11.65771484375,-12.7105712890625,-13.3819580078125
0.26374990000000004,8.791508674621582,-4.699818134307861,1.8363527059555054,-12.359619140625,-12.87841796875,-13.2598876953125
0.26624990000000004,8.762778282165527,-4.683058738708496,1.7932571172714233,-13.0767822265625,-13.24462890625,-13.24462890625
0.26874990000000004,8.722076416015625,-4.666299343109131,1.7405846118927002,-13.6566162109375,-13.9007568359375,-13.3514404296875
0.27124990000000004,8.698134422302246,-4.67827033996582,1.6950948238372803,-14.4500732421875,-14.3890380859375,-13.2904052734375
0.27374990000000005,8.676587104797363,-4.687847137451172,1.644816517829895,-14.739990234375,-14.434814453125,-13.3209228515625
0.27624990000000005,8.678980827331543,-4.714183330535889,1.625662922859192,-15.167236328125,-14.6636962890625,-13.519287109375
0.27874990000000005,8.676587104797363,-4.716577529907227,1.6136919260025024,-15.869140625,-15.07568359375,-13.3209228515625
0.28124990000000005,8.681375503540039,-4.7189717292785645,1.625662922859192,-16.5557861328125,-15.44189453125,-13.3819580078125
0.28374990000000005,8.688557624816895,-4.716577529907227,1.644816517829895,-17.364501953125,-15.4571533203125,-13.458251953125
0.28624990000000006,8.69095230102539,-4.714183330535889,1.6687586307525635,-17.88330078125,-15.44189453125,-13.3209228515625
0.28874990000000006,8.702922821044922,-4.716577529907227,1.6927006244659424,-18.4173583984375,-15.8538818359375,-13.427734375
0.2912499,8.700529098510742,-4.711789131164551,1.7166426181793213,-18.73779296875,-16.1895751953125,-13.336181640625
0.2937499,8.698134422302246,-4.704606533050537,1.723825216293335,-19.134521484375,-16.0980224609375,-13.24462890625
0.2962499,8.688557624816895,-4.683058738708496,1.7190368175506592,-19.6380615234375,-16.082763671875,-13.12255859375
0.2987499,8.671798706054688,-4.666299343109131,1.6974890232086182,-20.4925537109375,-16.0064697265625,-13.5040283203125
0.3012499,8.640673637390137,-4.627991676330566,1.6663644313812256,-20.9503173828125,-16.1590576171875,-13.6260986328125
0.3037499,8.607154846191406,-4.58968448638916,1.6280571222305298,-21.6217041015625,-16.1590576171875,-13.9007568359375
0.3062499,8.56645393371582,-4.54419469833374,1.5969325304031372,-22.2930908203125,-16.5863037109375,-14.312744140625
0.3087499,8.547300338745117,-4.505887508392334,1.5682021379470825,-22.9949951171875,-16.998291015625,-14.4500732421875
0.3112499,8.540117263793945,-4.469974517822266,1.5514427423477173,-23.5595703125,-16.8609619140625,-14.739990234375
0.3137499,8.547300338745117,-4.446032524108887,1.5442601442337036,-24.139404296875,-16.815185546875,-15.07568359375
0.31624990000000003,8.56645393371582,-4.424484729766846,1.5442601442337036,-24.6734619140625,-16.9677734375,-15.2740478515625
0.31874990000000003,8.580819129943848,-4.410119533538818,1.5466543436050415,-25.32958984375,-16.845703125,-15.625
0.32124990000000003,8.576030731201172,-4.398148536682129,1.5610195398330688,-25.7568359375,-16.845703125,-15.8538818359375
0.32374990000000003,8.556877136230469,-4.393360137939453,1.580173134803772,-26.5045166015625,-16.7083740234375,-16.17431640625
0.32624990000000004,8.516175270080566,-4.3861775398254395,1.599326729774475,-27.1148681640625,-16.6015625,-16.29638671875
0.32874990000000004,8.463502883911133,-4.369418144226074,1.6280571222305298,-27.9693603515625,-16.7388916015625,-16.8609619140625
0.33124990000000004,8.40843677520752,-4.343081951141357,1.644816517829895,-28.900146484375,-16.6778564453125,-17.08984375
0.33374990000000004,8.372523307800293,-4.311957359313965,1.6639702320098877,-29.541015625,-16.4337158203125,-17.2576904296875
0.33624990000000005,8.35336971282959,-4.290409564971924,1.6711528301239014,-29.9530029296875,-16.0369873046875,-17.6239013671875
0.33874990000000005,8.35336971282959,-4.2760443687438965,1.6735470294952393,-30.120849609375,-16.05224609375,-17.9901123046875
0.34124990000000005,8.365341186523438,-4.273650169372559,1.6759412288665771,-30.3955078125,-15.7623291015625,-18.4326171875
0.34374990000000005,8.377311706542969,-4.268861770629883,1.6735470294952393,-30.609130859375,-15.4571533203125,-18.829345703125
0.34624990000000005,8.379706382751465,-4.259284973144531,1.6759412288665771,-30.9600830078125,-15.19775390625,-19.0277099609375
0.34874990000000006,8.367734909057617,-4.242525577545166,1.6759412288665771,-30.975341796875,-14.9078369140625,-19.53125
0.35124990000000006,8.341399192810059,-4.2329487800598145,1.6831238269805908,-31.1737060546875,-14.8773193359375,-19.775390625
0.3537499,8.307879447937012,-4.2329487800598145,1.6927006244659424,-31.280517578125,-14.556884765625,-20.3094482421875
0.3562499,8.276755332946777,-4.244919776916504,1.7118542194366455,-30.914306640625,-14.58740234375,-20.538330078125
0.3587499,8.248024940490723,-4.268861770629883,1.7381904125213623,-30.731201171875,-14.22119140625,-20.6756591796875
0.3612499,8.2312650680542,-4.302380561828613,1.7741034030914307,-30.303955078125,-13.97705078125,-20.721435546875
0.3637499,8.224082946777344,-4.333505153656006,1.8195933103561401,-29.9530029296875,-13.7176513671875,-21.1334228515625
0.3662499,8.22887134552002,-4.367023944854736,1.8698714971542358,-29.4342041015625,-13.397216796875,-21.3623046875
0.3687499,8.243236541748047,-4.393360137939453,1.9249382019042969,-28.80859375,-13.12255859375,-21.484375
0.3712499,8.26239013671875,-4.410119533538818,1.9704279899597168,-28.0303955078125,-12.8021240234375,-21.484375
0.3737499,8.281543731689453,-4.41969633102417,2.011129379272461,-27.1453857421875,-12.20703125,-21.331787109375
0.3762499,8.29590892791748,-4.414907932281494,2.0446481704711914,-26.4129638671875,-11.871337890625,-21.575927734375
0.37874990000000003,8.300697326660156,-4.398148536682129,2.0661959648132324,-25.665283203125,-11.2457275390625,-21.697998046875
0.38124990000000003,8.303091049194336,-4.371812343597412,2.0877439975738525,-24.8260498046875,-10.833740234375,-21.7132568359375
0.38374990000000003,8.29830265045166,-4.338293552398682,2.1092917919158936,-24.10888671875,-10.345458984375,-21.820068359375
0.38624990000000003,8.29590892791748,-4.314351558685303,2.126051187515259,-23.040771484375,-9.8114013671875,-21.759033203125
0.38874990000000004,8.29590892791748,-4.2951979637146,2.1523873805999756,-21.91162109375,-9.70458984375,-21.759033203125
0.39124990000000004,8.29830265045166,-4.288015365600586,2.1715409755706787,-20.7366943359375,-9.4757080078125,-21.8353271484375
0.39374990000000004,8.310274124145508,-4.285621166229248,2.190694570541382,-19.9432373046875,-9.033203125,-21.9268798828125
0.39624990000000004,8.329427719116211,-4.278438568115234,2.207453966140747,-19.195556640625,-8.60595703125,-22.003173828125
0.39874990000000005,8.355764389038086,-4.261679172515869,2.2218191623687744,-18.096923828125,-8.331298828125,-21.9573974609375
0.40124990000000005,8.38688850402832,-4.23773717880249,2.233790159225464,-17.1966552734375,-7.965087890625,-21.7437744140625
0.40374990000000005,8.415618896484375,-4.20421838760376,2.2385785579681396,-16.326904296875,-7.4005126953125,-21.728515625
0.40624990000000005,8.446743965148926,-4.1611223220825195,2.2385785579681396,-15.5181884765625,-6.744384765625,-21.728515625
0.40874990000000005,8.473079681396484,-4.110844135284424,2.22660756111145,-14.9688720703125,-6.28662109375,-21.5911865234375
0.41124990000000006,8.49941635131836,-4.048594951629639,2.2170307636260986,-14.434814453125,-5.7830810546875,-21.5301513671875
0.41374990000000006,8.525752067565918,-3.9839515686035156,2.205059766769409,-14.09912109375,-5.37109375,-21.4996337890625
0.41624990000000006,8.561665534973145,-3.9169139862060547,2.2002713680267334,-13.580322265625,-4.7454833984375,-21.5911865234375
0.4187499,8.604761123657227,-3.8546648025512695,2.1978771686553955,-13.4124755859375,-4.241943359375,-21.5606689453125
0.4212499,8.662221908569336,-3.799597978591919,2.2002713680267334,-13.092041015625,-3.5400390625,-21.453857421875
0.4237499,8.734047889709473,-3.7445313930511475,2.2026655673980713,-12.87841796875,-2.9754638671875,-21.453857421875
0.4262499,8.810662269592285,-3.7038300037384033,2.212242364883423,-12.8631591796875,-2.197265625,-21.4080810546875
0.4287499,8.89445972442627,-3.6727054119110107,2.2218191623687744,-12.664794921875,-1.4801025390625,-21.240234375
0.4312499,8.971074104309082,-3.6583402156829834,2.2457611560821533,-12.5732421875,-0.5340576171875,-21.2554931640625
0.4337499,9.038111686706543,-3.667917013168335,2.279279947280884,-12.4053955078125,0.2288818359375,-20.7977294921875
0.4362499,9.121908187866211,-3.7181951999664307,2.3726539611816406,-12.0086669921875,1.739501953125,-20.111083984375
0.4387499,9.131484985351562,-3.7469255924224854,2.4133553504943848,-11.810302734375,2.593994140625,-19.53125
0.44124990000000003,9.129091262817383,-3.773261785507202,2.449268341064453,-11.53564453125,3.5552978515625,-18.768310546875
0.44374990000000003,9.105149269104004,-3.794809579849243,2.470816135406494,-11.2457275390625,4.0435791015625,-17.852783203125
0.44624990000000003,9.066842079162598,-3.8139634132385254,2.47560453414917,-11.04736328125,4.852294921875,-16.7694091796875
0.44874990000000003,9.014169692993164,-3.8379054069519043,2.4684219360351562,-10.8184814453125,5.523681640625,-15.869140625
0.45124990000000004,8.96149730682373,-3.8522706031799316,2.4468741416931152,-10.2691650390625,5.9051513671875,-14.8162841796875
0.45374990000000004,8.901641845703125,-3.864241600036621,2.408566951751709,-9.9029541015625,6.4544677734375,-13.6871337890625
0.45624990000000004,8.848969459533691,-3.8546648025512695,2.3511061668395996,-9.2620849609375,6.8511962890625,-12.451171875
0.45874990000000004,8.796297073364258,-3.823540210723877,2.27209734916687,-8.9263916015625,7.293701171875,-11.749267578125
0.46124990000000005,8.753201484680176,-3.773261785507202,2.1787235736846924,-8.5601806640625,7.476806640625,-10.7421875
0.46374990000000005,8.71728801727295,-3.7038300037384033,2.0685901641845703,-7.904052734375,7.4920654296875,-9.613037109375
0.46624990000000005,8.69095230102539,-3.627215623855591,1.9512743949890137,-7.568359375,7.354736328125,-8.8653564453125
0.46874990000000005,8.664615631103516,-3.5386300086975098,1.8267759084701538,-6.8359375,7.14111328125,-7.781982421875
0.47124990000000005,8.643068313598633,-3.450044631958008,1.7094600200653076,-6.0272216796875,6.591796875,-7.4310302734375
0.47374990000000006,8.62391471862793,-3.3518824577331543,1.5897499322891235,-5.6304931640625,6.04248046875,-7.1868896484375
0.47624990000000006,8.616731643676758,-3.2561142444610596,1.4867992401123047,-5.035400390625,5.4473876953125,-6.805419921875
0.47874990000000006,8.628703117370605,-3.1651346683502197,1.3862427473068237,-4.45556640625,4.3487548828125,-6.561279296875
0.4812499,8.652645111083984,-3.0837318897247314,1.2976573705673218,-3.7078857421875,3.387451171875,-6.3323974609375
0.4837499,8.700529098510742,-3.0166940689086914,1.2234370708465576,-3.4027099609375,2.6397705078125,-6.4239501953125
0.4862499,8.765172004699707,-2.9688100814819336,1.1516109704971313,-2.838134765625,1.983642578125,-6.34765625
0.4887499,8.83939266204834,-2.9281086921691895,1.0989385843276978,-2.227783203125,1.1138916015625,-6.2408447265625
0.4912499,8.923190116882324,-2.896984100341797,1.0414776802062988,-1.5411376953125,-0.1220703125,-6.04248046875
0.4937499,9.006986618041992,-2.868253707885742,0.9911994934082031,-1.312255859375,-0.91552734375,-6.103515625
0.4962499,9.083600997924805,-2.8395233154296875,0.9481038451194763,-0.9307861328125,-2.13623046875,-6.0272216796875
0.4987499,9.148244857788086,-2.808398485183716,0.9050082564353943,-0.8697509765625,-3.0670166015625,-5.7220458984375
0.5012499,9.205705642700195,-2.7892448902130127,0.8619126081466675,-0.946044921875,-3.60107421875,-5.6304931640625
0.5037499000000001,9.248801231384277,-2.7724854946136475,0.8188169598579407,-0.701904296875,-4.3792724609375,-5.2032470703125
0.5062499,9.29189682006836,-2.765302896499634,0.7781155705451965,-0.6256103515625,-5.401611328125,-4.7607421875
0.5087499000000001,9.332598686218262,-2.765302896499634,0.7374141216278076,-0.6561279296875,-6.195068359375,-4.425048828125
0.5112499,9.378087997436523,-2.7533318996429443,0.6967126727104187,-0.823974609375,-7.1258544921875,-3.8909912109375
0.5137499,9.418789863586426,-2.741360902786255,0.6584054827690125,-1.129150390625,-8.1329345703125,-3.509521484375
0.5162499,9.464279174804688,-2.7293899059295654,0.6129156351089478,-1.4801025390625,-8.8958740234375,-2.960205078125
0.5187499,9.50737476348877,-2.734178304672241,0.569819986820221,-1.861572265625,-9.5977783203125,-2.38037109375
0.5212499,9.543288230895996,-2.7509377002716064,0.524330198764801,-2.3193359375,-10.5133056640625,-1.800537109375
0.5237499,9.57201862335205,-2.786850690841675,0.4836287498474121,-2.410888671875,-11.2762451171875,-1.2054443359375
0.5262499,9.588777542114258,-2.8203697204589844,0.4405331015586853,-2.716064453125,-12.0849609375,-0.6103515625
0.5287499,9.59596061706543,-2.8562827110290527,0.40462008118629456,-3.1280517578125,-13.1378173828125,-0.030517578125
0.5312499,9.603142738342285,-2.8850131034851074,0.3663128614425659,-3.41796875,-13.916015625,0.4425048828125
0.5337499,9.600749015808105,-2.9041666984558105,0.3232172429561615,-3.814697265625,-14.5263671875,0.885009765625
0.5362499000000001,9.59596061706543,-2.913743495941162,0.28969839215278625,-4.364013671875,-15.625,1.434326171875
0.5387499,9.579200744628906,-2.9089550971984863,0.24420857429504395,-4.8675537109375,-16.387939453125,1.800537109375
0.5412499000000001,9.555258750915527,-2.8993782997131348,0.19871874153614044,-5.4931640625,-16.998291015625,2.0294189453125
0.5437499,9.531316757202148,-2.8993782997131348,0.15083470940589905,-6.072998046875,-18.00537109375,2.25830078125
0.5462499000000001,9.512163162231445,-2.911349296569824,0.09576806426048279,-6.4849853515625,-18.829345703125,2.410888671875
0.5487499,9.502586364746094,-2.935291290283203,0.05027823522686958,-6.683349609375,-19.500732421875,2.655029296875
0.5512499000000001,9.495404243469238,-2.9735984802246094,0.014365210197865963,-7.293701171875,-20.1568603515625,2.3651123046875
0.5537499,9.493009567260742,-3.0166940689086914,-0.016759412363171577,-7.9345703125,-20.8892822265625,2.50244140625
0.5562499000000001,9.493009567260742,-3.0621838569641113,-0.033518824726343155,-8.1634521484375,-21.4385986328125,2.5482177734375
0.5587499,9.493009567260742,-3.112462282180786,-0.05267243832349777,-8.3465576171875,-22.216796875,2.410888671875
0.5612499000000001,9.488221168518066,-3.162740468978882,-0.05506663769483566,-8.5601806640625,-22.7508544921875,2.2125244140625
0.5637499,9.485827445983887,-3.2178070545196533,-0.05506663769483566,-8.9569091796875,-23.193359375,1.9989013671875
0.5662499000000001,9.473855972290039,-3.2752678394317627,-0.05027823522686958,-9.307861328125,-23.8189697265625,2.0599365234375
0.5687499,9.457097053527832,-3.332728862762451,-0.0454898327589035,-9.613037109375,-24.0325927734375,1.953125
0.5712499000000001,9.437943458557129,-3.3901896476745605,-0.047884032130241394,-9.94873046875,-24.1546630859375,1.9683837890625
0.5737499,9.411606788635254,-3.450044631958008,-0.05267243832349777,-10.31494140625,-24.4903564453125,1.8463134765625
0.5762499000000001,9.38048267364502,-3.5027170181274414,-0.05506663769483566,-10.650634765625,-24.566650390625,1.678466796875
0.5787499,9.349357604980469,-3.555389642715454,-0.05267243832349777,-10.9710693359375,-24.810791015625,1.556396484375
0.5812499,9.311050415039062,-3.60566782951355,-0.038307227194309235,-11.29150390625,-24.90234375,1.495361328125
0.5837499,9.279925346374512,-3.6511576175689697,-0.016759412363171577,-11.71875,-24.9481201171875,1.434326171875
0.5862499,9.248801231384277,-3.691859006881714,0.011971008032560349,-11.9171142578125,-25.1617431640625,1.52587890625
0.5887499,9.215282440185547,-3.732560396194458,0.043095629662275314,-12.2833251953125,-25.0396728515625,1.40380859375
0.5912499,9.188945770263672,-3.778050184249878,0.08379705995321274,-13.031005859375,-24.6734619140625,0.9918212890625
0.5937499,9.157821655273438,-3.825934410095215,0.12928688526153564,-13.427734375,-24.71923828125,0.67138671875
0.5962499,9.129091262817383,-3.883395195007324,0.181959331035614,-13.5345458984375,-24.5208740234375,0.457763671875
0.5987499000000001,9.10993766784668,-3.9456443786621094,0.2298433631658554,-13.8702392578125,-23.98681640625,0.1220703125
0.6012499,9.095572471618652,-4.005499362945557,0.26575639843940735,-13.9312744140625,-23.74267578125,-0.1678466796875
0.6037499000000001,9.0859956741333,-4.067748546600342,0.2992752194404602,-14.1448974609375,-22.9949951171875,-0.762939453125
0.6062499,9.069235801696777,-4.1180267333984375,0.31603461503982544,-14.3280029296875,-22.4151611328125,-1.190185546875
0.6087499000000001,9.047688484191895,-4.175487995147705,0.33518823981285095,-14.1754150390625,-22.3236083984375,-1.52587890625
0.6112499,9.011775016784668,-4.235342979431152,0.3447650372982025,-14.0228271484375,-22.003173828125,-2.01416015625
0.6137499000000001,8.966285705566406,-4.2951979637146,0.3471592366695404,-13.885498046875,-21.484375,-2.5482177734375
0.6162499,8.927978515625,-4.357447147369385,0.3471592366695404,-14.0228271484375,-20.9808349609375,-3.082275390625
0.6187499000000001,8.892065048217773,-4.414907932281494,0.33758243918418884,-13.85498046875,-20.4620361328125,-3.692626953125
0.6212499,8.87051773071289,-4.479551315307617,0.3232172429561615,-13.214111328125,-19.8211669921875,-4.08935546875
0.6237499000000001,8.863334655761719,-4.548983097076416,0.31603461503982544,-12.63427734375,-19.0277099609375,-4.6539306640625
0.6262499,8.860940933227539,-4.627991676330566,0.31124621629714966,-11.810302734375,-18.2952880859375,-5.1116943359375
0.6287499000000001,8.853757858276367,-4.6950297355651855,0.31364041566848755,-10.7879638671875,-18.096923828125,-5.218505859375
0.6312499,8.844181060791016,-4.745307922363281,0.33518823981285095,-10.0860595703125,-17.547607421875,-5.5999755859375
0.6337499000000001,8.822632789611816,-4.771644115447998,0.35913026332855225,-9.3994140625,-17.08984375,-6.2408447265625
0.6362499,8.801085472106934,-4.776432514190674,0.38307225704193115,-8.8043212890625,-16.4794921875,-6.5765380859375
0.6387499000000001,8.78193187713623,-4.786009311676025,0.4118026793003082,-7.6141357421875,-16.0064697265625,-6.9122314453125
0.6412499,8.765172004699707,-4.790797710418701,0.4429273009300232,-6.378173828125,-15.4876708984375,-7.415771484375
0.6437499,8.760383605957031,-4.81473970413208,0.5027823448181152,-4.364013671875,-14.190673828125,-8.23974609375
0.6462499,8.762778282165527,-4.81473970413208,0.5267243981361389,-2.8839111328125,-13.6260986328125,-8.4228515625
0.6487499,8.769960403442383,-4.81473970413208,0.5386953949928284,-1.6326904296875,-12.9852294921875,-8.7432861328125
0.6512499,8.772355079650879,-4.800374507904053,0.5386953949928284,-0.4119873046875,-12.115478515625,-8.9111328125
0.6537499,8.774748802185059,-4.790797710418701,0.5315127968788147,0.640869140625,-11.41357421875,-9.09423828125
0.6562499,8.769960403442383,-4.7836151123046875,0.5051765441894531,1.89208984375,-11.16943359375,-9.2315673828125
0.6587499,8.762778282165527,-4.786009311676025,0.4812345504760742,3.6163330078125,-10.6964111328125,-9.2926025390625
0.6612499000000001,8.743624687194824,-4.793191909790039,0.45010992884635925,5.1422119140625,-10.040283203125,-9.4451904296875
0.6637499,8.707711219787598,-4.7836151123046875,0.4213795065879822,6.53076171875,-9.613037109375,-9.674072265625
0.6662499000000001,8.664615631103516,-4.771644115447998,0.395043283700943,7.87353515625,-9.246826171875,-9.7503662109375
0.6687499,8.616731643676758,-4.73573112487793,0.38307225704193115,8.9111328125,-9.0179443359375,-9.857177734375
0.6712499000000001,8.576030731201172,-4.697423934936523,0.363918662071228,10.1165771484375,-8.7127685546875,-9.9334716796875
0.6737499,8.549694061279297,-4.637568473815918,0.3471592366695404,11.16943359375,-8.453369140625,-10.162353515625
0.6762499000000001,8.53293514251709,-4.575319290161133,0.3256114423274994,12.115478515625,-8.1939697265625,-10.1776123046875
0.6787499,8.520963668823242,-4.49870491027832,0.304063618183136,13.153076171875,-7.8887939453125,-10.1470947265625
0.6812499000000001,8.525752067565918,-4.434061527252197,0.2777273952960968,13.763427734375,-7.843017578125,-10.3302001953125
0.6837499,8.537723541259766,-4.369418144226074,0.2537853717803955,14.46533203125,-7.2784423828125,-10.2691650390625
0.6862499000000001,8.552088737487793,-4.326322555541992,0.2298433631658554,15.4266357421875,-6.8359375,-10.2691650390625
0.6887499,8.571242332458496,-4.2760443687438965,0.19871874153614044,16.0064697265625,-6.805419921875,-10.3302001953125
0.6912499000000001,8.580819129943848,-4.218583583831787,0.16759411990642548,16.2353515625,-6.4544677734375,-10.55908203125
0.6937499,8.580819129943848,-4.153939723968506,0.13407529890537262,16.3726806640625,-6.28662109375,-10.55908203125
0.6962499000000001,8.573636054992676,-4.082113742828369,0.0933738648891449,16.5252685546875,-6.1187744140625,-10.650634765625
0.6987499,8.549694061279297,-4.0078935623168945,0.05267243832349777,16.632080078125,-5.8746337890625,-10.5743408203125
0.7012499000000001,8.525752067565918,-3.9384617805480957,0.0071826050989329815,16.143798828125,-5.9356689453125,-10.5438232421875
0.7037499,8.513781547546387,-3.8714241981506348,-0.040701430290937424,15.869140625,-5.8441162109375,-10.498046875
0.7062499,8.518569946289062,-3.818751811981201,-0.08619125932455063,15.7623291015625,-5.4779052734375,-10.7421875
0.7087499,8.542511940002441,-3.7708675861358643,-0.12928688526153564,15.56396484375,-5.3863525390625,-10.68115234375
0.7112499,8.578424453735352,-3.737348794937134,-0.17238251864910126,15.1824951171875,-5.18798828125,-10.5743408203125
0.7137499,8.604761123657227,-3.7038300037384033,-0.19871874153614044,14.7552490234375,-4.9896240234375,-10.6353759765625
0.7162499,8.62391471862793,-3.670311212539673,-0.22266076505184174,14.58740234375,-5.157470703125,-10.650634765625
0.7187499,8.62630844116211,-3.6320040225982666,-0.23702596127986908,13.85498046875,-5.06591796875,-10.3759765625
0.7212499,8.616731643676758,-3.5960910320281982,-0.24660277366638184,12.969970703125,-4.730224609375,-10.25390625
0.7237499000000001,8.604761123657227,-3.5625722408294678,-0.2537853717803955,12.4053955078125,-5.0201416015625,-9.8419189453125
0.7262499,8.604761123657227,-3.5386300086975098,-0.2537853717803955,11.749267578125,-5.06591796875,-9.7198486328125
0.7287499000000001,8.609549522399902,-3.5194764137268066,-0.2537853717803955,11.138916015625,-4.7149658203125,-9.4146728515625
0.7312499,8.628703117370605,-3.5003228187561035,-0.2561795711517334,10.6201171875,-4.69970703125,-9.185791015625
0.7337499000000001,8.645462036132812,-3.4811692237854004,-0.2561795711517334,9.6893310546875,-4.6234130859375,-9.09423828125
0.7362499,8.65743350982666,-3.4548330307006836,-0.2561795711517334,8.9569091796875,-4.486083984375,-8.636474609375
0.7387499000000001,8.667010307312012,-3.445256233215332,-0.26096799969673157,8.1024169921875,-4.3792724609375,-8.36181640625
0.7412499,8.667010307312012,-3.4404678344726562,-0.2585737705230713,7.3394775390625,-4.5623779296875,-8.026123046875
0.7437499000000001,8.667010307312012,-3.450044631958008,-0.2585737705230713,6.7901611328125,-4.2877197265625,-7.50732421875
0.7462499,8.667010307312012,-3.4572272300720215,-0.26096799969673157,6.3629150390625,-4.150390625,-7.1563720703125
0.7487499000000001,8.674192428588867,-3.4811692237854004,-0.2561795711517334,5.706787109375,-4.0740966796875,-6.89697265625
0.7512499,8.686163902282715,-3.5027170181274414,-0.26096799969673157,5.2642822265625,-3.875732421875,-6.3629150390625
0.7537499000000001,8.705317497253418,-3.536235809326172,-0.2585737705230713,4.9591064453125,-4.1046142578125,-5.7373046875
0.7562499,8.71489429473877,-3.5625722408294678,-0.26575639843940735,5.0048828125,-4.0130615234375,-5.1116943359375
0.7587499000000001,8.712499618530273,-3.5913026332855225,-0.26336219906806946,4.3182373046875,-3.7689208984375,-4.6234130859375
0.7612499,8.69095230102539,-3.600879430770874,-0.272938996553421,3.9825439453125,-3.753662109375,-4.150390625
0.7637499000000001,8.652645111083984,-3.6128504276275635,-0.2825157940387726,3.509521484375,-3.7689208984375,-3.6773681640625
0.7662499,8.607154846191406,-3.6152446269989014,-0.2968810200691223,3.265380859375,-3.997802734375,-3.2958984375
0.7687499000000001,8.564059257507324,-3.620033025741577,-0.31603461503982544,3.0975341796875,-3.9520263671875,-2.6397705078125
0.7712499,8.53293514251709,-3.6296098232269287,-0.3280056416988373,2.7618408203125,-3.96728515625,-2.166748046875
0.7737499,8.516175270080566,-3.643975019454956,-0.33518823981285095,2.4261474609375,-3.8909912109375,-1.64794921875
0.7762499,8.504204750061035,-3.6559460163116455,-0.3423708379268646,2.3651123046875,-3.753662109375,-0.9002685546875
0.7787499,8.492233276367188,-3.665522813796997,-0.3519476354122162,2.01416015625,-3.692626953125,-0.5035400390625
0.7812499,8.473079681396484,-3.665522813796997,-0.3687070608139038,1.739501953125,-3.7994384765625,-0.0152587890625
0.7837499,8.449137687683105,-3.665522813796997,-0.3902548849582672,1.4495849609375,-3.8604736328125,0.5340576171875
0.7862499000000001,8.4108304977417,-3.6583402156829834,-0.40701428055763245,1.3427734375,-4.0740966796875,0.9307861328125
0.7887499,8.370129585266113,-3.648763418197632,-0.4165911078453064,1.0986328125,-4.1046142578125,1.4495849609375
0.7912499000000001,8.329427719116211,-3.643975019454956,-0.4165911078453064,0.5340576171875,-4.150390625,2.0599365234375
0.7937499,8.305485725402832,-3.6367924213409424,-0.40701428055763245,0.152587890625,-4.119873046875,2.6397705078125
0.7962499000000001,8.300697326660156,-3.6367924213409424,-0.3878606855869293,-0.030517578125,-4.302978515625,2.8839111328125
0.7987499,8.307879447937012,-3.6391866207122803,-0.35913026332855225,-0.2899169921875,-4.180908203125,3.2806396484375
0.8012499000000001,8.327033042907715,-3.646369218826294,-0.3256114423274994,-0.6256103515625,-4.0740966796875,3.662109375
0.8037499,8.336610794067383,-3.648763418197632,-0.2849099934101105,-0.8697509765625,-3.936767578125,4.2266845703125
0.8062499000000001,8.339004516601562,-3.6583402156829834,-0.24899697303771973,-1.220703125,-3.84521484375,4.669189453125
0.8087499,8.322244644165039,-3.6583402156829834,-0.21787235140800476,-1.0833740234375,-3.90625,4.974365234375
0.8112499000000001,8.29590892791748,-3.663128614425659,-0.19393034279346466,-1.556396484375,-3.7994384765625,5.3863525390625
0.8137499,8.257601737976074,-3.667917013168335,-0.17238251864910126,-1.9683837890625,-3.5552978515625,5.9356689453125
0.8162499000000001,8.214506149291992,-3.6774938106536865,-0.15801730751991272,-2.0294189453125,-3.448486328125,6.4697265625
0.8187499,8.176198959350586,-3.691859006881714,-0.14844051003456116,-1.983642578125,-3.35693359375,6.65283203125
0.8212499000000001,8.135497093200684,-3.713406801223755,-0.14365209639072418,-2.38037109375,-3.4332275390625,7.1258544921875
0.8237499,8.099584579467773,-3.737348794937134,-0.14604631066322327,-2.197265625,-3.2958984375,7.8277587890625
0.8262499000000001,8.063671112060547,-3.7684733867645264,-0.15801730751991272,-2.0294189453125,-3.4332275390625,8.3770751953125
0.8287499,8.032546997070312,-3.797203779220581,-0.16759411990642548,-1.9378662109375,-3.2958984375,8.72802734375
0.8312499000000001,8.001421928405762,-3.823540210723877,-0.17956513166427612,-1.7547607421875,-3.2958984375,9.368896484375
0.8337499,7.972691535949707,-3.84269380569458,-0.18914192914962769,-1.3885498046875,-3.35693359375,9.9945068359375
0.8362499,7.9415669441223145,-3.8498764038085938,-0.18914192914962769,-1.129150390625,-3.204345703125,10.55908203125
0.8387499,7.905653953552246,-3.8498764038085938,-0.1843535304069519,-0.823974609375,-3.41796875,11.0626220703125
0.8412499,7.876923561096191,-3.8498764038085938,-0.17477671802043915,-0.579833984375,-3.3111572265625,11.7034912109375
0.8437499,7.841010570526123,-3.8522706031799316,-0.15562310814857483,-0.3204345703125,-3.326416015625,12.2222900390625
0.8462499,7.819462776184082,-3.861847400665283,-0.1388636976480484,0.0762939453125,-3.1585693359375,13.153076171875
0.8487499000000001,7.793126583099365,-3.8786067962646484,-0.11971008777618408,0.3814697265625,-3.3416748046875,13.7939453125
0.8512499,7.754819393157959,-3.907337188720703,-0.090979665517807,1.1138916015625,-2.9296875,14.892578125
0.8537499000000001,7.7428483963012695,-3.9169139862060547,-0.0933738648891449,1.4495849609375,-2.532958984375,15.7318115234375
0.8562499,7.745242595672607,-3.914519786834717,-0.10534487664699554,1.77001953125,-2.6092529296875,16.326904296875
0.8587499000000001,7.752425193786621,-3.9025487899780273,-0.12928688526153564,2.0599365234375,-2.3956298828125,16.9677734375
0.8612499,7.762001991271973,-3.8786067962646484,-0.15562310814857483,1.800537109375,-1.9378662109375,17.8070068359375
0.8637499000000001,7.7763671875,-3.8498764038085938,-0.17956513166427612,2.01416015625,-1.8310546875,18.49365234375
0.8662499,7.7883381843566895,-3.8163576126098633,-0.20350714027881622,2.2430419921875,-1.6326904296875,19.073486328125
0.8687499000000001,7.805097579956055,-3.7876269817352295,-0.21787235140800476,2.0751953125,-1.2664794921875,19.59228515625
0.8712499,7.817068576812744,-3.7660791873931885,-0.22744916379451752,2.197265625,-0.6866455078125,20.4315185546875
0.8737499000000001,7.819462776184082,-3.7469255924224854,-0.23702596127986908,2.1820068359375,-0.7476806640625,21.209716796875
0.8762499,7.812280178070068,-3.73016619682312,-0.23942017555236816,2.0599365234375,-0.5645751953125,21.759033203125
0.8787499000000001,7.793126583099365,-3.7205893993377686,-0.24660277366638184,1.983642578125,0.0152587890625,22.5067138671875
0.8812499,7.769184589385986,-3.7014358043670654,-0.2513911724090576,1.89208984375,0.244140625,23.193359375
0.8837499000000001,7.740454196929932,-3.6846764087677,-0.2585737705230713,1.6326904296875,0.518798828125,23.9410400390625
0.8862499,7.709329605102539,-3.667917013168335,-0.2585737705230713,1.495361328125,0.7781982421875,24.7955322265625
0.8887499000000001,7.6782050132751465,-3.6511576175689697,-0.26815059781074524,1.5411376953125,1.007080078125,25.4669189453125
0.8912499,7.644686222076416,-3.6343982219696045,-0.272938996553421,1.6326904296875,1.40380859375,26.6571044921875
0.8937499000000001,7.6111674308776855,-3.620033025741577,-0.2825157940387726,1.220703125,1.6937255859375,27.3895263671875
0.8962499,7.575253963470459,-3.603273630142212,-0.28730419278144836,1.190185546875,2.01416015625,28.4423828125
0.8987499,7.5417351722717285,-3.5865142345428467,-0.2825157940387726,1.40380859375,2.3345947265625,29.47998046875
0.9012499,7.510610580444336,-3.5721490383148193,-0.272938996553421,1.434326171875,2.6397705078125,30.4412841796875
0.9037499,7.47230339050293,-3.56017804145813,-0.2561795711517334,1.52587890625,2.838134765625,31.4788818359375
0.9062499,7.438784599304199,-3.550601005554199,-0.23942017555236816,1.6326904296875,2.99072265625,32.77587890625
0.9087499,7.390900611877441,-3.536235809326172,-0.22744916379451752,1.77001953125,3.1585693359375,33.9202880859375
0.9112499000000001,7.340622425079346,-3.5194764137268066,-0.21787235140800476,1.9683837890625,3.1890869140625,35.125732421875
0.9137499,7.280767440795898,-3.5003228187561035,-0.2082955539226532,2.410888671875,3.143310546875,36.3616943359375
0.9162499000000001,7.220912456512451,-3.4835634231567383,-0.19871874153614044,2.685546875,3.326416015625,37.6739501953125
0.9187499,7.163451671600342,-3.469198226928711,-0.1843535304069519,3.11279296875,3.631591796875,38.6962890625
0.9212499000000001,7.105990409851074,-3.4596214294433594,-0.16759411990642548,3.7689208984375,3.692626953125,40.069580078125
0.9237499,7.0557122230529785,-3.450044631958008,-0.15322890877723694,4.638671875,3.6163330078125,41.3970947265625
0.9262499000000001,7.000645637512207,-3.4308910369873047,-0.14604631066322327,5.18798828125,3.814697265625,42.724609375
0.9287499,6.9455790519714355,-3.4141316413879395,-0.14604631066322327,5.5084228515625,3.8604736328125,44.1131591796875
0.9312499000000001,6.878541469573975,-3.3877954483032227,-0.16519992053508759,6.28662109375,3.326416015625,45.83740234375
0.9337499,6.806715488433838,-3.359065055847168,-0.20350714027881622,6.9427490234375,3.204345703125,47.454833984375
0.9362499000000001,6.718130111694336,-3.318363666534424,-0.27054479718208313,7.537841796875,2.8839111328125,48.9654541015625
0.9387499,6.624756336212158,-3.265691041946411,-0.35913026332855225,7.843017578125,2.5177001953125,50.4608154296875
0.9412499000000001,6.538564682006836,-3.19865345954895,-0.4596867263317108,7.8887939453125,2.105712890625,52.0172119140625
0.9437499,6.466738700866699,-3.1196448802948,-0.5674257874488831,8.0718994140625,2.01416015625,53.52783203125
0.9462499000000001,6.421248912811279,-3.0334534645080566,-0.6607996821403503,8.1939697265625,1.5869140625,55.2215576171875
0.9487499,6.390124320983887,-2.9305028915405273,-0.7445967197418213,7.8277587890625,1.434326171875,56.8389892578125
0.9512499000000001,6.3518171310424805,-2.82515811920166,-0.8092401623725891,7.2479248046875,1.3275146484375,58.1817626953125
0.9537499,6.3063273429870605,-2.7102363109588623,-0.8619126081466675,6.4849853515625,0.9765625,59.6466064453125
0.9562499000000001,6.244078159332275,-2.6024973392486572,-0.8978256583213806,5.5084228515625,0.8697509765625,61.0504150390625
0.9587499,6.167463779449463,-2.5043349266052246,-0.9313444495201111,4.7454833984375,0.579833984375,62.6373291015625
0.9612499,6.078877925872803,-2.4229321479797363,-0.9600749015808105,3.814697265625,0.4730224609375,64.0869140625
0.9637499,5.978321552276611,-2.3487119674682617,-1.0007762908935547,2.3040771484375,0.2899169921875,65.3228759765625
0.9662499,5.863399982452393,-2.2912509441375732,-1.0462661981582642,1.03759765625,-0.1068115234375,66.83349609375
0.9687499,5.75326681137085,-2.2361843585968018,-1.1109095811843872,-0.5340576171875,-0.1983642578125,68.1915283203125
0.9712499,5.640739440917969,-2.190694570541382,-1.1779472827911377,-2.166748046875,-0.244140625,69.7784423828125
0.9737499000000001,5.525817394256592,-2.1571757793426514,-1.2497732639312744,-3.9215087890625,-0.640869140625,71.685791015625
0.9762499,5.408501625061035,-2.126051187515259,-1.3192051649093628,-5.4931640625,-1.03759765625,73.1964111328125
0.9787499000000001,5.272032260894775,-2.1092917919158936,-1.3910311460494995,-6.988525390625,-1.1749267578125,75.042724609375
0.9812499,5.130774021148682,-2.099714994430542,-1.4508862495422363,-8.7890625,-1.2969970703125,76.995849609375
0.9837499000000001,4.9799394607543945,-2.0925323963165283,-1.5107412338256836,-10.589599609375,-1.8463134765625,78.7200927734375
0.9862499,4.81473970413208,-2.0901381969451904,-1.556231141090393,-12.6190185546875,-2.2430419921875,80.7342529296875
0.9887499000000001,4.642356872558594,-2.10210919380188,-1.5897499322891235,-14.2974853515625,-2.6397705078125,82.9620361328125
0.9912499,4.446032524108887,-2.118868589401245,-1.6208745241165161,-15.4876708984375,-3.41796875,85.2203369140625
0.9937499000000001,4.242525577545166,-2.1571757793426514,-1.6496049165725708,-16.9525146484375,-4.0130615234375,87.5244140625
0.9962499,4.019864559173584,-2.2026655673980713,-1.680729627609253,-18.402099609375,-4.669189453125,89.84375
0.9987499000000001,3.794809579849243,-2.2577321529388428,-1.7190368175506592,-19.83642578125,-5.523681640625,92.59033203125
1.0012499,3.5889084339141846,-2.3104045391082764,-1.7717092037200928,-21.270751953125,-6.591796875,95.611572265625
1.0037498999999999,3.4117374420166016,-2.365471363067627,-1.8315643072128296,-22.430419921875,-7.293701171875,98.6328125
1.0062499,3.2752678394317627,-2.4157495498657227,-1.9105730056762695,-23.406982421875,-8.270263671875,101.6998291015625
1.0087499,3.1747114658355713,-2.470816135406494,-1.9823989868164062,-24.5361328125,-8.9569091796875,104.98046875
1.0112499,3.090914487838745,-2.5019407272338867,-2.054224967956543,-25.57373046875,-9.7198486328125,108.2763671875
1.0137498999999999,3.021482467651367,-2.5450363159179688,-2.10210919380188,-26.763916015625,-10.7421875,111.785888671875
1.0162499,2.940079689025879,-2.5546131134033203,-2.1499931812286377,-27.6641845703125,-11.5203857421875,115.234375
1.0187499,2.849100112915039,-2.5665841102600098,-2.1715409755706787,-28.350830078125,-12.51220703125,118.6676025390625
1.0212499,2.7509377002716064,-2.5761611461639404,-2.209848165512085,-29.6478271484375,-13.4735107421875,122.00927734375
1.0237498999999999,2.628833532333374,-2.559401512145996,-2.2385785579681396,-30.6549072265625,-14.4500732421875,125.5645751953125
1.0262498999999998,2.5234885215759277,-2.5689783096313477,-2.2840683460235596,-31.6162109375,-15.655517578125,129.1351318359375
1.0287499,2.4157495498657227,-2.5665841102600098,-2.33913516998291,-32.9132080078125,-16.632080078125,132.7667236328125
1.0312499,2.31758713722229,-2.580949544906616,-2.403778553009033,-34.3017578125,-17.547607421875,136.65771484375
1.0337498999999999,2.212242364883423,-2.609679937362671,-2.497152328491211,-36.1328125,-18.4478759765625,140.380859375
1.0362498999999998,2.1045033931732178,-2.6360161304473877,-2.6001031398773193,-37.59765625,-19.1802978515625,144.4854736328125
1.0387499,1.9823989868164062,-2.674323320388794,-2.7126305103302,-39.36767578125,-19.8822021484375,148.406982421875
1.0412499,1.8531121015548706,-2.7078421115875244,-2.829946517944336,-41.3360595703125,-21.1334228515625,152.2369384765625
1.0437499,1.7118542194366455,-2.7437551021575928,-2.942473888397217,-43.4722900390625,-21.9268798828125,156.0821533203125
1.0462498999999998,1.5729905366897583,-2.782062292098999,-3.0550012588500977,-45.47119140625,-22.94921875,160.2783203125
1.0487499,1.4293384552001953,-2.8371291160583496,-3.179499864578247,-47.8515625,-23.895263671875,164.4439697265625
1.0512499,1.2856862545013428,-2.9089550971984863,-3.308786630630493,-50.1556396484375,-24.810791015625,168.6553955078125
1.0537499,1.1420341730117798,-2.9735984802246094,-3.4548330307006836,-52.2918701171875,-25.848388671875,172.8668212890625
1.0562498999999999,1.0007762908935547,-3.0550012588500977,-3.5913026332855225,-54.6722412109375,-27.1148681640625,177.0782470703125
1.0587499,0.8858546018600464,-3.1004912853240967,-3.734954595565796,-57.31201171875,-28.3203125,181.45751953125
1.0612499,0.7757213711738586,-3.1938650608062744,-4.010287761688232,-63.1256103515625,-29.8919677734375,189.94140625
1.0637499,0.7661445140838623,-3.251325845718384,-4.163516521453857,-66.10107421875,-30.181884765625,194.000244140625
1.0662498999999999,0.7541735172271729,-3.3255462646484375,-4.323928356170654,-69.27490234375,-30.4412841796875,197.7996826171875
1.0687499,0.7254431247711182,-3.4308910369873047,-4.489128112792969,-72.021484375,-30.8990478515625,202.0263671875
1.0712499,0.6607996821403503,-3.555389642715454,-4.649539470672607,-75.0579833984375,-31.18896484375,206.3751220703125
1.0737499,0.5746083855628967,-3.706224203109741,-4.802768707275391,-77.789306640625,-31.463623046875,210.479736328125
1.0762498999999999,0.4692635238170624,-3.8738183975219727,-4.946420669555664,-80.7952880859375,-31.73828125,214.8895263671875
1.0787499,0.363918662071228,-4.067748546600342,-5.0900726318359375,-83.831787109375,-32.073974609375,219.329833984375
1.0812499,0.26096799969673157,-4.273650169372559,-5.245696067810059,-86.944580078125,-32.2113037109375,223.6328125
1.0837499,0.181959331035614,-4.508281707763672,-5.408501625061035,-89.4317626953125,-32.1044921875,227.96630859375
1.0862498999999999,0.12689268589019775,-4.76924991607666,-5.592854976654053,-92.1783447265625,-32.0281982421875,232.7728271484375
1.0887499,0.090979665517807,-5.035006046295166,-5.774814605712891,-95.3826904296875,-31.8145751953125,237.73193359375
1.0912499,0.07661445438861847,-5.307945251464844,-5.9735331535339355,-98.1597900390625,-31.18896484375,242.5994873046875
1.0937499,0.06224924325942993,-5.578489780426025,-6.169857978820801,-101.104736328125,-30.7464599609375,247.5128173828125
1.0962498999999999,0.0454898327589035,-5.846640586853027,-6.358999729156494,-104.4769287109375,-29.693603515625,252.777099609375
1.0987498999999998,0.016759412363171577,-6.119579315185547,-6.538564682006836,-107.8948974609375,-28.6102294921875,258.1787109375
1.1012499,-0.021547814831137657,-6.411672115325928,-6.691793918609619,-111.175537109375,-27.740478515625,263.6566162109375
1.1037499,-0.07182604819536209,-6.71334171295166,-6.823474884033203,-114.654541015625,-26.702880859375,269.10400390625
1.1062499,-0.11971008777618408,-7.029376029968262,-6.926425457000732,-118.255615234375,-25.390625,274.6124267578125
1.1087498999999998,-0.16998831927776337,-7.352593421936035,-7.015010833740234,-121.978759765625,-24.2462158203125,279.998779296875
1.1112499,-0.2082955539226532,-7.692570209503174,-7.091625213623047,-125.701904296875,-23.101806640625,285.3851318359375
1.1137499,-0.23702596127986908,-8.04930591583252,-7.161057472229004,-129.6844482421875,-21.7742919921875,290.7257080078125
1.1162499,-0.2537853717803955,-8.418013572692871,-7.225700855255127,-133.2855224609375,-20.538330078125,296.234130859375
1.1187498999999999,-0.2513911724090576,-8.81784439086914,-7.295132637023926,-137.20703125,-19.2718505859375,301.8341064453125
1.1212499,-0.23942017555236816,-9.23682975769043,-7.357381820678711,-140.80810546875,-17.9901123046875,307.0068359375
1.1237499,-0.22266076505184174,-9.691728591918945,-7.4316020011901855,-144.4244384765625,-16.4642333984375,312.07275390625
1.1262499,-0.21308395266532898,-10.17296314239502,-7.51779317855835,-148.0560302734375,-14.923095703125,317.1234130859375
1.1287498999999999,-0.22026655077934265,-10.690110206604004,-7.603984832763672,-151.519775390625,-13.5345458984375,322.32666015625
1.1312499,-0.2537853717803955,-11.221623420715332,-7.706935405731201,-155.1971435546875,-12.02392578125,327.0721435546875
1.1337499,-0.31603461503982544,-11.769895553588867,-7.805097579956055,-158.966064453125,-10.5133056640625,331.939697265625
1.1362499,-0.40701428055763245,-12.322956085205078,-7.91283655166626,-162.506103515625,-8.941650390625,336.60888671875
1.1387498999999999,-0.5123591423034668,-12.892776489257812,-8.015787124633789,-165.7867431640625,-7.2021484375,340.6829833984375
1.1412499,-0.6344634294509888,-13.474567413330078,-8.11634349822998,-169.0216064453125,-5.55419921875,344.8486328125
1.1437499,-0.7350199222564697,-14.080300331115723,-8.20732307434082,-172.2564697265625,-4.2266845703125,348.81591796875
1.1462499,-0.811634361743927,-14.693215370178223,-8.286332130432129,-175.23193359375,-2.471923828125,352.1575927734375
1.1487498999999999,-0.8379706144332886,-15.310919761657715,-8.343792915344238,-177.7191162109375,-0.54931640625,355.0872802734375
1.1512499,-0.8212111592292786,-15.921441078186035,-8.374917984008789,-180.145263671875,1.40380859375,357.60498046875
1.1537499,-0.7781155705451965,-16.5247802734375,-8.372523307800293,-182.2357177734375,3.4332275390625,359.4818115234375
1.1562499,-0.7182605266571045,-17.116147994995117,-8.336610794067383,-184.112548828125,5.279541015625,360.6414794921875
1.1587498999999999,-0.6512228846549988,-17.69075584411621,-8.283937454223633,-186.21826171875,7.0037841796875,361.4349365234375
1.1612498999999998,-0.569819986820221,-18.253393173217773,-8.219294548034668,-187.774658203125,8.85009765625,361.8316650390625
1.1637499,-0.47405192255973816,-18.811243057250977,-8.164227485656738,-189.361572265625,10.986328125,361.9384765625
1.1662499,-0.35434186458587646,-19.361909866333008,-8.125920295715332,-191.0400390625,13.458251953125,361.4654541015625
1.1687499,-0.21308395266532898,-19.92694091796875,-8.099584579467773,-192.19970703125,15.411376953125,360.809326171875
1.1712498999999998,-0.038307227194309235,-20.48239517211914,-8.097189903259277,-193.05419921875,17.7154541015625,359.4970703125
1.1737499,0.1843535304069519,-21.02348518371582,-8.106766700744629,-193.878173828125,19.95849609375,357.5897216796875
1.1762499,0.47644615173339844,-21.540632247924805,-8.130708694458008,-194.51904296875,22.4456787109375,355.499267578125
1.1787499,0.8451532125473022,-22.0410213470459,-8.149862289428711,-195.1141357421875,25.0091552734375,353.02734375
1.1812498999999999,1.290474772453308,-22.53662109375,-8.166622161865234,-194.9615478515625,27.069091796875,350.6317138671875
1.1837499,1.8052281141281128,-23.060951232910156,-8.178592681884766,-195.2667236328125,29.144287109375,347.59521484375
1.1862499,2.3918075561523438,-23.6259822845459,-8.190564155578613,-194.9462890625,31.31103515625,344.451904296875
1.1887499,3.0334534645080566,-24.214956283569336,-8.236053466796875,-194.1680908203125,33.4320068359375,341.3543701171875
1.1912498999999999,3.7253777980804443,-24.84463119506836,-8.300697326660156,-193.2373046875,35.2020263671875,337.95166015625
1.1937499,4.4508209228515625,-25.46951675415039,-8.4108304977417,-192.5506591796875,36.9873046875,334.2742919921875
1.1962499,5.195417881011963,-26.099193572998047,-8.552088737487793,-191.8182373046875,38.57421875,330.7647705078125
1.1987499,5.961562156677246,-26.707319259643555,-8.698134422302246,-191.375732421875,40.0390625,326.9195556640625
1.2012498999999999,6.744466304779053,-27.28432273864746,-8.868123054504395,-190.7196044921875,41.4581298828125,322.8759765625
1.2037499,7.5632829666137695,-27.823017120361328,-9.02135181427002,-189.605712890625,42.3736572265625,318.9544677734375
1.2062499,8.418013572692871,-28.321012496948242,-9.157821655273438,-188.4918212890625,43.6553955078125,314.39208984375
1.2087499,9.337387084960938,-28.73760223388672,-9.330204010009766,-187.5762939453125,44.464111328125,309.2803955078125
1.2112498999999999,10.302249908447266,-29.137434005737305,-9.473855972290039,-188.9801025390625,45.4559326171875,304.01611328125
1.2137499,11.310209274291992,-29.494171142578125,-9.643844604492188,-190.3839111328125,46.0205078125,298.6907958984375
1.2162499,12.344504356384277,-29.879636764526367,-9.763554573059082,-191.558837890625,45.9442138671875,292.724609375
1.2187499,13.39555835723877,-30.310592651367188,-9.835380554199219,-192.535400390625,45.83740234375,286.19384765625
1.2212498999999999,14.468160629272461,-30.751127243041992,-9.854534149169922,-193.389892578125,45.4559326171875,278.9154052734375
1.2237498999999998,15.569493293762207,-31.198843002319336,-9.84495735168457,-195.1446533203125,45.013427734375,271.1944580078125
1.2262499,16.697162628173828,-31.598674774169922,-9.840168952941895,-197.08251953125,44.769287109375,262.7105712890625
1.2287499,17.848773956298828,-31.938650131225586,-9.84256362915039,-199.310302734375,44.25048828125,253.509521484375
1.2312499,18.993202209472656,-32.213985443115234,-9.871294021606445,-202.57568359375,43.7469482421875,243.3624267578125
1.2337498999999998,20.151996612548828,-32.42467498779297,-9.911994934082031,-205.9326171875,42.999267578125,232.5592041015625
1.2362499,21.313182830810547,-32.59226608276367,-9.962273597717285,-209.3353271484375,42.694091796875,221.405029296875
1.2387499,22.49591827392578,-32.82450485229492,-9.93354320526123,-214.41650390625,42.7703857421875,208.6029052734375
1.2412499,23.736116409301758,-33.09505081176758,-9.804255485534668,-219.329833984375,41.9158935546875,194.1375732421875
1.2437498999999999,25.050533294677734,-33.45418167114258,-9.514557838439941,-222.5799560546875,40.5731201171875,178.9093017578125
1.2462499,26.475082397460938,-33.7869758605957,-9.10993766784668,-226.0284423828125,38.848876953125,162.41455078125
1.2487499,28.040889739990234,-34.0407600402832,-8.645462036132812,-230.16357421875,37.2467041015625,144.8211669921875
1.2512499,29.721620559692383,-34.184410095214844,-8.13789176940918,-234.130859375,35.46142578125,126.28173828125
1.2537498999999999,31.464599609375,-34.244266510009766,-7.577648162841797,-237.1978759765625,33.50830078125,106.38427734375
1.2562499,33.198001861572266,-34.24187088012695,-6.861782073974609,-239.56298828125,31.2347412109375,85.1593017578125
1.2587499,34.881126403808594,-34.19638442993164,-5.963956356048584,-242.1722412109375,27.8472900390625,62.5
1.2612499,36.490028381347656,-34.117374420166016,-4.829104900360107,-245.3765869140625,24.3682861328125,38.848876953125
1.2637498999999999,38.02949905395508,-33.99766540527344,-3.4380736351013184,-248.3367919921875,19.9127197265625,13.9617919921875
1.2662499,39.48756790161133,-33.87077331542969,-1.8794482946395874,-251.129150390625,14.8468017578125,-11.8865966796875
1.2687499,42.082881927490234,-33.6816291809082,1.6352397203445435,-256.3323974609375,4.7149658203125,-65.5670166015625
1.2712499,43.167457580566406,-33.66007995605469,3.4596214294433594,-258.056640625,-0.579833984375,-93.597412109375
1.2737498999999999,44.09401321411133,-33.684024810791016,5.281609058380127,-259.4146728515625,-6.1798095703125,-122.894287109375
1.2762499,44.83621597290039,-33.73430252075195,7.053318023681641,-260.894775390625,-12.054443359375,-152.6031494140625
1.2787499,45.37730407714844,-33.751060485839844,8.702922821044922,-262.1307373046875,-17.8375244140625,-182.586669921875
1.2812499,45.707706451416016,-33.698387145996094,10.247182846069336,-261.41357421875,-23.2086181640625,-211.761474609375
1.2837498999999999,45.791500091552734,-33.624168395996094,11.638214111328125,-264.892578125,-29.815673828125,-241.88232421875
1.2862498999999998,45.62869644165039,-33.55234146118164,12.938265800476074,-269.7906494140625,-36.224365234375,-271.78955078125
1.2887499,45.18337631225586,-33.636138916015625,14.183250427246094,-278.045654296875,-42.8009033203125,-302.2003173828125
1.2912499,44.455535888671875,-33.89950180053711,15.361198425292969,-286.2548828125,-49.8809814453125,-331.7413330078125
1.2937499,43.44039535522461,-34.39270782470703,16.486473083496094,-294.4488525390625,-56.33544921875,-360.65673828125
1.2962498999999998,42.152313232421875,-35.06547927856445,17.520767211914062,-302.642822265625,-62.591552734375,-388.2904052734375
1.2987499,40.615238189697266,-35.829227447509766,18.428171157836914,-309.9365234375,-68.206787109375,-415.1611328125
1.3012499,38.845924377441406,-36.66001510620117,19.18952751159668,-317.9931640625,-73.7152099609375,-440.6585693359375
1.3037499,36.90422439575195,-37.514747619628906,19.81441307067871,-326.8585205078125,-78.55224609375,-465.087890625
1.3062498999999999,34.8332405090332,-38.45087814331055,20.367473602294922,-335.0067138671875,-82.6873779296875,-488.555908203125
1.3087499,32.69761276245117,-39.48996353149414,20.882226943969727,-341.2628173828125,-86.944580078125,-500
1.3112499,30.55959129333496,-40.65593719482422,21.411346435546875,-345.794677734375,-91.0491943359375,-500
1.3137499,28.452693939208984,-41.903316497802734,21.93328094482422,-348.0072021484375,-95.3826904296875,-500
1.3162498999999999,26.38410186767578,-43.21055221557617,22.460006713867188,-348.5565185546875,-99.5635986328125,-500
1.3187499,24.349031448364258,-44.524967193603516,22.95560646057129,-346.8017578125,-103.7139892578125,-500
1.3212499,22.316354751586914,-45.80826187133789,23.417686462402344,-342.5445556640625,-108.2916259765625,-500
1.3237499,20.264522552490234,-47.048458099365234,23.81991195678711,-335.63232421875,-113.3880615234375,-500
1.3262498999999999,18.16720199584961,-48.20964431762695,24.150312423706055,-326.66015625,-118.804931640625,-500
1.3287499,15.998055458068848,-49.282249450683594,24.37297248840332,-315.4144287109375,-124.481201171875,-500
1.3312499,13.740324020385742,-50.24471664428711,24.49507713317871,-301.727294921875,-130.645751953125,-500
1.3337499,11.379640579223633,-51.058746337890625,24.463953018188477,-286.712646484375,-137.5885009765625,-500
1.3362498999999999,8.927978515625,-51.683631896972656,24.30354118347168,-270.416259765625,-144.8822021484375,-500
1.3387499,6.418854713439941,-52.05473327636719,23.94441032409668,-253.387451171875,-152.8167724609375,-500
1.3412499,3.9001545906066895,-52.1505012512207,23.427263259887695,-236.2823486328125,-161.407470703125,-500
1.3437499,1.4437036514282227,-51.93981170654297,22.711397171020508,-219.1009521484375,-170.0897216796875,-500
1.3462498999999999,-0.933738648891449,-51.41069412231445,21.854272842407227,-201.9805908203125,-178.9093017578125,-500
1.3487498999999998,-3.248931646347046,-50.57990646362305,20.85589027404785,-186.065673828125,-188.04931640625,-500
1.3512499,-5.564124584197998,-49.468994140625,19.795259475708008,-171.8597412109375,-198.455810546875,-500
1.3537499,-7.977479934692383,-48.10908889770508,18.691532135009766,-159.48486328125,-209.320068359375,-500
1.3562499,-10.54645824432373,-46.5337028503418,17.547103881835938,-148.468017578125,-221.466064453125,-500
1.3587498999999998,-13.326127052307129,-44.79072570800781,16.421829223632812,-139.892578125,-234.222412109375,-500
1.3612499,-16.34282112121582,-42.918460845947266,15.318102836608887,-132.14111328125,-247.100830078125,-500
1.3637499,-19.63245391845703,-40.97197341918945,14.322114944458008,-125.518798828125,-260.2386474609375,-500
1.3662499,-23.230939865112305,-38.99675750732422,13.431471824645996,-118.9727783203125,-273.62060546875,-500
1.3687498999999999,-27.16461181640625,-36.976051330566406,12.593501091003418,-112.9150390625,-287.1246337890625,-500
1.3712499,-31.364042282104492,-34.88351821899414,11.678915977478027,-108.6883544921875,-300.23193359375,-500
1.3737499,-35.65445327758789,-32.668880462646484,10.481815338134766,-105.9417724609375,-312.042236328125,-500
1.3762499,-39.84191131591797,-30.305805206298828,9.157821655273438,-104.339599609375,-320.9991455078125,-500
1.3787498999999999,-43.68460464477539,-27.796682357788086,7.407660007476807,-104.06494140625,-328.2928466796875,-500
1.3812499,-47.00536346435547,-25.14869499206543,5.6191911697387695,-105.6671142578125,-333.2977294921875,-500
1.3837499,-49.548004150390625,-22.36663246154785,3.488351821899414,-108.367919921875,-336.1663818359375,-500
1.3862499,-51.13057327270508,-19.414581298828125,1.2689268589019775,-111.6943359375,-335.296630859375,-491.2872314453125
1.3887498999999999,-51.60462188720703,-16.299724578857422,-0.8858546018600464,-114.19677734375,-329.52880859375,-467.559814453125
1.3912499,-51.068321228027344,-13.048398971557617,-2.693476915359497,-117.6300048828125,-321.0601806640625,-445.9381103515625
1.3937499,-49.8089714050293,-9.66299819946289,-3.861847400665283,-122.314453125,-311.82861328125,-426.20849609375
1.3962499,-48.24795150756836,-6.2416839599609375,-4.331110954284668,-129.9896240234375,-301.3153076171875,-407.7301025390625
1.3987498999999999,-46.71566390991211,-2.8443117141723633,-4.201824188232422,-139.7857666015625,-288.909912109375,-389.923095703125
1.4012499,-45.480255126953125,0.3471592366695404,-3.737348794937134,-150.81787109375,-273.4832763671875,-372.98583984375
1.4037499,-44.64228439331055,3.177105665206909,-3.1890766620635986,-162.445068359375,-254.4708251953125,-357.2998046875
1.4062499,-44.23287582397461,5.458779811859131,-2.7700912952423096,-173.919677734375,-232.8338623046875,-342.59033203125
1.4087498999999999,-44.192176818847656,7.232883453369141,-2.5737667083740234,-183.7310791015625,-209.0301513671875,-328.0029296875
1.4112498999999998,-44.266395568847656,8.573636054992676,-2.6360161304473877,-191.34521484375,-184.7991943359375,-313.201904296875
1.4137499,-44.20893478393555,9.569623947143555,-2.8993782997131348,-199.4476318359375,-159.97314453125,-298.0499267578125
1.4162499,-43.789947509765625,10.371682167053223,-3.294421434402466,-204.6051025390625,-134.1400146484375,-283.233642578125
1.4187499,-42.911277770996094,10.90798282623291,-3.6798880100250244,-207.09228515625,-108.1695556640625,-268.768310546875
1.4212498999999998,-41.65911102294922,11.238382339477539,-4.019864559173584,-206.7413330078125,-83.5723876953125,-254.1961669921875
1.4237499,-40.227378845214844,11.444284439086914,-4.2090067863464355,-202.3773193359375,-59.417724609375,-238.9373779296875
1.4262499,-38.78367233276367,11.614272117614746,-4.261679172515869,-196.4111328125,-36.0870361328125,-223.0224609375
1.4287499,-37.512351989746094,11.791443824768066,-4.1874589920043945,-190.1702880859375,-14.2364501953125,-206.756591796875
1.4312498999999999,-36.53312301635742,11.887211799621582,-4.022258758544922,-183.319091796875,6.3934326171875,-190.1397705078125
1.4337499,-35.89626693725586,11.772290229797363,-3.8163576126098633,-172.760009765625,25.421142578125,-172.66845703125
1.4362499,-35.54671096801758,11.274295806884766,-3.646369218826294,-159.423828125,42.2210693359375,-154.5562744140625
1.4387499,-35.336021423339844,10.390835762023926,-3.5960910320281982,-143.524169921875,56.6253662109375,-135.7421875
1.4412498999999999,-35.06308364868164,9.222464561462402,-3.711012601852417,-124.7406005859375,69.51904296875,-116.4093017578125
1.4437499,-34.550724029541016,7.970297336578369,-4.003105163574219,-104.1717529296875,80.4901123046875,-96.3287353515625
1.4462499,-33.73190689086914,6.835445880889893,-4.426878929138184,-83.1451416015625,89.66064453125,-76.0345458984375
1.4487499,-32.64972686767578,5.980715751647949,-4.9152960777282715,-62.2406005859375,97.503662109375,-55.8319091796875
1.4512498999999999,-31.435869216918945,5.451597213745117,-5.415684223175049,-41.5191650390625,103.94287109375,-36.7431640625
1.4537499,-30.219614028930664,5.22175407409668,-5.8873419761657715,-21.6064453125,108.4442138671875,-18.4326171875
1.4562499,-29.10630989074707,5.202600479125977,-6.303933143615723,-2.5482177734375,111.663818359375,-1.373291015625
1.4587499,-28.11989974975586,5.293580055236816,-6.655880928039551,15.68603515625,113.9068603515625,14.2669677734375
1.4612498999999999,-27.243621826171875,5.420472621917725,-6.92881965637207,32.16552734375,115.2801513671875,28.80859375
1.4637499,-26.443958282470703,5.525817394256592,-7.101202011108398,46.905517578125,116.119384765625,42.0989990234375
1.4662499,-25.677812576293945,5.571307182312012,-7.189787864685059,59.50927734375,116.119384765625,54.26025390625
1.4687499,-24.9140625,5.535394191741943,-7.196970462799072,69.7021484375,115.753173828125,65.338134765625
1.4712498999999999,-24.128765106201172,5.396530628204346,-7.1490864753723145,78.0487060546875,115.386962890625,75.103759765625
1.4737498999999998,-23.314735412597656,5.135562419891357,-7.086836814880371,84.8236083984375,114.7308349609375,84.197998046875
1.4762499,-21.61964225769043,4.323928356170654,-7.038952827453613,95.306396484375,112.7471923828125,98.4649658203125
1.4787499,-20.724210739135742,3.8067808151245117,-7.110779285430908,99.2584228515625,111.1602783203125,103.9886474609375
1.4812499,-19.780895233154297,3.2369606494903564,-7.261613845825195,102.6763916015625,109.4970703125,108.306884765625
1.4837498999999998,-18.768146514892578,2.6216509342193604,-7.47230339050293,106.0791015625,107.4371337890625,111.297607421875
1.4862499,-17.68596839904785,1.9704279899597168,-7.718906402587891,109.7259521484375,104.8736572265625,113.525390625
1.4887499,-16.551116943359375,1.290474772453308,-7.987056732177734,113.4796142578125,101.6693115234375,115.0970458984375
1.4912499,-15.363592147827148,0.608127236366272,-8.255207061767578,117.73681640625,97.7630615234375,115.5548095703125
1.4937498999999999,-14.140154838562012,-0.1149216815829277,-8.513781547546387,122.161865234375,93.68896484375,115.478515625
1.4962499,-12.866439819335938,-0.8547300100326538,-8.755595207214355,127.4261474609375,89.141845703125,115.1123046875
1.4987499,-11.556811332702637,-1.647210717201233,-8.973467826843262,133.4228515625,83.9996337890625,114.776611328125
1.5012499,-10.199298858642578,-2.4612393379211426,-9.167398452758789,140.2130126953125,78.9031982421875,114.3035888671875
1.5037498999999999,-8.808267593383789,-3.272873640060425,-9.351752281188965,146.7742919921875,73.9288330078125,113.95263671875
1.5062499,-7.386112213134766,-4.048594951629639,-9.524134635925293,153.350830078125,69.15283203125,113.8153076171875
1.5087499,-5.935225963592529,-4.759673118591309,-9.684545516967773,159.9578857421875,64.8651123046875,113.9984130859375
1.5112499,-4.4723687171936035,-5.406107425689697,-9.828198432922363,166.595458984375,60.5621337890625,114.3341064453125
1.5137498999999999,-3.002328872680664,-5.978321552276611,-9.947908401489258,173.03466796875,56.33544921875,115.2191162109375
1.5162499,-1.5538369417190552,-6.466738700866699,-10.02691650390625,178.8330078125,53.03955078125,115.936279296875
1.5187499,-0.1364694982767105,-6.8809356689453125,-10.067618370056152,184.0667724609375,50.59814453125,116.729736328125
1.5212499,1.2186486721038818,-7.208941459655762,-10.072406768798828,188.4918212890625,48.2177734375,117.340087890625
1.5237498999999999,2.5019407272338867,-7.450755596160889,-10.050858497619629,192.3370361328125,45.928955078125,117.85888671875
1.5262499,3.6990416049957275,-7.599195957183838,-10.02452278137207,195.343017578125,44.61669921875,118.0419921875
1.5287499,4.7836151123046875,-7.666234016418457,-9.99339771270752,197.3724365234375,43.5638427734375,118.0877685546875
1.5312499,5.75326681137085,-7.654263019561768,-9.974244117736816,198.7152099609375,42.816162109375,117.5079345703125
1.5337498999999999,6.596025466918945,-7.577648162841797,-9.950302124023438,199.4476318359375,42.1905517578125,116.5008544921875
1.5362499,7.314286231994629,-7.4555439949035645,-9.945513725280762,198.66943359375,42.022705078125,115.2496337890625
1.5387499,7.9176249504089355,-7.3023152351379395,-9.940725326538086,196.868896484375,42.510986328125,113.372802734375
1.5412499,8.394071578979492,-7.137115478515625,-9.926360130310059,194.4122314453125,42.999267578125,111.114501953125
1.5437499,8.789113998413086,-6.979097843170166,-10.000580787658691,191.5740966796875,43.39599609375,108.8714599609375
1.5462498999999998,9.083600997924805,-6.864176273345947,-10.072406768798828,187.042236328125,44.98291015625,106.170654296875
1.5487499,9.301473617553711,-6.789956092834473,-10.228029251098633,182.4188232421875,46.8902587890625,103.02734375
1.5512499,9.428366661071777,-6.756437301635742,-10.390835762023926,177.5054931640625,48.5687255859375,99.9298095703125
1.5537499,9.459490776062012,-6.739677906036377,-10.532093048095703,171.8902587890625,50.079345703125,96.527099609375
1.5562498999999999,9.41639518737793,-6.694188117980957,-10.644620895385742,165.9393310546875,51.727294921875,93.170166015625
1.5587499,9.32302188873291,-6.581660270690918,-10.737994194030762,159.423828125,53.436279296875,89.6148681640625
1.5612499,9.217676162719727,-6.404489517211914,-10.81700325012207,152.5726318359375,55.419921875,86.12060546875
1.5637499,9.117119789123535,-6.210559368133545,-10.893617630004883,143.8140869140625,57.220458984375,82.0770263671875
1.5662498999999999,9.035717010498047,-6.033388137817383,-10.967838287353516,135.0860595703125,59.051513671875,77.8961181640625
1.5687499,8.987833023071289,-5.947196960449219,-11.025299072265625,126.5106201171875,60.760498046875,74.1729736328125
1.5712499,8.980650901794434,-5.944802761077881,-11.075576782226562,118.438720703125,62.6220703125,70.3125
1.5737499,9.011775016784668,-5.9974751472473145,-11.111490249633789,111.0076904296875,64.4989013671875,66.6961669921875
1.5762498999999999,9.069235801696777,-6.057330131530762,-11.12346076965332,103.546142578125,66.83349609375,62.6068115234375
1.5787499,9.133879661560059,-6.09324312210083,-11.113883972167969,95.9625244140625,69.000244140625,58.929443359375
1.5812499,9.17697525024414,-6.088454723358154,-11.080365180969238,88.0279541015625,71.4263916015625,55.023193359375
1.5837499,9.188945770263672,-6.071695327758789,-11.02051067352295,80.7342529296875,73.54736328125,51.5594482421875
1.5862498999999999,9.165003776550293,-6.054935932159424,-10.934319496154785,73.91357421875,75.6072998046875,48.1109619140625
1.5887499,9.100360870361328,-6.074089527130127,-10.826580047607422,67.32177734375,77.911376953125,44.2962646484375
1.5912499,9.006986618041992,-6.138733386993408,-10.685321807861328,61.431884765625,79.9407958984375,40.9698486328125
1.5937499,8.901641845703125,-6.244078159332275,-10.522516250610352,56.33544921875,81.787109375,37.811279296875
1.5962498999999999,8.791508674621582,-6.375759124755859,-10.342951774597168,52.001953125,83.740234375,34.5458984375
1.5987499,8.69334602355957,-6.519411087036133,-10.153809547424316,48.15673828125,85.4949951171875,31.7230224609375
1.6012499,8.604761123657227,-6.655880928039551,-9.96945571899414,45.074462890625,87.5091552734375,28.7628173828125
1.6037499,8.520963668823242,-6.785167694091797,-9.785101890563965,42.3583984375,89.324951171875,25.9552001953125
1.6062499,8.437167167663574,-6.907271862030029,-9.610325813293457,40.4052734375,90.8355712890625,23.5595703125
1.6087498999999998,8.346187591552734,-7.022193431854248,-9.44991397857666,39.1845703125,92.254638671875,21.17919921875
1.6112499,8.255207061767578,-7.127538681030273,-9.313444137573242,38.4979248046875,93.20068359375,18.9056396484375
1.6137499,8.166622161865234,-7.225700855255127,-9.205705642700195,38.4521484375,94.6807861328125,17.0135498046875
1.6162499,8.092401504516602,-7.307103633880615,-9.124302864074707,38.5589599609375,95.39794921875,15.228271484375
1.6187498999999999,8.039729118347168,-7.378929615020752,-9.064447402954102,38.8946533203125,96.1456298828125,13.519287109375
1.6212499,8.01339340209961,-7.429207801818848,-9.009381294250488,39.6881103515625,96.9696044921875,12.1002197265625
1.6237499,7.99184513092041,-7.457938194274902,-8.942343711853027,40.985107421875,97.5494384765625,10.833740234375
1.6262499,7.979874134063721,-7.457938194274902,-8.848969459533691,42.5567626953125,98.052978515625,9.5672607421875
1.6287498999999999,7.94635534286499,-7.417236804962158,-8.724471092224121,44.12841796875,98.44970703125,8.453369140625
1.6312499,7.90086555480957,-7.340622425079346,-8.559270858764648,45.928955078125,98.6328125,7.232666015625
1.6337499,7.833827972412109,-7.232883453369141,-8.379706382751465,47.36328125,98.8922119140625,6.072998046875
1.6362499,7.747636795043945,-7.103596210479736,-8.185775756835938,48.7518310546875,99.4110107421875,5.0201416015625
1.6387498999999999,7.649474620819092,-6.964732646942139,-7.996633529663086,50.3997802734375,99.761962890625,4.241943359375
1.6412499,7.532158374786377,-6.823474884033203,-7.82185697555542,52.1087646484375,100.3570556640625,2.7313232421875
1.6437499,7.405265808105469,-6.687005519866943,-7.668628215789795,53.6651611328125,100.76904296875,1.64794921875
1.6462499,7.261613845825195,-6.552929878234863,-7.546523571014404,55.2215576171875,101.2115478515625,0.946044921875
1.6487498999999999,7.110779285430908,-6.423643112182617,-7.450755596160889,56.3507080078125,101.5625,-0.335693359375
1.6512499,6.959944248199463,-6.301538944244385,-7.390900611877441,57.7545166015625,102.1575927734375,-1.6021728515625
1.6537499,6.8043212890625,-6.179434776306152,-7.354987621307373,59.14306640625,102.6458740234375,-2.7008056640625
1.6562499,6.665457725524902,-6.052541732788086,-7.357381820678711,60.302734375,103.546142578125,-3.9520263671875
1.6587498999999999,6.538564682006836,-5.913678169250488,-7.38132381439209,61.21826171875,104.278564453125,-4.9285888671875
1.6612499,6.428431510925293,-5.762843608856201,-7.450755596160889,61.920166015625,105.0262451171875,-5.767822265625
1.6637499,6.337451934814453,-5.592854976654053,-7.529764175415039,62.103271484375,106.109619140625,-6.6986083984375
1.6662499,6.258443355560303,-5.418078422546387,-7.620744228363037,61.767578125,107.2235107421875,-7.5225830078125
1.6687499,6.1985883712768555,-5.236119270324707,-7.704541206359863,61.09619140625,108.3526611328125,-8.1787109375
1.6712498999999998,6.143521785736084,-5.056553840637207,-7.7763671875,59.9212646484375,109.4970703125,-8.8348388671875
1.6737499,6.1052141189575195,-4.879383087158203,-7.826645374298096,58.4259033203125,111.1602783203125,-9.552001953125
1.6762499,6.069301128387451,-4.704606533050537,-7.860164165496826,56.671142578125,112.823486328125,-9.9639892578125
1.6787499,6.0405707359313965,-4.527435302734375,-7.8745293617248535,54.3212890625,114.898681640625,-10.467529296875
1.6812498999999999,6.011840343475342,-4.345476150512695,-7.876923561096191,51.8951416015625,117.1722412109375,-11.4288330078125
1.6837499,5.944802761077881,-3.9839515686035156,-7.812280178070068,46.173095703125,121.673583984375,-12.939453125
1.6862499,5.9088897705078125,-3.8067808151245117,-7.747636795043945,43.2281494140625,123.687744140625,-13.9923095703125
1.6887499,5.87776517868042,-3.646369218826294,-7.6566572189331055,40.0390625,125.8544921875,-15.44189453125
1.6912498999999999,5.858611583709717,-3.5027170181274414,-7.553706169128418,36.4990234375,127.899169921875,-16.66259765625
1.6937499,5.861005783081055,-3.383007049560547,-7.424419403076172,33.38623046875,129.8980712890625,-18.157958984375
1.6962499,5.896918773651123,-3.287238836288452,-7.292738437652588,30.1513671875,131.9580078125,-19.53125
1.6987499,5.966350555419922,-3.2154128551483154,-7.141903877258301,27.252197265625,133.5906982421875,-20.751953125
1.7012498999999999,6.071695327758789,-3.1699230670928955,-6.993463039398193,24.4140625,135.6048583984375,-22.0794677734375
1.7037499,6.200982570648193,-3.002328872680664,-6.746860504150391,21.392822265625,137.6190185546875,-23.3917236328125
1.7062499,6.337451934814453,-3.0382418632507324,-6.687005519866943,15.8538818359375,139.3890380859375,-24.9786376953125
1.7087499,6.53377628326416,-2.9879636764526367,-6.40927791595459,16.2506103515625,141.2811279296875,-25.4669189453125
1.7112498999999999,6.627150535583496,-3.155557870864868,-6.385335922241211,15.594482421875,143.37158203125,-25.8636474609375
1.7137499,6.710947513580322,-3.3638534545898438,-6.246472358703613,15.7318115234375,144.7601318359375,-26.30615234375
1.7162499,6.682217121124268,-3.5625722408294678,-6.143521785736084,15.289306640625,145.4925537109375,-26.702880859375
1.7187499,6.596025466918945,-3.711012601852417,-6.064512729644775,14.22119140625,146.270751953125,-26.7181396484375
1.7212498999999999,6.5050458908081055,-3.7876269817352295,-5.9519853591918945,13.641357421875,147.15576171875,-26.42822265625
1.7237499,6.430825710296631,-3.797203779220581,-5.858611583709717,13.3209228515625,148.13232421875,-26.0772705078125
1.7262499,6.368576526641846,-3.7708675861358643,-5.760449409484863,12.8326416015625,148.956298828125,-25.634765625
1.7287499,6.325480937957764,-3.758896589279175,-5.6670756340026855,12.7105712890625,149.658203125,-24.9481201171875
1.7312499,6.279991149902344,-3.7708675861358643,-5.556941986083984,13.4429931640625,150.0701904296875,-24.261474609375
1.7337498999999998,6.246472358703613,-3.847482204437256,-5.449203014373779,14.5263671875,150.7568359375,-23.3001708984375
1.7362499,6.215347766876221,-3.950432777404785,-5.336675643920898,16.11328125,151.3671875,-22.5372314453125
1.7387499,6.189011573791504,-4.060565948486328,-5.22175407409668,17.852783203125,151.947021484375,-21.5301513671875
1.7412499,6.162675380706787,-4.156333923339844,-5.114014625549316,19.34814453125,152.618408203125,-20.7366943359375
1.7437498999999999,6.129156112670898,-4.228160381317139,-5.008669853210449,21.05712890625,153.25927734375,-19.8516845703125
1.7462499,6.0836663246154785,-4.2951979637146,-4.917690277099609,23.651123046875,153.533935546875,-18.8140869140625
1.7487499,6.035782337188721,-4.383783340454102,-4.845864295959473,26.2298583984375,153.7322998046875,-17.913818359375
1.7512499,5.999869346618652,-4.489128112792969,-4.786009311676025,29.3731689453125,154.2510986328125,-16.815185546875
1.7537498999999999,5.987898349761963,-4.608838081359863,-4.730942726135254,32.28759765625,154.8309326171875,-15.777587890625
1.7562499,6.009446144104004,-4.716577529907227,-4.666299343109131,35.2935791015625,155.5938720703125,-14.862060546875
1.7587499,6.054935932159424,-4.78122091293335,-4.592078685760498,38.4674072265625,156.31103515625,-13.8702392578125
1.7612499,6.107608318328857,-4.788403511047363,-4.503493309020996,41.4276123046875,157.196044921875,-12.7410888671875
1.7637498999999999,6.14831018447876,-4.73573112487793,-4.410119533538818,43.76220703125,157.8521728515625,-11.7645263671875
1.7662499,6.169857978820801,-4.632780075073242,-4.3191399574279785,45.9747314453125,158.5235595703125,-11.0321044921875
1.7687499,6.174646377563477,-4.51067590713501,-4.2329487800598145,48.2635498046875,158.721923828125,-9.674072265625
1.7712499,6.172252178192139,-4.393360137939453,-4.158728122711182,50.7354736328125,158.7371826171875,-8.97216796875
1.7737498999999999,6.167463779449463,-4.285621166229248,-4.0964789390563965,53.5125732421875,158.5845947265625,-8.36181640625
1.7762499,6.167463779449463,-4.19224739074707,-4.041412353515625,55.7098388671875,158.447265625,-7.9345703125
1.7787499,6.167463779449463,-4.110844135284424,-3.993528366088867,58.1512451171875,157.9437255859375,-7.6141357421875
1.7812499,6.184223175048828,-4.048594951629639,-3.9408559799194336,60.5316162109375,157.0892333984375,-7.0648193359375
1.7837498999999999,6.215347766876221,-4.01268196105957,-3.883395195007324,62.896728515625,156.4483642578125,-6.8511962890625
1.7862499,6.268020153045654,-4.0078935623168945,-3.8163576126098633,65.5059814453125,155.609130859375,-6.744384765625
1.7887499,6.347028732299805,-4.02465295791626,-3.7469255924224854,67.901611328125,154.8614501953125,-6.4849853515625
1.7912499,6.433219909667969,-4.05817174911499,-3.6774938106536865,70.3582763671875,153.99169921875,-6.1187744140625
1.7937499,6.519411087036133,-4.089296340942383,-3.6080620288848877,72.784423828125,153.3050537109375,-5.9814453125
1.7962498999999998,6.584054470062256,-4.1180267333984375,-3.5482068061828613,74.7222900390625,152.587890625,-5.615234375
1.7987499,6.629544734954834,-4.146757125854492,-3.5003228187561035,76.5838623046875,151.2603759765625,-5.157470703125
1.8012499,6.655880928039551,-4.165910720825195,-3.4548330307006836,78.3843994140625,150.054931640625,-4.547119140625
1.8037499,6.66785192489624,-4.185064792633057,-3.428496837615967,79.8797607421875,148.895263671875,-4.1351318359375
1.8062498999999999,6.675034523010254,-4.197035789489746,-3.404554843902588,81.207275390625,147.9034423828125,-3.60107421875
1.8087499,6.682217121124268,-4.2090067863464355,-3.397372245788574,82.427978515625,146.66748046875,-2.960205078125
1.8112499,6.682217121124268,-4.216189384460449,-3.3949780464172363,83.587646484375,145.69091796875,-2.532958984375
1.8137499,6.67982292175293,-4.2090067863464355,-3.397372245788574,84.4268798828125,145.0653076171875,-1.9989013671875
1.8162498999999999,6.672640323638916,-4.189853191375732,-3.406949043273926,84.869384765625,144.195556640625,-1.678466796875
1.8187499,6.658275127410889,-4.151545524597168,-3.4117374420166016,85.113525390625,143.2647705078125,-1.2054443359375
1.8212499,6.63433313369751,-4.098873138427734,-3.4189200401306152,85.205078125,142.4713134765625,-0.79345703125
1.8237499,6.617573261260986,-4.039018154144287,-3.4165258407592773,85.38818359375,141.6778564453125,-0.4425048828125
1.8262498999999999,6.603208065032959,-3.9695863723754883,-3.4165258407592773,85.3118896484375,140.8538818359375,-0.30517578125
1.8287499,6.603208065032959,-3.8953661918640137,-3.406949043273926,84.8236083984375,140.1519775390625,-0.213623046875
1.8312499,6.619967937469482,-3.804386615753174,-3.399766445159912,84.0606689453125,139.4805908203125,-0.1678466796875
1.8337499,6.653486728668213,-3.708618402481079,-3.3854012489318848,83.0230712890625,138.7786865234375,-0.335693359375
1.8362498999999999,6.7061591148376465,-3.60566782951355,-3.359065055847168,81.817626953125,138.2293701171875,-0.5340576171875
1.8387499,6.773196697235107,-3.5051112174987793,-3.3255462646484375,80.7342529296875,137.75634765625,-0.7476806640625
1.8412499,6.868964672088623,-3.450044631958008,-3.270479440689087,79.52880859375,137.237548828125,-1.129150390625
1.8437499,6.976703643798828,-3.3734302520751953,-3.222595453262329,78.887939453125,136.8408203125,-1.52587890625
1.8462498999999999,7.094019412994385,-3.3518824577331543,-3.138798475265503,77.45361328125,136.3372802734375,-2.166748046875
1.8487499,7.220912456512451,-3.31118106842041,-3.0861260890960693,75.98876953125,135.8489990234375,-2.8076171875
1.8512499,7.340622425079346,-3.2992098331451416,-3.0119056701660156,75.103759765625,135.1470947265625,-3.4332275390625
1.8537499,7.47230339050293,-3.3039982318878174,-2.985569477081299,74.1119384765625,134.0179443359375,-4.3182373046875
1.8562499,7.589619159698486,-3.3255462646484375,-2.9496564865112305,73.1353759765625,133.2855224609375,-5.218505859375
1.8587498999999998,7.704541206359863,-3.3638534545898438,-2.937685489654541,72.5860595703125,132.4462890625,-6.1492919921875
1.8612499,7.802703380584717,-3.4117374420166016,-2.913743495941162,72.32666015625,131.5460205078125,-6.9122314453125
1.8637499,7.8960771560668945,-3.4763808250427246,-2.8850131034851074,71.8841552734375,130.4168701171875,-7.62939453125
1.8662499,7.979874134063721,-3.56017804145813,-2.8562827110290527,71.929931640625,129.5166015625,-8.2855224609375
1.8687498999999999,8.063671112060547,-3.667917013168335,-2.8227639198303223,72.0367431640625,128.570556640625,-9.033203125
1.8712499,8.135497093200684,-3.7900211811065674,-2.7892448902130127,72.5250244140625,127.6397705078125,-9.429931640625
1.8737499,8.188169479370117,-3.931279182434082,-2.7509377002716064,73.272705078125,126.6937255859375,-9.857177734375
1.8762499,8.214506149291992,-4.067748546600342,-2.7054479122161865,74.0966796875,125.762939453125,-10.1470947265625
1.8787498999999999,8.219294548034668,-4.2090067863464355,-2.669534921646118,74.8138427734375,124.725341796875,-10.31494140625
1.8812499,8.20732307434082,-4.333505153656006,-2.6360161304473877,75.68359375,123.6572265625,-10.43701171875
1.8837499,8.188169479370117,-4.443638324737549,-2.6192567348480225,76.690673828125,122.8179931640625,-10.3607177734375
1.8862499,8.17141056060791,-4.529829502105713,-2.6144683361053467,77.484130859375,121.795654296875,-10.345458984375
1.8887498999999999,8.159439086914062,-4.584896087646484,-2.626439332962036,78.094482421875,120.66650390625,-10.4522705078125
1.8912499,8.154650688171387,-4.594472885131836,-2.691082715988159,79.742431640625,118.10302734375,-9.9639892578125
1.8937499,8.169015884399414,-4.54419469833374,-2.736572504043579,80.4443359375,117.034912109375,-9.94873046875
1.8962499,8.192957878112793,-4.474762916564941,-2.786850690841675,81.2835693359375,115.6005859375,-10.5133056640625
1.8987498999999999,8.238448143005371,-4.390965938568115,-2.832340717315674,82.000732421875,114.5782470703125,-10.833740234375
1.9012499,8.288725852966309,-4.316745758056641,-2.875436305999756,82.7484130859375,113.6322021484375,-11.2457275390625
1.9037499,8.348581314086914,-4.24970817565918,-2.9089550971984863,83.31298828125,112.60986328125,-11.8408203125
1.9062499,8.398859977722168,-4.189853191375732,-2.9281086921691895,84.0301513671875,111.663818359375,-12.3443603515625
1.9087498999999999,8.432378768920898,-4.141968727111816,-2.940079689025879,84.3353271484375,110.8245849609375,-12.939453125
1.9112499,8.44434928894043,-4.089296340942383,-2.937685489654541,84.53369140625,109.893798828125,-13.6566162109375
1.9137499,8.434772491455078,-4.039018154144287,-2.935291290283203,84.6405029296875,108.7799072265625,-14.0533447265625
1.9162499,8.40843677520752,-3.9815573692321777,-2.9305028915405273,84.41162109375,108.21533203125,-14.4805908203125
1.9187499,8.379706382751465,-3.9193081855773926,-2.942473888397217,84.0301513671875,107.6202392578125,-15.07568359375
1.9212498999999998,8.35097599029541,-3.8546648025512695,-2.959233283996582,83.6944580078125,106.9488525390625,-15.716552734375
1.9237499,8.315062522888184,-3.780444383621216,-2.9903578758239746,82.9925537109375,105.9722900390625,-16.2506103515625
1.9262499,8.274360656738281,-3.7014358043670654,-3.0166940689086914,82.305908203125,104.98046875,-16.9525146484375
1.9287499,8.236053466796875,-3.624821424484253,-3.0406360626220703,81.5277099609375,103.7750244140625,-17.4407958984375
1.9312498999999999,8.202534675598145,-3.5434184074401855,-3.0573954582214355,80.74951171875,102.6458740234375,-17.730712890625
1.9337499,8.178592681884766,-3.4787750244140625,-3.069366693496704,79.9102783203125,101.5472412109375,-18.3563232421875
1.9362499,8.17141056060791,-3.4141316413879395,-3.0765492916107178,79.010009765625,100.2655029296875,-18.9208984375
1.9387499,8.17141056060791,-3.359065055847168,-3.07415509223938,78.1707763671875,98.7396240234375,-19.561767578125
1.9412498999999999,8.166622161865234,-3.3063924312591553,-3.0597896575927734,77.301025390625,97.35107421875,-19.8974609375
1.9437499,8.159439086914062,-3.2585084438323975,-3.0310592651367188,76.3397216796875,95.977783203125,-20.2789306640625
1.9462499,8.133103370666504,-3.2082302570343018,-2.9975404739379883,75.3631591796875,94.268798828125,-20.5841064453125
1.9487499,8.121131896972656,-3.1890766620635986,-2.9544448852539062,74.27978515625,92.315673828125,-20.8587646484375
1.9512498999999999,7.970297336578369,-3.0166940689086914,-2.9448680877685547,73.42529296875,90.789794921875,-20.477294921875
1.9537499,7.879317760467529,-2.9735984802246094,-2.8874073028564453,68.9239501953125,88.1500244140625,-20.2484130859375
1.9562499,7.773972988128662,-2.8131868839263916,-2.9041666984558105,66.7877197265625,85.3424072265625,-20.3399658203125
1.9587499,7.773972988128662,-2.7509377002716064,-2.87064790725708,65.9942626953125,84.381103515625,-20.6146240234375
1.9612498999999999,7.9415669441223145,-2.7557260990142822,-2.8850131034851074,63.29345703125,83.2977294921875,-21.3165283203125
1.9637499,8.236053466796875,-2.7676970958709717,-2.911349296569824,62.2100830078125,82.3211669921875,-21.209716796875
1.9662499,8.5903959274292,-2.801215887069702,-2.937685489654541,61.2945556640625,82.1380615234375,-21.17919921875
1.9687499,8.971074104309082,-2.853888511657715,-2.9759926795959473,59.478759765625,82.611083984375,-21.1181640625
1.9712498999999999,9.294290542602539,-2.875436305999756,-3.004723072052002,58.3343505859375,82.550048828125,-20.965576171875
1.9737499,9.437943458557129,-2.8203697204589844,-3.021482467651367,57.0220947265625,82.000732421875,-20.965576171875
1.9762499,9.500192642211914,-2.82515811920166,-3.0142998695373535,54.107666015625,80.474853515625,-20.9808349609375
1.9787499,9.433155059814453,-2.760514497756958,-3.0166940689086914,54.38232421875,78.5064697265625,-20.294189453125
1.9812499,9.363722801208496,-2.832340717315674,-2.889801502227783,53.314208984375,77.1484375,-20.263671875
1.9837499,9.232041358947754,-2.7940332889556885,-3.004723072052002,51.3763427734375,75.3326416015625,-20.6756591796875
1.9862499,9.205705642700195,-2.9520506858825684,-2.806004285812378,50.6744384765625,73.54736328125,-19.47021484375
1.9887499,9.14345645904541,-3.028665065765381,-2.8993782997131348,51.1322021484375,72.8607177734375,-18.9361572265625
1.9912499,9.14585018157959,-3.268085241317749,-2.760514497756958,51.849365234375,72.2198486328125,-18.035888671875
1.9937498999999999,9.129091262817383,-3.5266590118408203,-2.693476915359497,52.490234375,70.6329345703125,-17.1966552734375
1.9962499,9.028534889221191,-3.7852327823638916,-2.5785553455352783,52.6885986328125,68.5272216796875,-16.3421630859375
1.9987499,8.860940933227539,-3.9911341667175293,-2.4851813316345215,53.1463623046875,66.162109375,-15.1519775390625
2.0012499,8.676587104797363,-4.170699596405029,-2.3942017555236816,53.1768798828125,63.4002685546875,-13.946533203125
2.0037499,8.525752067565918,-4.2975921630859375,-2.3343467712402344,53.89404296875,61.492919921875,-12.6953125
2.0062499,8.44195556640625,-4.41969633102417,-2.300827741622925,54.901123046875,59.4940185546875,-11.5966796875
2.0087498999999998,8.432378768920898,-4.529829502105713,-2.2864625453948975,55.755615234375,57.3577880859375,-10.3302001953125
2.0112499,8.473079681396484,-4.651933670043945,-2.2888567447662354,57.0831298828125,55.6793212890625,-9.2315673828125
2.0137499,8.540117263793945,-4.790797710418701,-2.3104045391082764,58.7615966796875,54.046630859375,-8.026123046875
2.0162499,8.604761123657227,-4.929661273956299,-2.33913516998291,60.3485107421875,52.154541015625,-6.988525390625
2.0187499,8.635885238647461,-5.0469770431518555,-2.3750481605529785,61.859130859375,50.23193359375,-5.6915283203125
2.0212499,8.635885238647461,-5.12119722366333,-2.408566951751709,63.629150390625,48.248291015625,-4.5623779296875
2.0237499,8.619126319885254,-5.173870086669922,-2.449268341064453,65.1092529296875,46.112060546875,-3.5552978515625
2.0262499,8.595184326171875,-5.197812080383301,-2.4827871322631836,66.5740966796875,44.1741943359375,-2.3040771484375
2.0287498999999998,8.592789649963379,-5.240907669067383,-2.5330653190612793,68.206787109375,42.2821044921875,-1.1444091796875
2.0312499,8.59997272491455,-5.2911858558654785,-2.580949544906616,70.068359375,40.7562255859375,0
2.0337499,8.614337921142578,-5.343858242034912,-2.612074136734009,71.990966796875,39.36767578125,0.885009765625
2.0362499,8.616731643676758,-5.398924827575684,-2.6623523235321045,73.4100341796875,37.7655029296875,1.922607421875
2.0387499,8.59997272491455,-5.430049419403076,-2.652775526046753,74.7222900390625,36.07177734375,3.0364990234375
2.0412499,8.56645393371582,-5.458779811859131,-2.669534921646118,75.9735107421875,34.5306396484375,4.1046142578125
2.0437499,8.520963668823242,-5.475539207458496,-2.6599581241607666,76.7822265625,32.867431640625,5.0201416015625
2.0462499,8.47786808013916,-5.492298603057861,-2.6599581241607666,77.69775390625,31.3262939453125,6.0882568359375
2.0487499,8.437167167663574,-5.499481201171875,-2.655169725418091,78.216552734375,29.6783447265625,7.0953369140625
2.0512498999999997,8.40843677520752,-5.499481201171875,-2.6384103298187256,78.6285400390625,28.25927734375,7.8582763671875
2.0537499,8.401253700256348,-5.480327606201172,-2.6240451335906982,78.8116455078125,26.79443359375,8.6517333984375
2.0562499,8.413225173950195,-5.4444146156311035,-2.604891538619995,78.8116455078125,25.4669189453125,9.185791015625
2.0587499,8.44434928894043,-5.394136428833008,-2.5953147411346436,78.521728515625,24.0936279296875,9.6282958984375
2.0612499,8.487444877624512,-5.3342814445495605,-2.585737943649292,78.369140625,22.7203369140625,10.1165771484375
2.0637499,8.530540466308594,-5.2696380615234375,-2.5737667083740234,77.6519775390625,21.3775634765625,10.2081298828125
2.0662499,8.573636054992676,-5.197812080383301,-2.542642116546631,76.7822265625,20.2178955078125,10.528564453125
2.0687499,8.616731643676758,-5.128379821777344,-2.5091233253479004,75.8819580078125,19.012451171875,10.68115234375
2.0712498999999998,8.65982723236084,-5.058948040008545,-2.4612393379211426,74.03564453125,18.12744140625,10.7574462890625
2.0737499,8.712499618530273,-5.006275653839111,-2.4229321479797363,72.4639892578125,17.181396484375,10.894775390625
2.0762499,8.767566680908203,-4.975151062011719,-2.3774423599243164,71.0601806640625,16.5252685546875,11.0015869140625
2.0787499,8.822632789611816,-4.963180065155029,-2.341529369354248,69.3206787109375,16.143798828125,10.92529296875
2.0812499,8.868123054504395,-4.970362663269043,-2.3056161403656006,67.19970703125,15.380859375,10.9405517578125
2.0837499,8.9064302444458,-4.972756862640381,-2.279279947280884,64.94140625,14.8773193359375,10.986328125
2.0862499,8.932766914367676,-4.977545261383057,-2.2577321529388428,62.5152587890625,14.2364501953125,10.8795166015625
2.0887499,8.949525833129883,-4.955997467041016,-2.2457611560821533,59.9365234375,13.73291015625,11.0321044921875
2.0912498999999998,8.96149730682373,-4.920084476470947,-2.2409727573394775,57.31201171875,13.092041015625,11.1236572265625
2.0937499,8.966285705566406,-4.8602294921875,-2.2385785579681396,54.74853515625,12.5732421875,10.9405517578125
2.0962499,8.973467826843262,-4.786009311676025,-2.233790159225464,51.8798828125,12.1002197265625,10.5743408203125
2.0987499,9.004592895507812,-4.63517427444458,-2.1930887699127197,45.654296875,11.2152099609375,10.1165771484375
2.1012499,9.033323287963867,-4.565742492675781,-2.1595699787139893,42.66357421875,10.80322265625,9.8114013671875
2.1037499,9.062053680419922,-4.503493309020996,-2.121262788772583,39.7186279296875,10.43701171875,9.09423828125
2.1062499,9.090784072875977,-4.446032524108887,-2.0805611610412598,37.0025634765625,10.07080078125,8.697509765625
2.1087499,9.117119789123535,-4.400542736053467,-2.0422539710998535,34.0118408203125,9.8876953125,8.1634521484375
2.1112499,9.138668060302734,-4.364629745483398,-1.987187385559082,31.1279296875,9.552001953125,7.4615478515625
2.1137498999999997,9.160215377807617,-4.345476150512695,-1.922544002532959,28.106689453125,9.4146728515625,6.8511962890625
2.1162499,9.17697525024414,-4.331110954284668,-1.845929503440857,25.4058837890625,9.185791015625,6.2713623046875
2.1187499,9.191340446472168,-4.323928356170654,-1.764526605606079,22.5982666015625,8.941650390625,5.4779052734375
2.1212499,9.196128845214844,-4.321534156799316,-1.6759412288665771,19.8211669921875,8.6517333984375,4.9896240234375
2.1237499,9.186552047729492,-4.326322555541992,-1.5945383310317993,17.242431640625,8.7890625,4.302978515625
2.1262499,9.167398452758789,-4.350264549255371,-1.5107412338256836,14.7247314453125,8.7127685546875,3.7078857421875
2.1287499,9.136273384094238,-4.381389141082764,-1.4221558570861816,12.481689453125,8.575439453125,3.0517578125
2.1312499,9.100360870361328,-4.4292731285095215,-1.3335703611373901,10.55908203125,8.6212158203125,2.6397705078125
2.1337498999999998,9.059659004211426,-4.479551315307617,-1.2449848651885986,8.36181640625,8.697509765625,2.227783203125
2.1362499,9.016563415527344,-4.522646903991699,-1.1563993692398071,6.4544677734375,8.72802734375,1.6326904296875
2.1387499,8.975862503051758,-4.568136692047119,-1.0773907899856567,4.6844482421875,8.7127685546875,1.1749267578125
2.1412499,8.93037223815918,-4.611232280731201,-1.0031704902648926,2.9754638671875,8.9874267578125,0.732421875
2.1437499,8.889671325683594,-4.661510944366455,-0.9193734526634216,1.800537109375,9.1094970703125,0.335693359375
2.1462499,8.853757858276367,-4.721365928649902,-0.828393816947937,0.7781982421875,9.2926025390625,0.0457763671875
2.1487499,8.822632789611816,-4.793191909790039,-0.7326257228851318,-0.06103515625,9.124755859375,-0.1373291015625
2.1512499,8.810662269592285,-4.874594688415527,-0.629675030708313,-0.8544921875,9.2926025390625,-0.4425048828125
2.1537498999999998,8.808267593383789,-4.9583916664123535,-0.5267243981361389,-1.5411376953125,9.613037109375,-0.54931640625
2.1562499,8.822632789611816,-5.039794445037842,-0.43095630407333374,-2.0751953125,9.82666015625,-0.5950927734375
2.1587499,8.834604263305664,-5.1116204261779785,-0.33279404044151306,-2.2735595703125,9.94873046875,-0.7781982421875
2.1612499,8.848969459533691,-5.171475887298584,-0.24660277366638184,-2.2735595703125,10.223388671875,-0.8087158203125
2.1637499,8.856152534484863,-5.22175407409668,-0.17238251864910126,-2.0751953125,10.3759765625,-0.9918212890625
2.1662499,8.856152534484863,-5.25527286529541,-0.10773907601833344,-1.4801025390625,10.68115234375,-1.2359619140625
2.1687499,8.846575736999512,-5.281609058380127,-0.047884032130241394,-0.9918212890625,11.16943359375,-1.2969970703125
2.1712499,8.829815864562988,-5.286397457122803,0.011971008032560349,-0.4425048828125,11.322021484375,-1.2054443359375
2.1737499,8.810662269592285,-5.279214859008789,0.07182604819536209,0.06103515625,11.474609375,-1.495361328125
2.1762499,8.786720275878906,-5.262455463409424,0.13407529890537262,0.7476806640625,11.4288330078125,-1.6326904296875
2.1787499,8.765172004699707,-5.2480902671813965,0.19871874153614044,1.434326171875,11.474609375,-1.739501953125
2.1812499,8.738836288452148,-5.233725070953369,0.26336219906806946,2.2125244140625,11.6729736328125,-1.7547607421875
2.1837499,8.707711219787598,-5.2265424728393555,0.3208230137825012,3.0670166015625,11.810302734375,-2.0599365234375
2.1862499,8.681375503540039,-5.216965675354004,0.38067805767059326,3.8299560546875,12.14599609375,-2.13623046875
2.1887499,8.655038833618164,-5.2049946784973145,0.43335050344467163,4.7149658203125,11.9781494140625,-2.0904541015625
2.1912499,8.62630844116211,-5.188235282897949,0.4884171485900879,5.462646484375,11.9476318359375,-2.38037109375
2.1937499,8.5903959274292,-5.16429328918457,0.5434837937355042,6.1492919921875,12.14599609375,-2.4566650390625
2.1962498999999998,8.547300338745117,-5.130774021148682,0.5961562395095825,6.8511962890625,11.932373046875,-2.4566650390625
2.1987499,8.504204750061035,-5.092466831207275,0.6440402865409851,7.354736328125,11.8560791015625,-2.777099609375
2.2012499,8.463502883911133,-5.049371242523193,0.6799532771110535,7.8887939453125,12.0086669921875,-2.9296875
2.2037499,8.434772491455078,-5.011064052581787,0.706289529800415,8.23974609375,11.90185546875,-2.99072265625
2.2062499,8.413225173950195,-4.982333660125732,0.7230489253997803,8.8043212890625,12.0086669921875,-3.448486328125
2.2087499,8.391676902770996,-4.963180065155029,0.7350199222564697,9.4146728515625,12.1002197265625,-3.448486328125
2.2112499,8.370129585266113,-4.970362663269043,0.730231523513794,9.9334716796875,11.993408203125,-3.6468505859375
2.2137499,8.355764389038086,-4.989516258239746,0.7206547260284424,10.4217529296875,12.0086669921875,-3.7078857421875
2.2162498999999998,8.339004516601562,-5.032611846923828,0.6967126727104187,11.1541748046875,12.20703125,-3.7078857421875
2.2187499,8.341399192810059,-5.094861030578613,0.6607996821403503,12.1917724609375,11.962890625,-3.4637451171875
2.2212499,8.35336971282959,-5.166687488555908,0.629675030708313,13.0462646484375,11.993408203125,-3.2958984375
2.2237499,8.377311706542969,-5.240907669067383,0.5961562395095825,13.671875,12.3443603515625,-3.0364990234375
2.2262499,8.406042098999023,-5.315127849578857,0.5722141861915588,14.6942138671875,12.4359130859375,-2.7313232421875
2.2287499,8.432378768920898,-5.367800235748291,0.5650315880775452,15.7012939453125,12.481689453125,-2.4871826171875
2.2312499,8.451532363891602,-5.406107425689697,0.5722141861915588,16.3726806640625,12.3443603515625,-2.1820068359375
2.2337499,8.470685958862305,-5.420472621917725,0.5985504388809204,17.0440673828125,12.26806640625,-1.7547607421875
2.2362499,8.489839553833008,-5.415684223175049,0.6368576288223267,18.06640625,12.2222900390625,-1.220703125
2.2387499,8.494627952575684,-5.39174222946167,0.689530074596405,18.6767578125,12.2222900390625,-0.91552734375
2.2412499,8.501810073852539,-5.360617637634277,0.7493851184844971,18.8140869140625,11.993408203125,-0.701904296875
2.2437499,8.49941635131836,-5.305551052093506,0.811634361743927,19.4549560546875,11.7645263671875,-0.3662109375
2.2462499,8.501810073852539,-5.262455463409424,0.8786720037460327,20.0958251953125,11.5814208984375,-0.18310546875
2.2487499,8.506598472595215,-5.200206279754639,0.9241618514060974,20.5078125,11.3983154296875,-0.0762939453125
2.2512499,8.513781547546387,-5.149928092956543,0.9600749015808105,21.1334228515625,11.3525390625,-0.0762939453125
2.2537499,8.516175270080566,-5.123591423034668,0.9864110946655273,21.4080810546875,11.199951171875,0
2.2562499,8.504204750061035,-5.080495834350586,0.9672574996948242,22.15576171875,11.016845703125,0.0762939453125
2.2587498999999998,8.492233276367188,-5.073313236236572,0.9720458984375,22.3236083984375,10.6048583984375,-0.0457763671875
2.2612499,8.470685958862305,-5.051765441894531,0.9313444495201111,22.88818359375,10.1165771484375,-0.091552734375
2.2637499,8.453926086425781,-5.035006046295166,0.8954314589500427,22.9644775390625,9.765625,-0.1220703125
2.2662499,8.451532363891602,-5.04218864440918,0.8690952062606812,23.4222412109375,9.521484375,-0.1068115234375
2.2687499,8.456320762634277,-5.0469770431518555,0.8188169598579407,24.0936279296875,9.2620849609375,-0.2899169921875
2.2712499,8.470685958862305,-5.07570743560791,0.7924807667732239,24.5513916015625,8.8958740234375,-0.2899169921875
2.2737499,8.47547435760498,-5.0900726318359375,0.7422025203704834,25.146484375,8.5906982421875,-0.3814697265625
2.2762499,8.470685958862305,-5.097255229949951,0.7182605266571045,25.665283203125,8.1024169921875,-0.274658203125
2.2787498999999998,8.461109161376953,-5.0876784324646,0.6655880808830261,25.8331298828125,7.598876953125,-0.244140625
2.2812499,8.449137687683105,-5.082890033721924,0.6584054827690125,26.3671875,6.805419921875,-0.2899169921875
2.2837499,8.451532363891602,-5.078101634979248,0.629675030708313,26.4892578125,6.6680908203125,-0.1220703125
2.2862499,8.468291282653809,-5.07570743560791,0.6177040338516235,26.7486572265625,6.34765625,-0.1678466796875
2.2887499,8.497021675109863,-5.085284233093262,0.6177040338516235,27.069091796875,6.072998046875,-0.18310546875
2.2912499,8.53293514251709,-5.080495834350586,0.608127236366272,27.4810791015625,5.6915283203125,-0.06103515625
2.2937499,8.571242332458496,-5.082890033721924,0.5985504388809204,27.801513671875,5.5389404296875,-0.1068115234375
2.2962499,8.611943244934082,-5.073313236236572,0.6057330369949341,28.1219482421875,5.0201416015625,0.0152587890625
2.2987499,8.662221908569336,-5.063736438751221,0.5841852426528931,28.2440185546875,4.7760009765625,0.0457763671875
2.3012499,8.71489429473877,-5.044582843780518,0.569819986820221,28.4881591796875,4.5318603515625,-0.18310546875
2.3037499,8.769960403442383,-5.027823448181152,0.5482721924781799,28.4271240234375,4.180908203125,-0.3509521484375
2.3062499,8.87051773071289,-4.989516258239746,0.4908113479614258,28.74755859375,3.570556640625,-0.518798828125
2.3087499,8.913613319396973,-4.972756862640381,0.4644751250743866,28.74755859375,3.021240234375,-0.762939453125
2.3112499,8.959102630615234,-4.955997467041016,0.4405331015586853,28.6102294921875,2.716064453125,-0.8544921875
2.3137499,8.992621421813965,-4.927267074584961,0.4165911078453064,28.7017822265625,2.4871826171875,-0.701904296875
2.3162499,9.030928611755371,-4.90571928024292,0.3902548849582672,28.2440185546875,2.0294189453125,-0.7781982421875
2.3187499,9.045293807983398,-4.8602294921875,0.35913026332855225,27.801513671875,1.8463134765625,-0.9613037109375
2.3212498999999998,9.05247688293457,-4.824316501617432,0.3256114423274994,27.3284912109375,1.2969970703125,-0.7171630859375
2.3237499,9.045293807983398,-4.788403511047363,0.2849099934101105,26.9317626953125,0.7476806640625,-0.5645751953125
2.3262499,9.030928611755371,-4.754884719848633,0.24420857429504395,26.2603759765625,0.518798828125,-0.91552734375
2.3287499,9.01895809173584,-4.721365928649902,0.19871874153614044,25.4669189453125,0.1678466796875,-1.03759765625
2.3312499,9.004592895507812,-4.680664539337158,0.15083470940589905,24.5361328125,-0.3509521484375,-0.9765625
2.3337499,8.995016098022461,-4.639962673187256,0.11252748221158981,23.3306884765625,-0.8392333984375,-0.9307861328125
2.3362499,8.98543930053711,-4.587290287017822,0.06464344263076782,22.064208984375,-1.190185546875,-1.03759765625
2.3387499,8.975862503051758,-4.5394062995910645,0.031124621629714966,20.721435546875,-1.8768310546875,-0.885009765625
2.3412498999999998,8.973467826843262,-4.489128112792969,-0.0071826050989329815,18.9971923828125,-2.3956298828125,-0.9613037109375
2.3437499,8.968679428100586,-4.448426723480225,-0.028730420395731926,17.4407958984375,-2.7618408203125,-1.0833740234375
2.3462499,8.96389102935791,-4.412513732910156,-0.0454898327589035,15.80810546875,-3.11279296875,-1.220703125
2.3487499,8.96149730682373,-4.400542736053467,-0.047884032130241394,14.007568359375,-3.5400390625,-1.5411376953125
2.3512499,8.951920509338379,-4.383783340454102,-0.05027823522686958,12.1612548828125,-3.814697265625,-1.5869140625
2.3537499,8.944737434387207,-4.381389141082764,-0.05267243832349777,9.979248046875,-4.2724609375,-1.6021728515625
2.3562499,8.937555313110352,-4.378994941711426,-0.05506663769483566,7.8887939453125,-4.5013427734375,-1.6326904296875
2.3587499,8.923190116882324,-4.383783340454102,-0.05985504388809204,5.9356689453125,-4.5928955078125,-1.922607421875
2.3612499,8.908824920654297,-4.393360137939453,-0.0694318488240242,3.90625,-4.94384765625,-2.1514892578125
2.3637499,8.887276649475098,-4.412513732910156,-0.08140286058187485,1.9378662109375,-5.3253173828125,-2.13623046875
2.3662499,8.856152534484863,-4.434061527252197,-0.10055647045373917,-0.396728515625,-5.8441162109375,-2.6702880859375
2.3687499,8.829815864562988,-4.460397720336914,-0.11971008777618408,-2.349853515625,-5.9967041015625,-2.9144287109375
2.3712499,8.80587387084961,-4.501099109649658,-0.12928688526153564,-3.8909912109375,-6.195068359375,-2.838134765625
2.3737499,8.78432559967041,-4.548983097076416,-0.1388636976480484,-5.4779052734375,-6.317138671875,-3.082275390625
2.3762499,8.777143478393555,-4.613626480102539,-0.13407529890537262,-7.0953369140625,-6.5765380859375,-3.265380859375
2.3787499,8.774748802185059,-4.687847137451172,-0.11971008777618408,-8.697509765625,-6.683349609375,-3.41796875
2.3812499,8.779537200927734,-4.764461517333984,-0.10055647045373917,-10.1165771484375,-6.8511962890625,-3.753662109375
2.3837498999999998,8.789113998413086,-4.841075897216797,-0.0694318488240242,-11.6119384765625,-6.8359375,-4.058837890625
2.3862499,8.793902397155762,-4.903325080871582,-0.033518824726343155,-12.5579833984375,-6.988525390625,-4.0130615234375
2.3887499,8.796297073364258,-4.965574264526367,0.002394201699644327,-13.4735107421875,-7.2479248046875,-3.9520263671875
2.3912499,8.793902397155762,-5.020640850067139,0.038307227194309235,-14.312744140625,-7.2784423828125,-3.814697265625
2.3937499,8.793902397155762,-5.085284233093262,0.08140286058187485,-15.0146484375,-7.080078125,-3.96728515625
2.3962499,8.793902397155762,-5.161899089813232,0.12210428714752197,-15.5181884765625,-6.9427490234375,-3.997802734375
2.3987499,8.793902397155762,-5.245696067810059,0.181959331035614,-15.838623046875,-6.77490234375,-3.875732421875
2.4012499,8.78432559967041,-5.327098846435547,0.2322375625371933,-15.8233642578125,-6.53076171875,-4.0435791015625
2.4037498999999998,8.774748802185059,-5.403713226318359,0.28969839215278625,-15.9149169921875,-6.40869140625,-3.9520263671875
2.4062499,8.75080680847168,-5.473145008087158,0.3495534360408783,-15.7012939453125,-6.40869140625,-3.7841796875
2.4087499,8.734047889709473,-5.535394191741943,0.3974374830722809,-15.2740478515625,-6.1492919921875,-3.692626953125
2.4112499,8.710105895996094,-5.600037574768066,0.45250412821769714,-14.801025390625,-5.9051513671875,-3.6468505859375
2.4137499,8.686163902282715,-5.659893035888672,0.49320554733276367,-14.0380859375,-5.7525634765625,-3.936767578125
2.4162499,8.667010307312012,-5.717353820800781,0.5434837937355042,-13.2598876953125,-5.5999755859375,-3.8909912109375
2.4187499,8.652645111083984,-5.774814605712891,0.5841852426528931,-12.359619140625,-5.2642822265625,-3.570556640625
2.4212499,8.631096839904785,-5.822698593139648,0.6177040338516235,-11.0626220703125,-4.8675537109375,-3.8299560546875
2.4237499,8.614337921142578,-5.870582580566406,0.6440402865409851,-9.6435546875,-4.6539306640625,-3.814697265625
2.4262499,8.597578048706055,-5.916072368621826,0.6536170840263367,-8.453369140625,-4.3792724609375,-3.7841796875
2.4287499,8.573636054992676,-5.966350555419922,0.6584054827690125,-7.1258544921875,-3.8604736328125,-3.7841796875
2.4312499,8.552088737487793,-6.021417140960693,0.6584054827690125,-5.6610107421875,-3.4942626953125,-3.72314453125
2.4337499,8.530540466308594,-6.074089527130127,0.6536170840263367,-4.0435791015625,-3.3111572265625,-3.72314453125
2.4362499,8.501810073852539,-6.119579315185547,0.6440402865409851,-2.2430419921875,-2.899169921875,-3.5858154296875
2.4387499,8.468291282653809,-6.141127586364746,0.6177040338516235,-0.7171630859375,-2.8533935546875,-3.3111572265625
2.4412499,8.437167167663574,-6.1530985832214355,0.5889736413955688,1.0223388671875,-2.6702880859375,-3.1890869140625
2.4437499,8.394071578979492,-6.141127586364746,0.545877993106842,2.62451171875,-2.38037109375,-3.143310546875
2.4462498999999998,8.35336971282959,-6.119579315185547,0.507570743560791,4.2877197265625,-2.166748046875,-2.8839111328125
2.4487499,8.300697326660156,-6.076483726501465,0.4668693244457245,5.7220458984375,-1.89208984375,-2.777099609375
2.4512499,8.252813339233398,-6.028599739074707,0.4405331015586853,7.26318359375,-2.25830078125,-2.5787353515625
2.4537499,8.20492935180664,-5.961562156677246,0.42616790533065796,8.72802734375,-2.3345947265625,-2.4871826171875
2.4562499,8.17141056060791,-5.896918773651123,0.43335050344467163,9.94873046875,-2.38037109375,-2.5634765625
2.4587499,8.154650688171387,-5.829881191253662,0.4572925269603729,11.0931396484375,-2.50244140625,-2.5787353515625
2.4612499,8.152256965637207,-5.750872611999512,0.48602294921875,12.4359130859375,-2.38037109375,-2.4261474609375
2.4637499,8.159439086914062,-5.674258232116699,0.5171475410461426,13.2598876953125,-2.4261474609375,-2.3345947265625
2.4662498999999998,8.17380428314209,-5.571307182312012,0.5291185975074768,14.1143798828125,-2.593994140625,-2.5177001953125
2.4687499,8.183381080627441,-5.47075080871582,0.5219359993934631,14.4500732421875,-2.74658203125,-2.4261474609375
2.4712499,8.180987358093262,-5.367800235748291,0.5003881454467773,14.95361328125,-2.50244140625,-2.471923828125
2.4737499,8.178592681884766,-5.274426460266113,0.4668693244457245,15.3350830078125,-2.593994140625,-2.5634765625
2.4762499,8.161833763122559,-5.190629482269287,0.43095630407333374,15.4571533203125,-2.62451171875,-2.5787353515625
2.4787499,8.147468566894531,-5.114014625549316,0.395043283700943,15.7318115234375,-2.716064453125,-2.6702880859375
2.4812499,8.135497093200684,-5.044582843780518,0.35913026332855225,15.716552734375,-2.8533935546875,-2.6702880859375
2.4837499,8.121131896972656,-4.960785865783691,0.3232172429561615,15.5487060546875,-2.8839111328125,-2.7618408203125
2.4862499,8.121131896972656,-4.888959884643555,0.28730419278144836,15.045166015625,-3.0059814453125,-2.9144287109375
2.4887499,8.109161376953125,-4.797980308532715,0.2585737705230713,14.5416259765625,-3.204345703125,-2.7923583984375
2.4912499,8.101978302001953,-4.72376012802124,0.22744916379451752,14.0838623046875,-3.4027099609375,-2.8228759765625
2.4937499,8.090007781982422,-4.649539470672607,0.20111294090747833,13.3514404296875,-3.631591796875,-2.7313232421875
2.4962499,8.08043098449707,-4.58968448638916,0.181959331035614,12.664794921875,-3.692626953125,-2.7008056640625
2.4987499,8.075642585754395,-4.5394062995910645,0.17477671802043915,11.8255615234375,-3.96728515625,-2.38037109375
2.5012499,8.075642585754395,-4.496310710906982,0.17238251864910126,10.711669921875,-4.241943359375,-2.4566650390625
2.5037499,8.085219383239746,-4.462791919708252,0.17477671802043915,10.19287109375,-4.39453125,-2.3040771484375
2.5062499,8.097189903259277,-4.441244125366211,0.17717093229293823,9.521484375,-4.4708251953125,-2.4871826171875
2.5087498999999998,8.118738174438477,-4.4292731285095215,0.17717093229293823,8.636474609375,-4.5623779296875,-2.13623046875
2.5112499,8.133103370666504,-4.4292731285095215,0.1843535304069519,7.9803466796875,-4.6539306640625,-1.9378662109375
2.5137499,8.133103370666504,-4.4532151222229,0.23942017555236816,6.1798095703125,-4.69970703125,-1.6326904296875
2.5162499,8.125920295715332,-4.479551315307617,0.28730419278144836,5.279541015625,-5.0506591796875,-1.46484375
2.5187499,8.121131896972656,-4.517858505249023,0.3423708379268646,4.913330078125,-5.0506591796875,-1.28173828125
2.5212499,8.123526573181152,-4.558559894561768,0.40222588181495667,4.2572021484375,-4.8980712890625,-0.7781982421875
2.5237499,8.133103370666504,-4.606443881988525,0.4572925269603729,3.8604736328125,-5.0048828125,-0.3662109375
2.5262499,8.149862289428711,-4.644751071929932,0.5051765441894531,3.7078857421875,-5.1116943359375,-0.1983642578125
2.5287498999999998,8.166622161865234,-4.683058738708496,0.5482721924781799,3.3111572265625,-4.8370361328125,-0.0152587890625
2.5312499,8.183381080627441,-4.714183330535889,0.5770025849342346,3.265380859375,-4.6539306640625,0.457763671875
2.5337499,8.202534675598145,-4.7405195236206055,0.5937620401382446,3.2806396484375,-4.608154296875,0.6103515625
2.5362499,8.202534675598145,-4.757278919219971,0.5937620401382446,3.5400390625,-4.5623779296875,0.823974609375
2.5387499,8.197746276855469,-4.76924991607666,0.5793967843055725,3.4942626953125,-4.425048828125,1.0986328125
2.5412499,8.17141056060791,-4.774038314819336,0.5506663918495178,3.5400390625,-4.5318603515625,1.3427734375
2.5437499,8.147468566894531,-4.771644115447998,0.5123591423034668,4.180908203125,-4.5928955078125,1.617431640625
2.5462499,8.118738174438477,-4.764461517333984,0.4644751250743866,4.0435791015625,-4.7607421875,1.7242431640625
