# Time (seconds),Accel_X,Accel_Y,Accel_Z,Gyro_X,Gyro_Y,Gyro_Z
0.0099999,4.584896087646484,8.645462036132812,-1.2042834758758545,1.5869140625,-7.6141357421875,-6.6680908203125
0.029999900000000003,4.4939165115356445,8.580819129943848,-1.192312479019165,1.2969970703125,-9.521484375,-7.26318359375
0.0499999,4.2760443687438965,8.549694061279297,-1.2401964664459229,1.220703125,-8.880615234375,-6.6375732421875
0.0699999,3.993528366088867,8.544905662536621,-1.3215993642807007,0.8697509765625,-5.859375,-6.317138671875
0.08999990000000001,3.708618402481079,8.56645393371582,-1.403002142906189,-0.1220703125,-2.9449462890625,-6.103515625
0.10999990000000001,3.466804027557373,8.588001251220703,-1.4748282432556152,-0.2288818359375,-2.8839111328125,-4.1046142578125
0.1299999,3.315969467163086,8.616731643676758,-1.525106430053711,-0.579833984375,-3.204345703125,-0.42724609375
0.14999990000000002,3.2609026432037354,8.633491516113281,-1.558625340461731,-0.335693359375,1.861572265625,2.6397705078125
0.1699999,3.337517261505127,8.652645111083984,-1.580173134803772,0.3204345703125,4.8370361328125,5.340576171875
0.1899999,3.514688014984131,8.667010307312012,-1.6041151285171509,-0.152587890625,4.852294921875,5.6304931640625
0.20999990000000002,3.7684733867645264,8.69334602355957,-1.6160861253738403,-1.2054443359375,4.5166015625,4.425048828125
0.2299999,4.046200752258301,8.729259490966797,-1.6208745241165161,-2.2125244140625,4.7454833984375,2.50244140625
0.2499999,4.285621166229248,8.78193187713623,-1.5969325304031372,-2.44140625,4.2877197265625,0.3509521484375
0.2699999,4.4508209228515625,8.83699893951416,-1.5514427423477173,-1.3275146484375,2.6092529296875,-0.9765625
0.28999990000000003,4.5154643058776855,8.887276649475098,-1.4891934394836426,-0.1220703125,-0.1678466796875,-2.44140625
0.3099999,4.484339714050293,8.918401718139648,-1.4221558570861816,0.1068115234375,-1.5411376953125,-3.9215087890625
0.3299999,4.381389141082764,8.927978515625,-1.3694833517074585,0.9918212890625,-1.708984375,-4.0435791015625
0.34999990000000003,4.23773717880249,8.908824920654297,-1.335964560508728,2.471923828125,-1.953125,-4.1046142578125
0.3699999,4.082113742828369,8.875306129455566,-1.3335703611373901,3.1890869140625,-2.38037109375,-4.6539306640625
0.3899999,3.955221176147461,8.832210540771484,-1.357512354850769,2.838134765625,-3.631591796875,-4.6539306640625
0.40999990000000003,3.869029998779297,8.793902397155762,-1.4101848602294922,2.0294189453125,-3.5552978515625,-3.7841796875
0.4299999,3.8307228088378906,8.753201484680176,-1.4748282432556152,1.5869140625,-3.5247802734375,-2.9144287109375
0.4499999,3.845088005065918,8.712499618530273,-1.534683346748352,1.373291015625,-3.7384033203125,-2.166748046875
0.4699999,3.885789394378662,8.669404029846191,-1.5873557329177856,1.4190673828125,-2.227783203125,-2.2735595703125
0.4899999,3.93367338180542,8.640673637390137,-1.6136919260025024,0.2593994140625,-2.471923828125,-2.716064453125
0.5099999,3.957615375518799,8.633491516113281,-1.625662922859192,-0.3814697265625,-2.777099609375,-2.6397705078125
0.5299999,3.955221176147461,8.664615631103516,-1.625662922859192,-0.518798828125,-2.2125244140625,-1.89208984375
0.5499999,3.936067581176758,8.710105895996094,-1.6208745241165161,-1.3275146484375,-1.7242431640625,-1.2359619140625
0.5699999,3.909731388092041,8.769960403442383,-1.6160861253738403,-1.617431640625,-1.678466796875,-0.8392333984375
0.5899998999999999,3.9001545906066895,8.820239067077637,-1.6112977266311646,-0.8544921875,-2.685546875,-0.0762939453125
0.6099998999999999,3.907337188720703,8.856152534484863,-1.6041151285171509,-0.6103515625,-2.25830078125,0.1373291015625
0.6299999,3.931279182434082,8.880094528198242,-1.580173134803772,-1.1444091796875,-0.0152587890625,-0.7476806640625
0.6499999,3.9432501792907715,8.89685344696045,-1.5514427423477173,-1.0833740234375,0.6103515625,-1.89208984375
0.6699999,3.952826976776123,8.9064302444458,-1.50355863571167,-1.0528564453125,-2.44140625,-1.8310546875
0.6899999,3.9432501792907715,8.9064302444458,-1.4484920501708984,-0.335693359375,-2.0599365234375,-1.4495849609375
0.7099999,3.93367338180542,8.880094528198242,-1.403002142906189,1.4495849609375,-1.3427734375,-1.556396484375
0.7299998999999999,3.912125587463379,8.83699893951416,-1.381454348564148,2.166748046875,-2.44140625,-2.44140625
0.7499998999999999,3.8762125968933105,8.78193187713623,-1.3934253454208374,1.739501953125,-3.4332275390625,-3.173828125
0.7699999,3.825934410095215,8.741230010986328,-1.4437036514282227,1.068115234375,-3.2196044921875,-2.410888671875
0.7899999,3.708618402481079,8.75080680847168,-1.6065093278884888,0.1220703125,-1.28173828125,-1.3885498046875
0.8099999,3.6798880100250244,8.78193187713623,-1.6831238269805908,-0.6256103515625,-0.5645751953125,-1.0833740234375
0.8299999,3.6774938106536865,8.825027465820312,-1.7334020137786865,-1.190185546875,0.2899169921875,-0.9765625
0.8499998999999999,3.6966474056243896,8.851364135742188,-1.742978811264038,-2.655029296875,0.823974609375,-1.0986328125
0.8699998999999999,3.737348794937134,8.865729331970215,-1.6950948238372803,-3.2806396484375,0.091552734375,-1.6021728515625
0.8899999,3.7708675861358643,8.87051773071289,-1.6208745241165161,-1.3885498046875,0.457763671875,-2.1209716796875
0.9099999,3.801992416381836,8.860940933227539,-1.5298948287963867,-0.54931640625,-0.2288818359375,-2.2430419921875
0.9299999,3.8115692138671875,8.863334655761719,-1.460463047027588,-0.0762939453125,-1.0833740234375,-2.0294189453125
0.9499999,3.801992416381836,8.863334655761719,-1.4317326545715332,0.6561279296875,-0.67138671875,-1.8157958984375
0.9699998999999999,3.7900211811065674,8.863334655761719,-1.4317326545715332,-0.06103515625,-1.739501953125,-1.46484375
0.9899998999999999,3.773261785507202,8.868123054504395,-1.4676456451416016,0.3662109375,-0.9002685546875,-1.7547607421875
1.0099999,3.758896589279175,8.865729331970215,-1.5131354331970215,-0.1983642578125,-0.091552734375,-2.2125244140625
1.0299999,3.7421371936798096,8.865729331970215,-1.556231141090393,-1.617431640625,-1.8463134765625,-1.8310546875
1.0499999,3.7253777980804443,8.865729331970215,-1.5825673341751099,-1.1444091796875,-2.3956298828125,-0.6103515625
1.0699999,3.713406801223755,8.865729331970215,-1.5897499322891235,-0.5645751953125,-1.2969970703125,0.0762939453125
1.0899999,3.713406801223755,8.868123054504395,-1.5705963373184204,-1.007080078125,-0.396728515625,-0.213623046875
1.1099999,3.711012601852417,8.875306129455566,-1.5466543436050415,-0.1983642578125,-0.244140625,-0.4730224609375
1.1299999,3.7038300037384033,8.892065048217773,-1.5203180313110352,-0.2899169921875,-1.3885498046875,-0.2288818359375
1.1499999,3.687070608139038,8.918401718139648,-1.4963760375976562,-0.4425048828125,-1.3580322265625,0.67138671875
1.1699998999999999,3.670311212539673,8.949525833129883,-1.4891934394836426,0.8087158203125,0.5950927734375,1.46484375
1.1899998999999999,3.6774938106536865,8.971074104309082,-1.4867992401123047,0.640869140625,-0.335693359375,1.5411376953125
1.2099999,3.711012601852417,8.98543930053711,-1.4987702369689941,0,-1.922607421875,1.190185546875
1.2299999,3.7636849880218506,8.978256225585938,-1.5155296325683594,0.3814697265625,-1.7547607421875,0.48828125
1.2499999,3.8331170082092285,8.944737434387207,-1.522712230682373,0.2288818359375,-1.6326904296875,-0.1983642578125
1.2699999,3.8714241981506348,8.9064302444458,-1.5179238319396973,0.885009765625,-0.457763671875,-1.6632080078125
1.2899999,3.883395195007324,8.858546257019043,-1.50355863571167,1.0833740234375,0.1220703125,-2.4261474609375
1.3099999,3.8570590019226074,8.827422142028809,-1.4772224426269531,0.3662109375,-0.823974609375,-1.9378662109375
1.3299999,3.799597978591919,8.813055992126465,-1.45806884765625,1.5869140625,0.3814697265625,-1.800537109375
1.3499999,3.734954595565796,8.803479194641113,-1.4532804489135742,1.7547607421875,-1.3885498046875,-1.617431640625
1.3699999,3.667917013168335,8.808267593383789,-1.4724340438842773,1.129150390625,-5.0201416015625,-1.434326171875
1.3899999,3.6104562282562256,8.820239067077637,-1.5275006294250488,1.190185546875,-4.3182373046875,-0.7171630859375
1.4099999,3.5697548389434814,8.841787338256836,-1.5969325304031372,0.274658203125,-1.4801025390625,0.1220703125
1.4299998999999999,3.5458126068115234,8.87291145324707,-1.6615760326385498,0.1678466796875,2.2125244140625,0.457763671875
1.4499999,3.552995204925537,8.9064302444458,-1.6974890232086182,0.2899169921875,2.838134765625,0.67138671875
1.4699999,3.5889084339141846,8.927978515625,-1.6974890232086182,-0.06103515625,-0.5035400390625,0.823974609375
1.4899999,3.643975019454956,8.937555313110352,-1.6735470294952393,0.2288818359375,-0.5645751953125,0.6103515625
1.5099999,3.706224203109741,8.935160636901855,-1.6328455209732056,0.1678466796875,1.4495849609375,0.0152587890625
1.5299999,3.7636849880218506,8.927978515625,-1.5897499322891235,0.396728515625,1.6021728515625,-0.5035400390625
1.5499999,3.799597978591919,8.913613319396973,-1.5394717454910278,0.2899169921875,1.0223388671875,-0.6866455078125
1.5699999,3.799597978591919,8.901641845703125,-1.4987702369689941,1.1444091796875,1.983642578125,-1.1749267578125
1.5899999,3.780444383621216,8.884882926940918,-1.4772224426269531,2.349853515625,0.48828125,-0.5340576171875
1.6099999,3.7397429943084717,8.87291145324707,-1.4844050407409668,2.227783203125,-1.6937255859375,0.1068115234375
1.6299999,3.6990416049957275,8.860940933227539,-1.5203180313110352,1.77001953125,-0.579833984375,0.3204345703125
1.6499999,3.6774938106536865,8.856152534484863,-1.5705963373184204,1.129150390625,-0.274658203125,0.5035400390625
1.6699999,3.6727054119110107,8.858546257019043,-1.6208745241165161,1.0986328125,0.3814697265625,0.2288818359375
1.6899998999999999,3.689464807510376,8.87051773071289,-1.6615760326385498,1.28173828125,1.7242431640625,0.0457763671875
1.7099999,3.6990416049957275,8.892065048217773,-1.678335428237915,0.457763671875,1.9378662109375,-0.640869140625
1.7299999,3.708618402481079,8.908824920654297,-1.6735470294952393,-0.06103515625,1.2664794921875,-0.579833984375
1.7499999,3.7014358043670654,8.925583839416504,-1.644816517829895,0.18310546875,0.6256103515625,0.0762939453125
1.7699999,3.6942532062530518,8.925583839416504,-1.6065093278884888,1.0986328125,0.335693359375,-0.0762939453125
1.7899999,3.6942532062530518,8.904036521911621,-1.5705963373184204,1.617431640625,0.2288818359375,0.3509521484375
1.8099999,3.691859006881714,8.877699851989746,-1.5490485429763794,1.64794921875,0.457763671875,0.335693359375
1.8299999,3.691859006881714,8.83939266204834,-1.5538369417190552,1.6021728515625,0.2288818359375,0.67138671875
1.8499999,3.7014358043670654,8.808267593383789,-1.5825673341751099,1.0528564453125,-1.7547607421875,1.0833740234375
1.8699999,3.7181951999664307,8.789113998413086,-1.6328455209732056,0.5340576171875,-1.64794921875,1.1444091796875
1.8899999,3.751713991165161,8.78193187713623,-1.699883222579956,0.1983642578125,-0.1220703125,0.91552734375
1.9099999,3.7900211811065674,8.789113998413086,-1.745373010635376,-1.190185546875,-0.3662109375,0.091552734375
1.9299998999999999,3.8139634132385254,8.813055992126465,-1.7621324062347412,-1.3580322265625,-0.244140625,-0.701904296875
1.9499999,3.821146011352539,8.83699893951416,-1.723825216293335,-1.4495849609375,0.457763671875,-0.5035400390625
1.9699999,3.794809579849243,8.863334655761719,-1.6400281190872192,-1.2359619140625,1.2664794921875,-0.3662109375
1.9899999,3.7684733867645264,8.877699851989746,-1.5298948287963867,-0.732421875,-0.6866455078125,0.18310546875
2.0099999,3.7493197917938232,8.889671325683594,-1.436521053314209,0.8087158203125,-1.03759765625,0.396728515625
2.0299999,3.737348794937134,8.89685344696045,-1.3934253454208374,1.983642578125,-0.06103515625,-0.30517578125
2.0499999,3.7397429943084717,8.904036521911621,-1.4101848602294922,1.495361328125,-1.2054443359375,-0.1678466796875
2.0699999,3.732560396194458,8.911218643188477,-1.479616641998291,1.0986328125,-0.701904296875,0.1983642578125
2.0899999,3.73016619682312,8.916007041931152,-1.5729905366897583,1.3580322265625,0.1220703125,0.8697509765625
2.1099999,3.732560396194458,8.913613319396973,-1.659181833267212,1.3427734375,-1.15966796875,0.9765625
2.1299999,3.751713991165161,8.901641845703125,-1.7166426181793213,0.2899169921875,-1.983642578125,-0.030517578125
2.1499999,3.77565598487854,8.882488250732422,-1.7405846118927002,-0.1068115234375,-0.1678466796875,-0.54931640625
2.1699999,3.799597978591919,8.860940933227539,-1.7334020137786865,0.5645751953125,0.244140625,-0.6866455078125
2.1899999,3.8067808151245117,8.83699893951416,-1.6950948238372803,0.3509521484375,-0.640869140625,-1.2054443359375
2.2099999,3.7828385829925537,8.820239067077637,-1.644816517829895,0,0.3662109375,-1.6632080078125
2.2299999,3.7397429943084717,8.808267593383789,-1.599326729774475,0.30517578125,-0.6256103515625,-1.1444091796875
2.2499999,3.687070608139038,8.803479194641113,-1.5705963373184204,0.8392333984375,-2.5177001953125,-0.030517578125
2.2699999,3.648763418197632,8.80587387084961,-1.5705963373184204,0.9918212890625,-1.495361328125,0.7476806640625
2.2899999,3.6343982219696045,8.808267593383789,-1.5897499322891235,0.6103515625,0.1373291015625,0.6866455078125
2.3099999,3.648763418197632,8.81784439086914,-1.6328455209732056,0.3204345703125,-0.9918212890625,0.6103515625
2.3299999,3.6798880100250244,8.827422142028809,-1.6759412288665771,0.1678466796875,-2.1514892578125,0.9765625
2.3499999,3.706224203109741,8.841787338256836,-1.7142484188079834,0.1220703125,-0.8697509765625,1.007080078125
2.3699999,3.73016619682312,8.860940933227539,-1.7405846118927002,-0.5035400390625,-1.2359619140625,0.8697509765625
2.3899999,3.7397429943084717,8.880094528198242,-1.7501614093780518,-0.8697509765625,-2.3956298828125,0.79345703125
2.4099999,3.737348794937134,8.89685344696045,-1.742978811264038,-0.6561279296875,-2.349853515625,0.7171630859375
2.4299999,3.7277719974517822,8.901641845703125,-1.7262194156646729,-0.457763671875,-1.922607421875,0.9765625
2.4499999,3.711012601852417,8.899248123168945,-1.7070658206939697,-0.2593994140625,-2.44140625,0.9765625
2.4699999,3.687070608139038,8.892065048217773,-1.6927006244659424,0.091552734375,-2.7313232421875,1.2664794921875
2.4899999,3.663128614425659,8.884882926940918,-1.6903064250946045,-0.06103515625,-2.4871826171875,1.5869140625
2.5099999,3.6367924213409424,8.880094528198242,-1.6903064250946045,-0.213623046875,-0.1373291015625,1.9378662109375
2.5299999,3.622427225112915,8.882488250732422,-1.6950948238372803,0.0152587890625,0.67138671875,2.471923828125
2.5499999,3.6367924213409424,8.880094528198242,-1.6879122257232666,-0.3204345703125,-1.1138916015625,2.7313232421875
2.5699999,3.6774938106536865,8.880094528198242,-1.6759412288665771,-0.2288818359375,-0.6561279296875,2.197265625
2.5899999,3.7397429943084717,8.875306129455566,-1.656787633895874,-0.030517578125,0.244140625,1.0528564453125
2.6099999,3.797203779220581,8.87051773071289,-1.6280571222305298,-0.3204345703125,0.213623046875,0.0762939453125
2.6299999,3.8331170082092285,8.87051773071289,-1.5921441316604614,-0.18310546875,1.03759765625,-0.67138671875
2.6499999,3.8283286094665527,8.868123054504395,-1.5466543436050415,0.48828125,1.5869140625,-0.7476806640625
2.6699999,3.797203779220581,8.863334655761719,-1.5083470344543457,1.678466796875,0.7781982421875,-0.244140625
2.6899999,3.754108190536499,8.851364135742188,-1.4963760375976562,2.1820068359375,0.5950927734375,0.274658203125
2.7099999,3.7205893993377686,8.834604263305664,-1.5275006294250488,2.166748046875,0.8392333984375,0.640869140625
2.7299999,3.708618402481079,8.815450668334961,-1.5921441316604614,1.15966796875,0.885009765625,0.7781982421875
2.7499999,3.7205893993377686,8.803479194641113,-1.680729627609253,0.30517578125,1.6326904296875,0.518798828125
2.7699999,3.7493197917938232,8.796297073364258,-1.742978811264038,-0.4425048828125,2.105712890625,0.5950927734375
2.7899999,3.77565598487854,8.803479194641113,-1.7764976024627686,-0.457763671875,2.1514892578125,0.762939453125
2.8099999,3.801992416381836,8.815450668334961,-1.7597382068634033,-0.54931640625,1.40380859375,0.762939453125
2.8299999,3.825934410095215,8.832210540771484,-1.7094600200653076,-0.0457763671875,0.701904296875,1.129150390625
2.8499999,3.8522706031799316,8.846575736999512,-1.6496049165725708,0.6256103515625,-0.091552734375,0.885009765625
2.8699999,3.866635799407959,8.856152534484863,-1.5969325304031372,0.6866455078125,-0.030517578125,0.274658203125
2.8899999,3.869029998779297,8.858546257019043,-1.5753847360610962,0.701904296875,-0.3814697265625,0.2899169921875
2.9099999,3.8498764038085938,8.856152534484863,-1.577778935432434,0.5645751953125,-0.1373291015625,0.7476806640625
2.9299999,3.818751811981201,8.844181060791016,-1.5945383310317993,0.7476806640625,0.67138671875,1.190185546875
2.9499999,3.7924153804779053,8.832210540771484,-1.6208745241165161,1.03759765625,-0.54931640625,1.5869140625
2.9699999,3.780444383621216,8.81784439086914,-1.6519991159439087,1.0986328125,-1.3580322265625,1.861572265625
2.9899999,3.7876269817352295,8.815450668334961,-1.678335428237915,0.4425048828125,-0.030517578125,1.40380859375
3.0099999,3.8163576126098633,8.820239067077637,-1.7094600200653076,0.1220703125,0.274658203125,0.701904296875
3.0299999,3.847482204437256,8.825027465820312,-1.7310078144073486,-0.0152587890625,-1.708984375,0.0762939453125
3.0499999,3.8714241981506348,8.829815864562988,-1.7405846118927002,-0.42724609375,-1.64794921875,-0.42724609375
3.0699999,3.8810009956359863,8.829815864562988,-1.7405846118927002,-0.1983642578125,0.091552734375,-0.2288818359375
3.0899999,3.8714241981506348,8.827422142028809,-1.721431016921997,0.213623046875,0.54931640625,-0.152587890625
3.1099999,3.8498764038085938,8.825027465820312,-1.6879122257232666,-0.030517578125,0.1373291015625,-0.2899169921875
3.1299999,3.821146011352539,8.820239067077637,-1.647210717201233,0.1678466796875,0.4425048828125,-0.3204345703125
3.1499999,3.797203779220581,8.813055992126465,-1.6184803247451782,0.79345703125,0.091552734375,-0.4119873046875
3.1699999,3.773261785507202,8.801085472106934,-1.6136919260025024,0.8087158203125,-0.42724609375,-0.701904296875
3.1899999,3.7421371936798096,8.793902397155762,-1.6328455209732056,0.1373291015625,0.732421875,-0.5340576171875
3.2099999,3.7158010005950928,8.791508674621582,-1.6687586307525635,-0.0457763671875,1.9378662109375,0.5035400390625
3.2299999,3.6966474056243896,8.796297073364258,-1.6927006244659424,0.1068115234375,1.3427734375,1.5411376953125
3.2499999,3.706224203109741,8.803479194641113,-1.7094600200653076,0.5035400390625,1.220703125,1.922607421875
3.2699999,3.756502389907837,8.808267593383789,-1.7070658206939697,0.4730224609375,1.068115234375,1.8157958984375
3.2899999,3.8355112075805664,8.815450668334961,-1.7046716213226318,0.732421875,0.7171630859375,1.312255859375
3.3099999,3.9217023849487305,8.820239067077637,-1.699883222579956,0.701904296875,1.1138916015625,0.4119873046875
3.3299999000000002,3.9887399673461914,8.827422142028809,-1.6879122257232666,-0.1373291015625,1.4801025390625,-0.732421875
3.3499999,4.01268196105957,8.834604263305664,-1.6639702320098877,0.091552734375,1.7852783203125,-1.312255859375
3.3699999,3.998316764831543,8.834604263305664,-1.6304513216018677,0.640869140625,0.1983642578125,-1.2359619140625
3.3899999,3.952826976776123,8.829815864562988,-1.601720929145813,1.2359619140625,-1.678466796875,-1.190185546875
3.4099999,3.9025487899780273,8.825027465820312,-1.6089035272598267,1.5869140625,-1.190185546875,-1.03759765625
3.4299999,3.8594532012939453,8.81784439086914,-1.6400281190872192,0.2899169921875,0.823974609375,-1.373291015625
3.4499999,3.8307228088378906,8.815450668334961,-1.6855180263519287,-0.732421875,2.44140625,-1.7242431640625
3.4699999,3.8091750144958496,8.815450668334961,-1.7118542194366455,-0.152587890625,2.349853515625,-1.3427734375
3.4899999,3.7924153804779053,8.80587387084961,-1.7070658206939697,0.1373291015625,0.335693359375,-0.9765625
3.5099999,3.780444383621216,8.798690795898438,-1.6903064250946045,1.190185546875,-0.7171630859375,-0.3509521484375
3.5299999,3.780444383621216,8.78432559967041,-1.6831238269805908,1.3580322265625,-1.678466796875,0.3509521484375
3.5499999,3.7852327823638916,8.772355079650879,-1.6974890232086182,0.3814697265625,-1.4495849609375,0.213623046875
3.5699999,3.7924153804779053,8.767566680908203,-1.723825216293335,-0.4730224609375,0.48828125,-0.06103515625
3.5899999,3.794809579849243,8.765172004699707,-1.745373010635376,-0.9765625,0.396728515625,-0.0152587890625
3.6099999,3.7828385829925537,8.767566680908203,-1.7477672100067139,-0.8544921875,-1.5716552734375,0.3509521484375
3.6299999,3.751713991165161,8.78193187713623,-1.7334020137786865,-0.6866455078125,-1.7242431640625,0.5950927734375
3.6499999,3.7181951999664307,8.796297073364258,-1.7190368175506592,-0.6256103515625,-0.213623046875,1.40380859375
3.6699999,3.691859006881714,8.81784439086914,-1.7166426181793213,-0.6866455078125,-0.8087158203125,2.1820068359375
3.6899999,3.687070608139038,8.834604263305664,-1.7286136150360107,-0.9765625,-2.0751953125,2.62451171875
3.7099999,3.7038300037384033,8.83939266204834,-1.7501614093780518,-1.3427734375,-0.54931640625,2.62451171875
3.7299999,3.73016619682312,8.834604263305664,-1.7812861204147339,-1.5869140625,-1.1444091796875,2.777099609375
3.7499999,3.732560396194458,8.813055992126465,-1.8148049116134644,-2.288818359375,-2.7313232421875,3.5858154296875
3.7699999,3.6822822093963623,8.793902397155762,-1.8818424940109253,-3.7841796875,-3.7689208984375,5.9814453125
3.7899999,3.5649664402008057,8.793902397155762,-2.0015525817871094,-8.697509765625,-6.683349609375,13.824462890625
3.8099999,3.399766445159912,8.78432559967041,-2.1715409755706787,-16.937255859375,-7.50732421875,27.7099609375
3.8299999000000002,3.201047658920288,8.772355079650879,-2.38462495803833,-26.336669921875,-4.486083984375,40.3594970703125
3.8499999,2.96162748336792,8.769960403442383,-2.6455929279327393,-34.0728759765625,-3.3416748046875,55.511474609375
3.8699999,2.6791117191314697,8.772355079650879,-2.8826189041137695,-48.88916015625,-4.486083984375,83.6944580078125
3.8899999,2.279279947280884,8.815450668334961,-3.0813376903533936,-66.7266845703125,-9.185791015625,120.8648681640625
3.9099999,1.7477672100067139,8.923190116882324,-3.2130186557769775,-81.2225341796875,-24.23095703125,163.9404296875
3.9299999,1.1037269830703735,9.066842079162598,-3.4117374420166016,-72.81494140625,-73.9593505859375,212.432861328125
3.9499999,0.3471592366695404,9.222464561462402,-3.8522706031799316,-50.9185791015625,-126.190185546875,261.6119384765625
3.9699999,-0.31364041566848755,9.59596061706543,-4.592078685760498,-30.0750732421875,-147.552490234375,327.392578125
3.9899999,-0.6727706789970398,10.469843864440918,-5.578489780426025,-10.101318359375,-151.9775390625,394.6533203125
4.0099999,-0.47165772318840027,12.260706901550293,-6.411672115325928,-5.0811767578125,-164.8712158203125,425.872802734375
4.029999900000001,0.6392518281936646,15.648502349853516,-6.947973251342773,-5.18798828125,-246.5057373046875,457.1685791015625
4.0499999,2.054224967956543,19.852720260620117,-7.6782050132751465,-3.8604736328125,-398.101806640625,489.5172119140625
4.069999900000001,2.920926094055176,23.187843322753906,-8.710105895996094,2.166748046875,-451.568603515625,499.9847412109375
4.0899999000000005,1.525106430053711,23.053768157958984,-10.292673110961914,56.9305419921875,-335.0830078125,499.9847412109375
4.1099999,-2.6623523235321045,16.46731948852539,-12.318167686462402,65.7958984375,-284.5916748046875,499.9847412109375
4.1299999000000005,-9.708487510681152,1.6112977266311646,-12.351686477661133,-81.4208984375,-287.017822265625,475.067138671875
4.1499999,-14.027627944946289,-18.768146514892578,-10.970232009887695,-137.176513671875,-390.2740478515625,466.644287109375
4.1699999000000005,-11.185709953308105,-39.039852142333984,-8.942343711853027,65.887451171875,-335.601806640625,428.9093017578125
4.1899999,-3.9025487899780273,-52.7251091003418,-4.383783340454102,37.7960205078125,176.1932373046875,-7.2784423828125
4.209999900000001,4.702212333679199,-55.88545608520508,-0.2082955539226532,-39.9627685546875,317.93212890625,-421.4324951171875
4.2299999,9.411606788635254,-49.136199951171875,3.4979286193847656,13.4124755859375,2.410888671875,-338.0279541015625
4.249999900000001,7.184999465942383,-37.23223114013672,6.076483726501465,9.613037109375,-155.45654296875,-216.644287109375
4.2699999,2.2026655673980713,-24.686613082885742,5.628767967224121,13.5040283203125,-38.5284423828125,-246.1700439453125
4.289999900000001,-1.778891921043396,-14.209587097167969,2.806004285812378,25.8636474609375,80.352783203125,-306.732177734375
4.3099999,-3.4093432426452637,-6.3063273429870605,-1.0606313943862915,23.468017578125,125,-320.0225830078125
4.329999900000001,-2.6671407222747803,-0.6751648783683777,-4.69024133682251,9.0789794921875,144.439697265625,-305.1300048828125
4.3499999,-0.24181437492370605,2.87064790725708,-7.615955829620361,-2.044677734375,130.92041015625,-316.22314453125
4.369999900000001,3.0334534645080566,4.575319290161133,-9.622296333312988,5.1727294921875,151.9775390625,-358.489990234375
4.3899999,6.011840343475342,4.855441093444824,-11.05642318725586,36.0107421875,216.2933349609375,-400.7720947265625
4.409999900000001,7.903259754180908,4.443638324737549,-12.00452709197998,29.3121337890625,275.4364013671875,-389.46533203125
4.4299999,8.293514251708984,3.9456443786621094,-12.375628471374512,-49.1943359375,255.1727294921875,-372.0855712890625
4.449999900000001,7.491456985473633,4.031835556030273,-12.097901344299316,-97.6104736328125,195.281982421875,-366.3177490234375
4.4699999,6.107608318328857,4.592078685760498,-11.03248119354248,-53.6041259765625,228.729248046875,-350.2655029296875
4.489999900000001,4.455609321594238,5.626373767852783,-9.454702377319336,-0.4730224609375,282.8369140625,-372.6348876953125
4.5099999,3.00711727142334,7.015010833740234,-7.754819393157959,-9.7808837890625,211.5020751953125,-375.1068115234375
4.529999900000001,1.9488801956176758,8.403648376464844,-6.440402507781982,-28.6865234375,89.1571044921875,-318.4814453125
4.5499999,1.2952631711959839,9.57441234588623,-5.652710437774658,-16.6168212890625,61.95068359375,-249.847412109375
4.569999900000001,1.1420341730117798,10.213664054870605,-5.30076265335083,-17.4407958984375,99.9755859375,-202.7740478515625
4.5899999000000005,1.292868971824646,10.362105369567871,-5.099649429321289,-48.52294921875,99.8687744140625,-174.468994140625
4.609999900000001,1.558625340461731,10.144232749938965,-4.771644115447998,-65.9332275390625,73.1048583984375,-140.5029296875
4.6299999000000005,1.8411411046981812,9.66299819946289,-4.0964789390563965,-64.7125244140625,58.3343505859375,-113.1134033203125
4.6499999,2.1140801906585693,9.169792175292969,-3.0837318897247314,-51.025390625,53.7567138671875,-83.7554931640625
4.6699999000000005,2.3965959548950195,8.815450668334961,-1.9153614044189453,-29.9530029296875,38.2232666015625,-50.3997802734375
4.6899999,2.7078421115875244,8.643068313598633,-0.849941611289978,-18.85986328125,3.72314453125,-35.369873046875
4.709999900000001,3.0190882682800293,8.7268648147583,-0.08619125932455063,-8.85009765625,-12.9241943359375,-28.472900390625
4.7299999,3.2585084438323975,8.939949035644531,0.29209262132644653,3.84521484375,4.57763671875,-18.06640625
4.749999900000001,3.375824451446533,9.188945770263672,0.35673606395721436,6.988525390625,9.9639892578125,-7.8277587890625
4.7699999,3.332728862762451,9.342175483703613,0.2585737705230713,3.84521484375,-7.8582763671875,-2.9754638671875
4.789999900000001,3.1316158771514893,9.402029991149902,0.12689268589019775,1.9683837890625,-20.0653076171875,-1.2969970703125
4.8099999,2.853888511657715,9.35654067993164,0.05985504388809204,2.838134765625,-17.8985595703125,0.1068115234375
4.829999900000001,2.513911724090576,9.337387084960938,0.043095629662275314,8.1787109375,-5.6610107421875,7.38525390625
4.8499999,2.2002713680267334,9.342175483703613,0.047884032130241394,13.24462890625,-0.2593994140625,13.12255859375
4.869999900000001,1.9967641830444336,9.342175483703613,-0.011971008032560349,15.1214599609375,-1.3580322265625,13.1378173828125
4.8899999,1.9345149993896484,9.313444137573242,-0.1149216815829277,9.6282958984375,-9.09423828125,9.0789794921875
4.909999900000001,2.0374655723571777,9.306262016296387,-0.28969839215278625,7.5531005859375,-12.0391845703125,11.0321044921875
4.9299999,2.2146365642547607,9.308655738830566,-0.47644615173339844,10.986328125,-8.8043212890625,16.78466796875
4.949999900000001,2.518700122833252,9.32541561126709,-0.6799532771110535,13.092041015625,-10.7421875,20.8587646484375
4.9699999,2.87064790725708,9.32541561126709,-0.8762778043746948,11.260986328125,-12.3748779296875,9.27734375
4.989999900000001,3.1866824626922607,9.294290542602539,-1.036689281463623,6.89697265625,-8.1634521484375,-3.84521484375
5.0099999,3.428496837615967,9.21288776397705,-1.1659762859344482,6.1798095703125,-5.43212890625,-1.7242431640625
5.029999900000001,3.485957622528076,9.167398452758789,-1.2258312702178955,8.087158203125,-2.8228759765625,5.7373046875
5.0499999,3.445256233215332,9.136273384094238,-1.259350061416626,7.8277587890625,-0.335693359375,9.9334716796875
5.069999900000001,3.4165258407592773,9.057265281677246,-1.2497732639312744,2.50244140625,-1.2359619140625,7.4920654296875
5.0899999000000005,3.4332852363586426,8.990227699279785,-1.2018892765045166,1.0833740234375,-0.7476806640625,4.6234130859375
5.109999900000001,3.485957622528076,8.932766914367676,-1.1037269830703735,3.173828125,0.1678466796875,4.302978515625
5.1299999000000005,3.5170822143554688,8.904036521911621,-0.9648633003234863,3.84521484375,-3.6773681640625,6.744384765625
5.1499999,3.4955344200134277,8.925583839416504,-0.828393816947937,3.662109375,-4.730224609375,8.9569091796875
5.1699999000000005,3.445256233215332,8.980650901794434,-0.7182605266571045,3.1585693359375,-5.7525634765625,10.986328125
5.1899999,3.3925838470458984,9.035717010498047,-0.6799532771110535,3.5400390625,-4.69970703125,10.284423828125
5.209999900000001,3.375824451446533,9.090784072875977,-0.6943184733390808,2.655029296875,0.5950927734375,8.9874267578125
5.2299999,3.3734302520751953,9.121908187866211,-0.7374141216278076,1.1444091796875,6.4239501953125,8.270263671875
5.249999900000001,3.4141316413879395,9.129091262817383,-0.7852981686592102,1.2359619140625,0.3662109375,10.7269287109375
5.2699999,3.49314022064209,9.102754592895508,-0.8355764150619507,4.8675537109375,-8.11767578125,13.85498046875
5.289999900000001,3.6176388263702393,9.05247688293457,-0.9074024558067322,7.6751708984375,-6.3934326171875,13.3209228515625
5.3099999,3.7684733867645264,8.987833023071289,-1.0223240852355957,6.04248046875,-3.9215087890625,9.857177734375
5.329999900000001,3.9169139862060547,8.932766914367676,-1.1755530834197998,3.814697265625,-4.7454833984375,8.270263671875
5.3499999,4.017470359802246,8.901641845703125,-1.3072341680526733,1.5106201171875,-4.9591064453125,8.6822509765625
5.369999900000001,4.050989151000977,8.89445972442627,-1.37906014919281,0.06103515625,-1.7852783203125,8.7890625
5.3899999,4.041412353515625,8.884882926940918,-1.3718775510787964,-1.2054443359375,-1.1749267578125,9.2926025390625
5.409999900000001,4.000710964202881,8.875306129455566,-1.3096283674240112,-0.8392333984375,-3.326416015625,8.72802734375
5.4299999,3.9456443786621094,8.853757858276367,-1.2186486721038818,-0.8544921875,-5.1727294921875,7.7056884765625
5.449999900000001,3.9049429893493652,8.820239067077637,-1.137245774269104,-0.885009765625,-7.2479248046875,8.7432861328125
5.4699999,3.8714241981506348,8.801085472106934,-1.091755986213684,0.579833984375,-6.34765625,9.6893310546875
5.489999900000001,3.847482204437256,8.789113998413086,-1.0749965906143188,0.9002685546875,-4.1046142578125,11.3983154296875
5.5099999,3.845088005065918,8.789113998413086,-1.0965443849563599,0.6256103515625,-5.828857421875,12.664794921875
5.529999900000001,3.8498764038085938,8.774748802185059,-1.1635819673538208,0.8697509765625,-5.8135986328125,11.8255615234375
5.5499999,3.8570590019226074,8.746018409729004,-1.2521674633026123,-1.129150390625,-5.18798828125,10.528564453125
5.569999900000001,3.84269380569458,8.71489429473877,-1.3623007535934448,-3.7841796875,-5.7373046875,10.0555419921875
5.5899999000000005,3.77565598487854,8.688557624816895,-1.479616641998291,-5.859375,-9.33837890625,13.275146484375
5.609999900000001,3.667917013168335,8.676587104797363,-1.5969325304031372,-9.58251953125,-14.95361328125,22.5982666015625
5.6299999000000005,3.5003228187561035,8.65982723236084,-1.7357962131500244,-12.9547119140625,-14.3890380859375,33.6151123046875
5.6499999,3.270479440689087,8.638279914855957,-1.9177556037902832,-18.5699462890625,-13.2598876953125,47.8668212890625
5.6699999000000005,2.9735984802246094,8.554482460021973,-2.1475989818573,-29.4036865234375,-22.6287841796875,71.1822509765625
5.6899999,2.537853717803955,8.482656478881836,-2.5091233253479004,-41.56494140625,-33.843994140625,109.405517578125
5.709999900000001,2.0159177780151367,8.348581314086914,-2.9161376953125,-62.3626708984375,-56.2591552734375,168.9605712890625
5.7299999,1.4245500564575195,8.252813339233398,-3.3734302520751953,-70.98388671875,-75.6683349609375,236.38916015625
5.749999900000001,0.871489405632019,8.492233276367188,-4.010287761688232,-52.6885986328125,-111.907958984375,315.032958984375
5.7699999,0.6033388376235962,9.368511199951172,-4.81473970413208,-34.1033935546875,-163.02490234375,396.5606689453125
5.789999900000001,0.7182605266571045,11.599906921386719,-5.937620162963867,-42.236328125,-216.4764404296875,428.680419921875
5.8099999,1.338358759880066,15.773000717163086,-7.01979923248291,-68.29833984375,-321.502685546875,428.6956787109375
5.829999900000001,2.279279947280884,21.358673095703125,-8.125920295715332,-83.038330078125,-487.9608154296875,433.990478515625
5.8499999,2.647987127304077,26.97307586669922,-9.227252960205078,-9.46044921875,-500,464.080810546875
5.869999900000001,1.5322890281677246,29.96343421936035,-10.290278434753418,99.7161865234375,-375.335693359375,499.9847412109375
5.8899999,-1.9369091987609863,27.006595611572266,-12.370840072631836,119.1864013671875,-314.51416015625,499.9847412109375
5.909999900000001,-9.035717010498047,15.998055458068848,-13.625401496887207,-82.2906494140625,-345.855712890625,499.9847412109375
5.9299999,-16.57984733581543,-3.8163576126098633,-12.622231483459473,-206.939697265625,-378.7994384765625,499.9847412109375
5.949999900000001,-18.145654678344727,-27.724855422973633,-10.881647109985352,75.1800537109375,-290.7867431640625,499.9847412109375
5.9699999,-12.492944717407227,-48.06120681762695,-5.810727596282959,169.8150634765625,48.7518310546875,237.060546875
5.989999900000001,-3.9839515686035156,-59.692237854003906,1.0055646896362305,-42.0989990234375,226.9134521484375,-305.2825927734375
6.0099999,4.81473970413208,-59.163116455078125,6.4595561027526855,-33.9202880859375,-49.86572265625,-421.2493896484375
6.029999900000001,6.2847795486450195,-50.096275329589844,10.797849655151367,47.4853515625,-228.1341552734375,-302.5360107421875
6.0499999,2.3582887649536133,-37.588966369628906,10.706870079040527,91.0797119140625,-105.194091796875,-316.7266845703125
6.069999900000001,-2.4899697303771973,-25.34501838684082,5.880159378051758,72.32666015625,17.547607421875,-370.1324462890625
6.0899999000000005,-5.228936672210693,-14.841656684875488,-1.4867992401123047,-1.5869140625,84.16748046875,-318.29833984375
6.109999900000001,-5.439626216888428,-6.4164605140686035,-9.23682975769043,-48.4771728515625,140.625,-285.4156494140625
6.1299999000000005,-3.3877954483032227,-0.0933738648891449,-15.105018615722656,-59.5703125,211.2274169921875,-303.1158447265625
6.149999900000001,-0.031124621629714966,3.7612907886505127,-18.442535400390625,-75.3936767578125,255.2947998046875,-332.3974609375
6.1699999000000005,3.0885202884674072,5.56173038482666,-19.060239791870117,-99.517822265625,312.6983642578125,-375.4730224609375
6.1899999,5.0254292488098145,5.849034786224365,-17.575834274291992,-109.9700927734375,348.5107421875,-412.3382568359375
6.209999900000001,5.080495834350586,5.669469833374023,-14.61660099029541,-116.485595703125,316.83349609375,-437.43896484375
6.2299999,3.6750996112823486,5.7772088050842285,-11.216835021972656,-110.2752685546875,238.4033203125,-407.1502685546875
6.249999900000001,1.5969325304031372,6.327875137329102,-8.078036308288574,-104.339599609375,187.2711181640625,-347.6715087890625
6.2699999,-0.3878606855869293,7.41484260559082,-5.980715751647949,-76.5380859375,212.4176025390625,-327.8656005859375
6.289999900000001,-1.6927006244659424,8.815450668334961,-4.78122091293335,-53.16162109375,206.0699462890625,-312.5762939453125
6.3099999,-2.1978771686553955,10.249577522277832,-4.273650169372559,-31.1279296875,139.7552490234375,-279.4342041015625
6.329999900000001,-2.027888774871826,11.468226432800293,-4.094084739685059,-9.3536376953125,84.89990234375,-224.761962890625
6.3499999,-1.2737152576446533,12.22000503540039,-4.0533833503723145,1.373291015625,88.470458984375,-158.477783203125
6.369999900000001,-0.15801730751991272,12.313379287719727,-3.995922565460205,-4.5623779296875,121.429443359375,-105.7891845703125
6.3899999,1.1468225717544556,11.78904914855957,-3.6343982219696045,-26.9775390625,123.35205078125,-78.9337158203125
6.409999900000001,2.319981336593628,10.922348022460938,-2.7748796939849854,-42.572021484375,97.2137451171875,-74.8748779296875
6.4299999,3.3518824577331543,9.93354320526123,-1.4077905416488647,-25.665283203125,78.4149169921875,-58.59375
6.449999900000001,4.1611223220825195,9.045293807983398,0.1364694982767105,4.302978515625,65.9027099609375,-38.8336181640625
6.4699999,4.663905143737793,8.44434928894043,1.403002142906189,22.0794677734375,27.008056640625,-39.642333984375
6.489999900000001,4.738125324249268,8.202534675598145,2.006340980529785,19.256591796875,-28.74755859375,-47.54638671875
6.5099999,4.438849925994873,8.255207061767578,1.802833914756775,18.341064453125,-47.1649169921875,-33.203125
6.529999900000001,3.8115692138671875,8.62630844116211,0.9552865028381348,25.726318359375,-25.45166015625,-10.986328125
6.5499999,3.1244332790374756,9.126696586608887,-0.19632454216480255,29.052734375,-7.62939453125,12.1307373046875
6.569999900000001,2.609679937362671,9.488221168518066,-1.2832920551300049,22.064208984375,-9.8114013671875,21.5911865234375
6.5899999000000005,2.367865562438965,9.66539192199707,-2.032677173614502,11.2762451171875,-16.937255859375,16.7999267578125
6.609999900000001,2.382230758666992,9.648633003234863,-2.3104045391082764,7.293701171875,-8.8958740234375,13.763427734375
6.6299999000000005,2.5306711196899414,9.493009567260742,-2.190694570541382,7.7362060546875,-0.91552734375,13.61083984375
6.649999900000001,2.7317841053009033,9.330204010009766,-1.8052281141281128,11.04736328125,-1.7242431640625,22.7813720703125
6.6699999000000005,2.937685489654541,9.148244857788086,-1.3239935636520386,10.92529296875,-5.92041015625,26.5655517578125
6.6899999,3.1699230670928955,8.913613319396973,-0.8690952062606812,8.3160400390625,-13.397216796875,20.8587646484375
6.709999900000001,3.4596214294433594,8.698134422302246,-0.586579442024231,13.153076171875,-22.979736328125,12.6495361328125
6.7299999,3.7469255924224854,8.544905662536621,-0.5674257874488831,19.8974609375,-14.3585205078125,7.2021484375
6.749999900000001,3.9911341667175293,8.516175270080566,-0.7829039692878723,16.0675048828125,-3.8909912109375,5.3558349609375
6.7699999,4.129997730255127,8.609549522399902,-1.1659762859344482,8.087158203125,-6.7901611328125,5.7373046875
6.789999900000001,4.134786128997803,8.75080680847168,-1.5753847360610962,6.6070556640625,-9.5977783203125,3.8604736328125
6.8099999,4.05817174911499,8.865729331970215,-1.8746598958969116,7.354736328125,-10.650634765625,5.157470703125
6.829999900000001,3.8810009956359863,8.944737434387207,-2.0590133666992188,7.7972412109375,-10.406494140625,5.06591796875
6.8499999,3.706224203109741,8.995016098022461,-2.1284453868865967,6.4697265625,-14.16015625,5.1116943359375
6.869999900000001,3.5410242080688477,9.016563415527344,-2.1332337856292725,4.180908203125,-12.39013671875,7.5836181640625
6.8899999,3.450044631958008,9.026140213012695,-2.0877439975738525,3.90625,-6.805419921875,9.1705322265625
6.909999900000001,3.4620156288146973,8.971074104309082,-2.0039467811584473,2.3040771484375,-3.997802734375,9.3536376953125
6.9299999,3.5960910320281982,8.882488250732422,-1.900996208190918,-0.8544921875,-6.65283203125,8.026123046875
6.949999900000001,3.7924153804779053,8.767566680908203,-1.8076223134994507,-0.1678466796875,-8.3160400390625,5.06591796875
6.9699999,4.01268196105957,8.669404029846191,-1.7405846118927002,1.190185546875,-9.09423828125,2.50244140625
6.989999900000001,4.182670593261719,8.616731643676758,-1.6950948238372803,1.190185546875,-3.90625,1.0986328125
7.0099999,4.264073371887207,8.585607528686523,-1.6711528301239014,1.0528564453125,2.25830078125,0.7171630859375
7.029999900000001,4.273650169372559,8.583212852478027,-1.6615760326385498,2.38037109375,-3.4332275390625,1.7547607421875
7.0499999,4.23773717880249,8.578424453735352,-1.6639702320098877,3.875732421875,-7.4615478515625,3.41796875
7.069999900000001,4.182670593261719,8.580819129943848,-1.6974890232086182,4.425048828125,-3.7841796875,4.3182373046875
7.0899999000000005,4.1156325340271,8.585607528686523,-1.7693150043487549,4.4097900390625,-1.251220703125,4.7149658203125
7.109999900000001,4.041412353515625,8.580819129943848,-1.8626888990402222,2.2125244140625,-7.080078125,4.94384765625
7.1299999000000005,3.957615375518799,8.585607528686523,-1.98958158493042,0.7476806640625,-10.986328125,7.293701171875
7.149999900000001,3.892971992492676,8.604761123657227,-2.123656988143921,1.4190673828125,-5.6304931640625,9.70458984375
7.1699999000000005,3.847482204437256,8.628703117370605,-2.229001760482788,-0.4425048828125,3.0059814453125,10.101318359375
7.1899999,3.84269380569458,8.655038833618164,-2.2864625453948975,-3.4332275390625,-0.6103515625,10.9710693359375
7.209999900000001,3.8738183975219727,8.667010307312012,-2.298433542251587,-3.0059814453125,-8.148193359375,14.0380859375
7.2299999,3.931279182434082,8.647856712341309,-2.274491548538208,-2.532958984375,-5.645751953125,17.27294921875
7.249999900000001,3.995922565460205,8.604761123657227,-2.2385785579681396,-4.8065185546875,2.532958984375,18.3868408203125
7.2699999,4.048594951629639,8.53532886505127,-2.190694570541382,-7.171630859375,3.7841796875,17.5933837890625
7.289999900000001,4.036623954772949,8.449137687683105,-2.1332337856292725,-8.331298828125,-2.7618408203125,18.6614990234375
7.3099999,3.9264907836914062,8.365341186523438,-2.1308395862579346,-10.223388671875,-11.1083984375,27.6336669921875
7.329999900000001,3.687070608139038,8.315062522888184,-2.279279947280884,-20.69091796875,-21.3775634765625,48.9654541015625
7.3499999,3.4141316413879395,8.293514251708984,-2.5282769203186035,-39.7491455078125,-35.0799560546875,78.06396484375
7.369999900000001,3.1004912853240967,8.283937454223633,-2.894589900970459,-44.1436767578125,-35.5682373046875,97.381591796875
7.3899999,2.7724854946136475,8.271966934204102,-3.2800562381744385,-38.57421875,-27.77099609375,118.8507080078125
7.409999900000001,2.3918075561523438,8.243236541748047,-3.620033025741577,-45.4254150390625,-30.181884765625,160.0341796875
7.4299999,1.9129672050476074,8.125920295715332,-3.912125587463379,-57.9376220703125,-49.2401123046875,217.193603515625
7.449999900000001,1.4389152526855469,8.010998725891113,-4.067748546600342,-47.271728515625,-83.2366943359375,287.200927734375
7.4699999,1.05105459690094,8.10437297821045,-4.417302131652832,-12.969970703125,-148.0865478515625,344.17724609375
7.489999900000001,1.0103530883789062,8.542511940002441,-5.063736438751221,-11.04736328125,-237.030029296875,382.3089599609375
7.5099999,1.4652514457702637,9.765948295593262,-6.1052141189575195,-14.9993896484375,-257.3394775390625,402.9388427734375
7.529999900000001,2.473210334777832,12.38759994506836,-7.340622425079346,2.716064453125,-223.2666015625,411.5142822265625
7.5499999,4.050989151000977,16.417041778564453,-8.101978302001953,-6.2408447265625,-261.0015869140625,438.3544921875
7.569999900000001,5.523423194885254,20.853496551513672,-8.899248123168945,-6.1798095703125,-409.271240234375,460.0067138671875
7.5899999000000005,6.234501361846924,24.17904281616211,-9.658209800720215,43.45703125,-481.414794921875,494.07958984375
7.609999900000001,4.522646903991699,23.659502029418945,-11.14500904083252,112.3199462890625,-340.75927734375,474.91455078125
7.6299999000000005,-1.161187767982483,18.033126831054688,-13.273454666137695,55.877685546875,-237.6861572265625,423.2635498046875
7.649999900000001,-11.216835021972656,4.438849925994873,-13.036428451538086,-142.730712890625,-256.6375732421875,425.1556396484375
7.6699999000000005,-19.177555084228516,-15.28218936920166,-10.92953109741211,-53.0548095703125,-301.69677734375,499.9847412109375
7.6899999,-12.45703125,-52.3300666809082,-0.586579442024231,89.385986328125,213.348388671875,-21.7437744140625
7.709999900000001,-2.319981336593628,-58.643577575683594,5.195417881011963,-66.4520263671875,254.9285888671875,-482.940673828125
7.7299999,5.310339450836182,-53.816864013671875,9.334992408752441,-12.7410888671875,-56.640625,-417.4041748046875
7.749999900000001,5.102043628692627,-42.71255874633789,11.113883972167969,10.3912353515625,-196.0296630859375,-278.9306640625
7.7699999,1.0007762908935547,-29.683313369750977,8.583212852478027,59.417724609375,-14.9383544921875,-297.8057861328125
7.789999900000001,-2.5091233253479004,-18.17677879333496,2.612074136734009,70.6634521484375,97.96142578125,-305.999755859375
7.8099999,-3.9001545906066895,-9.14585018157959,-4.728548526763916,28.6102294921875,126.2359619140625,-307.0068359375
7.829999900000001,-3.1052796840667725,-2.6384103298187256,-11.101913452148438,-25.665283203125,161.56005859375,-321.7010498046875
7.8499999,-0.8978256583213806,1.5155296325683594,-15.179238319396973,-43.365478515625,178.4210205078125,-323.272705078125
7.869999900000001,1.7764976024627686,3.6942532062530518,-16.69237518310547,-23.4832763671875,209.28955078125,-309.4024658203125
7.8899999,4.153939723968506,4.32871675491333,-16.120159149169922,-29.876708984375,228.45458984375,-324.5086669921875
7.909999900000001,5.793968200683594,4.046200752258301,-14.36760425567627,-70.281982421875,218.3074951171875,-363.1591796875
7.9299999,6.509834289550781,3.5218706130981445,-12.140996932983398,-69.76318359375,224.7467041015625,-390.0299072265625
7.949999900000001,6.165069580078125,3.3016040325164795,-10.034099578857422,-40.5120849609375,241.180419921875,-386.1236572265625
7.9699999,5.161899089813232,3.6535518169403076,-8.29590892791748,-43.1976318359375,238.8763427734375,-331.1614990234375
7.989999900000001,3.77565598487854,4.438849925994873,-7.005434036254883,-79.3914794921875,219.635009765625,-302.3223876953125
8.0099999,2.38462495803833,5.853823184967041,-6.011840343475342,-83.3587646484375,224.365234375,-298.7213134765625
8.0299999,1.3886369466781616,7.553706169128418,-4.8722004890441895,-55.6182861328125,182.9071044921875,-259.94873046875
8.049999900000001,0.8667010068893433,9.339780807495117,-3.7876269817352295,5.43212890625,110.3057861328125,-197.9522705078125
8.069999900000001,1.0654197931289673,10.754754066467285,-2.9903578758239746,55.4046630859375,87.371826171875,-145.172119140625
8.0899999,1.922544002532959,11.439496040344238,-2.7293899059295654,44.2352294921875,87.7227783203125,-131.3018798828125
8.1099999,3.1292216777801514,11.362881660461426,-2.8874073028564453,3.814697265625,76.0498046875,-135.55908203125
8.129999900000001,4.259284973144531,10.709263801574707,-3.047818660736084,-21.0723876953125,60.791015625,-119.32373046875
8.149999900000001,4.953603267669678,9.825803756713867,-2.846705913543701,-5.2490234375,63.3544921875,-89.630126953125
8.1699999,5.145139217376709,9.033323287963867,-2.252943754196167,16.7236328125,58.0596923828125,-63.5528564453125
8.1899999,4.927267074584961,8.38449478149414,-1.525106430053711,19.0582275390625,31.79931640625,-56.2286376953125
8.2099999,4.462791919708252,7.9846625328063965,-0.9696516990661621,9.8876953125,-5.2947998046875,-50.1556396484375
8.229999900000001,3.936067581176758,7.802703380584717,-0.6871358752250671,4.7149658203125,-32.04345703125,-32.379150390625
8.2499999,3.4404678344726562,7.898471355438232,-0.7038952708244324,14.129638671875,-24.5208740234375,-8.6822509765625
8.2699999,3.1100680828094482,8.149862289428711,-0.9265560507774353,28.900146484375,-3.9520263671875,14.5263671875
8.2899999,3.050212860107422,8.372523307800293,-1.2665326595306396,29.9530029296875,0.48828125,27.130126953125
8.309999900000001,3.2393548488616943,8.425195693969727,-1.644816517829895,18.035888671875,-16.2200927734375,22.7203369140625
8.3299999,3.6080620288848877,8.35097599029541,-1.9776105880737305,11.2457275390625,-33.14208984375,20.7977294921875
8.3499999,3.971980571746826,8.188169479370117,-2.190694570541382,12.63427734375,-30.5328369140625,20.99609375
8.3699999,4.244919776916504,8.092401504516602,-2.274491548538208,13.97705078125,-9.6282958984375,23.7274169921875
8.389999900000001,4.398148536682129,8.058882713317871,-2.3056161403656006,12.63427734375,6.1492919921875,23.712158203125
8.4099999,4.541800498962402,8.042123794555664,-2.279279947280884,1.8310546875,-7.8277587890625,18.829345703125
8.4299999,4.716577529907227,8.037335395812988,-2.2577321529388428,-5.2947998046875,-18.1732177734375,14.617919921875
8.4499999,4.946420669555664,8.006210327148438,-2.2146365642547607,-2.5177001953125,-13.8397216796875,10.7574462890625
8.469999900000001,5.197812080383301,8.003816604614258,-2.161964178085327,1.6326904296875,-10.5133056640625,10.6964111328125
8.4899999,5.396530628204346,8.039729118347168,-2.099714994430542,0.54931640625,-8.9569091796875,7.904052734375
8.5099999,5.494692802429199,8.11634349822998,-2.0614075660705566,-0.6866455078125,-3.8299560546875,1.52587890625
8.5299999,5.489904403686523,8.178592681884766,-2.0254945755004883,-1.251220703125,-2.349853515625,-0.701904296875
8.549999900000001,5.389348030090332,8.226476669311523,-1.9919757843017578,-1.0223388671875,-4.6539306640625,0.640869140625
8.569999900000001,5.240907669067383,8.238448143005371,-1.944091796875,-0.5645751953125,-5.6304931640625,-0.2288818359375
8.5899999,5.0685248374938965,8.24084186553955,-1.8914192914962769,1.5869140625,-1.129150390625,-3.997802734375
8.6099999,4.891354084014893,8.259995460510254,-1.8555063009262085,4.638671875,6.28662109375,-4.6539306640625
8.629999900000001,4.716577529907227,8.29830265045166,-1.8411411046981812,0.30517578125,4.9285888671875,-3.448486328125
8.649999900000001,4.553771495819092,8.367734909057617,-1.843535304069519,-5.126953125,-1.556396484375,-1.373291015625
8.6699999,4.46518611907959,8.427590370178223,-1.8483237028121948,-3.204345703125,-3.570556640625,3.204345703125
8.6899999,4.49870491027832,8.458714485168457,-1.8291701078414917,1.1138916015625,1.708984375,7.171630859375
8.709999900000001,4.639962673187256,8.453926086425781,-1.7860745191574097,2.7923583984375,8.056640625,5.8746337890625
8.729999900000001,4.869806289672852,8.406042098999023,-1.7310078144073486,-0.2288818359375,3.7841796875,1.1138916015625
8.7499999,5.094861030578613,8.322244644165039,-1.644816517829895,-4.3792724609375,-1.3885498046875,-2.25830078125
8.7699999,5.257667064666748,8.248024940490723,-1.5490485429763794,-3.2501220703125,-2.532958984375,-2.38037109375
8.7899999,5.329493045806885,8.183381080627441,-1.460463047027588,0.2288818359375,-3.1280517578125,-1.6326904296875
8.809999900000001,5.336675643920898,8.13789176940918,-1.4077905416488647,2.6397705078125,-3.936767578125,0.4119873046875
8.8299999,5.293580055236816,8.10437297821045,-1.4317326545715332,4.5928955078125,-4.82177734375,1.5106201171875
8.8499999,5.243301868438721,8.04691219329834,-1.5322890281677246,2.8076171875,-8.48388671875,0.7781982421875
8.8699999,5.207388877868652,7.982268333435059,-1.6831238269805908,-1.8157958984375,-15.5792236328125,1.3580322265625
8.889999900000001,5.200206279754639,7.903259754180908,-1.8531121015548706,-1.6632080078125,-13.1072998046875,2.6092529296875
8.9099999,5.190629482269287,7.8314337730407715,-2.0039467811584473,1.2664794921875,-1.6021728515625,3.3721923828125
8.9299999,5.17626428604126,7.7883381843566895,-2.1116859912872314,0.030517578125,-0.3662109375,4.08935546875
8.9499999,5.123591423034668,7.781155586242676,-2.1715409755706787,-3.3416748046875,-5.615234375,5.0811767578125
8.969999900000001,5.049371242523193,7.795520782470703,-2.166752576828003,-7.0648193359375,-7.5531005859375,5.4931640625
8.9899999,4.970362663269043,7.838616371154785,-2.123656988143921,-7.354736328125,-6.6680908203125,7.110595703125
9.0099999,4.90571928024292,7.893682956695557,-2.0590133666992188,-5.2642822265625,-5.5084228515625,7.4615478515625
9.0299999,4.8722004890441895,7.951143741607666,-2.013523578643799,-5.7220458984375,-8.4991455078125,8.9874267578125
9.049999900000001,4.874594688415527,8.01339340209961,-2.0374655723571777,-6.0272216796875,-10.955810546875,10.19287109375
9.069999900000001,4.910507678985596,8.056488990783691,-2.10210919380188,-7.110595703125,-7.3699951171875,9.521484375
9.0899999,4.970362663269043,8.08043098449707,-2.1978771686553955,-8.30078125,-5.6915283203125,8.7127685546875
9.1099999,5.037400245666504,8.08043098449707,-2.2816741466522217,-9.1552734375,-6.591796875,10.3759765625
9.129999900000001,5.061342239379883,8.063671112060547,-2.3319525718688965,-9.94873046875,-8.8653564453125,11.77978515625
9.149999900000001,5.015852451324463,8.027758598327637,-2.3774423599243164,-12.0391845703125,-13.4124755859375,17.0745849609375
9.1699999,4.817133903503418,7.982268333435059,-2.4660277366638184,-18.6920166015625,-18.157958984375,29.4342041015625
9.1899999,4.426878929138184,7.898471355438232,-2.6024973392486572,-31.1279296875,-26.5045166015625,51.94091796875
9.209999900000001,3.797203779220581,7.82185697555542,-2.8562827110290527,-44.7845458984375,-38.818359375,86.1968994140625
9.229999900000001,2.999934673309326,7.812280178070068,-3.268085241317749,-61.614990234375,-60.546875,137.6953125
9.2499999,2.2673089504241943,7.999027729034424,-3.825934410095215,-76.568603515625,-96.3592529296875,202.545166015625
9.2699999,1.6041151285171509,8.470685958862305,-4.685452938079834,-74.15771484375,-136.0321044921875,252.2125244140625
9.2899999,1.161187767982483,9.466673851013184,-5.918466567993164,-69.3359375,-191.650390625,308.1512451171875
9.309999900000001,0.9026140570640564,11.33654499053955,-7.589619159698486,-86.0748291015625,-277.2216796875,374.20654296875
9.3299999,0.9768342971801758,14.369998931884766,-9.308655738830566,-133.209228515625,-383.3770751953125,409.1644287109375
9.3499999,1.5083470344543457,18.35634422302246,-10.256759643554688,-166.32080078125,-452.6214599609375,392.547607421875
9.3699999,1.8698714971542358,22.67548370361328,-10.41956615447998,-63.78173828125,-395.965576171875,370.1324462890625
9.389999900000001,1.278503656387329,25.754426956176758,-9.603142738342285,57.4798583984375,-315.1702880859375,410.9649658203125
9.4099999,-1.0199298858642578,24.66745948791504,-8.293514251708984,74.03564453125,-359.2071533203125,474.2279052734375
9.4299999,-5.415684223175049,17.530344009399414,-7.613561630249023,108.306884765625,-412.5823974609375,433.2733154296875
9.4499999,-11.429919242858887,3.3207578659057617,-6.430825710296631,78.704833984375,-302.24609375,392.181396484375
9.469999900000001,-16.129735946655273,-15.780183792114258,-5.509057998657227,99.12109375,-313.690185546875,466.9647216796875
9.4899999,-15.200786590576172,-34.608184814453125,-5.4252610206604,225.677490234375,-383.2244873046875,499.9847412109375
9.5099999,-7.850587368011475,-47.249568939208984,-5.123591423034668,178.3905029296875,-132.2784423828125,293.3807373046875
9.5299999,2.4875755310058594,-51.312530517578125,-4.240131378173828,-9.857177734375,194.5953369140625,-163.543701171875
9.549999900000001,11.238382339477539,-46.986209869384766,-2.4133553504943848,-72.9217529296875,125.06103515625,-427.8106689453125
9.569999900000001,13.345280647277832,-37.830780029296875,0.5578489899635315,-35.2325439453125,-52.06298828125,-359.1461181640625
9.5899999,8.959102630615234,-27.966670989990234,3.0310592651367188,-41.4581298828125,-126.6326904296875,-267.547607421875
9.6099999,2.0039467811584473,-19.51034927368164,2.9281086921691895,-19.8516845703125,-18.6309814453125,-266.387939453125
9.629999900000001,-3.713406801223755,-12.921506881713867,0.15083470940589905,-5.3863525390625,101.3336181640625,-262.9241943359375
9.649999900000001,-6.4380083084106445,-8.066065788269043,-4.486733913421631,-28.0303955078125,155.1361083984375,-248.748779296875
9.6699999,-6.035782337188721,-4.3622355461120605,-9.368511199951172,-62.9730224609375,199.0814208984375,-261.4593505859375
9.6899999,-3.181894063949585,-1.6759412288665771,-13.093889236450195,-99.12109375,221.6949462890625,-297.149658203125
9.709999900000001,0.828393816947937,0.29209262132644653,-14.903905868530273,-103.4088134765625,276.092529296875,-331.7108154296875
9.729999900000001,4.742913722991943,1.647210717201233,-14.839262008666992,-74.981689453125,342.1630859375,-367.889404296875
9.7499999,7.4986395835876465,2.7222073078155518,-13.488932609558105,-51.361083984375,364.8223876953125,-406.7230224609375
9.7699999,8.834604263305664,3.754108190536499,-11.432312965393066,-41.534423828125,342.9107666015625,-415.6646728515625
9.7899999,8.638279914855957,4.821922302246094,-9.102754592895508,-41.534423828125,303.7261962890625,-401.2603759765625
9.809999900000001,7.3669586181640625,5.825092792510986,-6.885724067687988,-18.3868408203125,289.9169921875,-393.06640625
9.8299999,5.418078422546387,6.871358871459961,-4.994304656982422,7.537841796875,266.05224609375,-381.7138671875
9.8499999,3.339911460876465,7.977479934692383,-3.7277719974517822,24.90234375,190.032958984375,-335.723876953125
9.8699999,1.534683346748352,9.023746490478516,-3.2178070545196533,41.3970947265625,105.8197021484375,-274.566650390625
9.889999900000001,0.363918662071228,9.880870819091797,-3.450044631958008,51.08642578125,75.50048828125,-225.494384765625
9.9099999,-0.08140286058187485,10.393229484558105,-4.2544965744018555,50.9033203125,91.0491943359375,-184.7991943359375
9.9299999,0.1388636976480484,10.453084945678711,-5.257667064666748,32.40966796875,89.1571044921875,-142.5933837890625
9.9499999,0.7637503147125244,10.096348762512207,-5.975927352905273,-0.8544921875,58.990478515625,-112.4420166015625
9.969999900000001,1.37906014919281,9.528923034667969,-6.004657745361328,-20.0958251953125,55.2520751953125,-105.9417724609375
9.9899999,1.7764976024627686,8.987833023071289,-5.331887245178223,-5.9051513671875,73.272705078125,-95.306396484375
10.0099999,1.9033904075622559,8.552088737487793,-4.110844135284424,0.91552734375,54.6875,-67.93212890625
10.0299999,1.8171991109848022,8.35097599029541,-2.8203697204589844,-8.1939697265625,17.0440673828125,-44.2962646484375
10.049999900000001,1.7860745191574097,8.288725852966309,-1.778891921043396,-13.5498046875,-5.3863525390625,-33.63037109375
10.069999900000001,1.9297266006469727,8.29590892791748,-1.1516109704971313,-5.5999755859375,-1.1749267578125,-20.294189453125
10.0899999,2.1978771686553955,8.355764389038086,-0.9600749015808105,10.5133056640625,9.5367431640625,-5.889892578125
10.1099999,2.473210334777832,8.44195556640625,-1.1324573755264282,14.83154296875,3.23486328125,4.791259765625
10.129999900000001,2.6862943172454834,8.578424453735352,-1.501164436340332,0.9918212890625,-7.9498291015625,9.46044921875
10.149999900000001,2.7724854946136475,8.724471092224121,-1.8579005002975464,-11.1541748046875,-7.6904296875,12.481689453125
10.1699999,2.7461493015289307,8.868123054504395,-2.0638017654418945,-6.0272216796875,3.753662109375,18.2952880859375
10.1899999,2.6647465229034424,8.944737434387207,-2.049436569213867,1.312255859375,10.1776123046875,26.153564453125
10.209999900000001,2.6384103298187256,8.939949035644531,-1.9105730056762695,1.251220703125,-0.0152587890625,29.327392578125
10.229999900000001,2.671929121017456,8.880094528198242,-1.745373010635376,-4.69970703125,-12.0849609375,21.78955078125
10.2499999,2.82515811920166,8.827422142028809,-1.6208745241165161,-8.11767578125,-15.167236328125,15.19775390625
10.2699999,3.0119056701660156,8.822632789611816,-1.5466543436050415,-5.035400390625,-3.5858154296875,17.791748046875
10.2899999,3.2345664501190186,8.892065048217773,-1.50355863571167,0.18310546875,5.615234375,23.7884521484375
10.309999900000001,3.4763808250427246,8.954314231872559,-1.4939818382263184,0.5035400390625,3.2501220703125,21.2860107421875
10.3299999,3.7445313930511475,8.99740982055664,-1.4963760375976562,-1.6632080078125,-2.532958984375,11.474609375
10.3499999,3.998316764831543,9.014169692993164,-1.5298948287963867,0.640869140625,-5.6610107421875,9.6588134765625
10.3699999,4.206612586975098,9.002198219299316,-1.5873557329177856,2.9296875,-9.8876953125,14.1754150390625
10.389999900000001,4.321534156799316,9.011775016784668,-1.699883222579956,5.37109375,-10.5133056640625,15.19775390625
10.4099999,4.359841346740723,9.002198219299316,-1.800439715385437,3.11279296875,-2.685546875,14.1754150390625
10.4299999,4.323928356170654,8.966285705566406,-1.8363527059555054,-2.3651123046875,3.5552978515625,11.8865966796875
10.4499999,4.235342979431152,8.904036521911621,-1.7836803197860718,0.18310546875,2.6092529296875,11.3372802734375
10.469999900000001,4.122815132141113,8.808267593383789,-1.6328455209732056,1.89208984375,-5.0506591796875,8.4381103515625
10.4899999,4.01268196105957,8.707711219787598,-1.4939818382263184,3.2196044921875,-8.148193359375,9.796142578125
10.5099999,3.936067581176758,8.616731643676758,-1.4413094520568848,4.852294921875,-8.056640625,11.8865966796875
10.5299999,3.8953661918640137,8.544905662536621,-1.5131354331970215,4.1961669921875,-6.0577392578125,13.031005859375
10.549999900000001,3.8953661918640137,8.494627952575684,-1.6615760326385498,0.1983642578125,-5.2642822265625,11.7034912109375
10.569999900000001,3.9193081855773926,8.458714485168457,-1.8363527059555054,-3.5247802734375,-4.8370361328125,10.0250244140625
10.5899999,3.971980571746826,8.434772491455078,-1.941697597503662,-5.7830810546875,0.7781982421875,11.90185546875
10.6099999,4.000710964202881,8.427590370178223,-1.9512743949890137,-5.8441162109375,7.232666015625,13.519287109375
10.629999900000001,4.005499362945557,8.429984092712402,-1.886630892753601,-6.744384765625,1.2969970703125,13.1988525390625
10.649999900000001,3.9671921730041504,8.446743965148926,-1.8100165128707886,-8.1634521484375,-8.148193359375,17.578125
10.6699999,3.9169139862060547,8.473079681396484,-1.7812861204147339,-8.819580078125,-11.962890625,25.2685546875
10.6899999,3.8379054069519043,8.485051155090332,-1.8698714971542358,-9.2620849609375,-11.199951171875,33.1268310546875
10.709999900000001,3.7205893993377686,8.494627952575684,-2.1092917919158936,-13.7939453125,-10.772705078125,43.3349609375
10.729999900000001,3.536235809326172,8.482656478881836,-2.456450939178467,-29.998779296875,-20.01953125,64.239501953125
10.7499999,3.2297780513763428,8.398859977722168,-2.8562827110290527,-48.03466796875,-31.707763671875,92.34619140625
10.7699999,2.8203697204589844,8.255207061767578,-3.2585084438323975,-57.2052001953125,-37.9180908203125,126.28173828125
10.7899999,2.3535003662109375,8.054094314575195,-3.6559460163116455,-66.070556640625,-51.6357421875,171.0662841796875
10.809999900000001,1.9752163887023926,7.850587368011475,-3.9911341667175293,-72.6318359375,-78.0792236328125,230.438232421875
10.8299999,1.7262194156646729,7.766790390014648,-4.378994941711426,-66.7266845703125,-111.114501953125,284.8358154296875
10.8499999,1.8267759084701538,7.797914981842041,-4.800374507904053,-58.3648681640625,-178.2989501953125,331.9549560546875
10.8699999,2.2840683460235596,8.33182144165039,-5.453991413116455,-44.464111328125,-242.7215576171875,369.8272705078125
10.889999900000001,3.2585084438323975,9.911994934082031,-6.423643112182617,-38.9251708984375,-273.25439453125,396.1029052734375
10.9099999,4.707000732421875,12.945448875427246,-7.553706169128418,-56.7779541015625,-329.9713134765625,397.5982666015625
10.9299999,6.414066314697266,16.95094871520996,-8.427590370178223,-70.8770751953125,-399.0936279296875,360.565185546875
10.9499999,7.546523571014404,21.198261260986328,-9.047688484191895,-14.70947265625,-360.260009765625,330.3985595703125
10.969999900000001,6.780379295349121,24.145524978637695,-9.35893440246582,47.8668212890625,-278.86962890625,359.710693359375
10.9899999,3.0166940689086914,23.379379272460938,-9.44991397857666,0.946044921875,-356.4910888671875,447.418212890625
11.0099999,-3.35667085647583,17.410634994506836,-9.222464561462402,-38.9251708984375,-500,499.9847412109375
11.0299999,-12.279860496520996,4.623203277587891,-7.615955829620361,30.181884765625,-420.867919921875,492.2943115234375
11.049999900000001,-19.835960388183594,-13.876792907714844,-5.298368453979492,118.804931640625,-294.7845458984375,424.8199462890625
11.069999900000001,-20.872650146484375,-33.94020462036133,-4.321534156799316,208.099365234375,-484.344482421875,474.1668701171875
11.0899999,-13.309367179870605,-48.738765716552734,-4.460397720336914,117.462158203125,-389.251708984375,314.63623046875
11.1099999,-2.169146776199341,-56.03628921508789,-4.776432514190674,-68.9697265625,211.090087890625,-225.7843017578125
11.129999900000001,7.599195957183838,-53.1033935546875,-4.402936935424805,-106.6131591796875,375.4119873046875,-500
11.149999900000001,10.108319282531738,-43.63911437988281,-2.056619167327881,-33.7066650390625,115.020751953125,-426.8035888671875
11.1699999,5.523423194885254,-31.933862686157227,0.5602431893348694,-83.5113525390625,-187.4542236328125,-240.7379150390625
11.1899999,-0.9481038451194763,-20.55182647705078,1.072602391242981,-86.9140625,-80.2764892578125,-266.571044921875
11.209999900000001,-5.279214859008789,-11.408370971679688,-1.1875240802764893,-1.7242431640625,215.9881591796875,-336.212158203125
11.229999900000001,-6.665457725524902,-4.867412090301514,-5.114014625549316,13.1988525390625,296.1883544921875,-323.7457275390625
11.2499999,-5.920860767364502,-0.5386953949928284,-9.330204010009766,-39.97802734375,236.5570068359375,-281.8756103515625
11.2699999,-3.5865142345428467,2.164358377456665,-12.629413604736328,-67.779541015625,227.691650390625,-275.8941650390625
11.2899999,-0.524330198764801,3.557783842086792,-14.279019355773926,-51.8646240234375,314.6820068359375,-317.9779052734375
11.309999900000001,2.5905263423919678,4.07014274597168,-14.204798698425293,-46.661376953125,385.3302001953125,-366.546630859375
11.3299999,5.058948040008545,4.273650169372559,-12.741941452026367,-49.591064453125,386.138916015625,-384.6282958984375
11.3499999,6.449979305267334,4.525041103363037,-10.654197692871094,-34.271240234375,321.83837890625,-383.8348388671875
11.3699999,6.998251438140869,4.970362663269043,-8.556877136230469,-34.24072265625,237.9608154296875,-378.72314453125
11.389999900000001,6.936002254486084,5.623979568481445,-6.885724067687988,-55.0384521484375,190.00244140625,-359.130859375
11.4099999,6.476315498352051,6.440402507781982,-5.762843608856201,-66.162109375,186.492919921875,-318.29833984375
11.4299999,5.638344764709473,7.429207801818848,-5.013458251953125,-38.0096435546875,185.1654052734375,-273.956298828125
11.4499999,4.687847137451172,8.561665534973145,-4.350264549255371,-4.3487548828125,139.984130859375,-225.677490234375
11.469999900000001,3.9049429893493652,9.581595420837402,-3.869029998779297,12.908935546875,73.9593505859375,-175.3692626953125
11.4899999,3.5960910320281982,10.192116737365723,-3.5458126068115234,11.0015869140625,33.4930419921875,-146.7437744140625
11.5099999,3.6966474056243896,10.268731117248535,-3.4404678344726562,12.542724609375,34.4696044921875,-144.0582275390625
11.5299999,3.909731388092041,9.952696800231934,-3.397372245788574,20.233154296875,61.6607666015625,-136.3525390625
11.549999900000001,3.8355112075805664,9.461885452270508,-3.272873640060425,18.646240234375,65.3076171875,-112.85400390625
11.569999900000001,3.4332852363586426,9.030928611755371,-3.028665065765381,18.7225341796875,36.224365234375,-83.6029052734375
11.5899999,2.762908697128296,8.676587104797363,-2.7102363109588623,15.5792236328125,23.040771484375,-81.8939208984375
11.6099999,2.0638017654418945,8.374917984008789,-2.427720546722412,6.011962890625,27.191162109375,-84.8388671875
11.629999900000001,1.5275006294250488,8.176198959350586,-2.274491548538208,-1.861572265625,16.937255859375,-54.6875
11.649999900000001,1.2018892765045166,8.118738174438477,-2.231395959854126,-0.9613037109375,-2.6702880859375,-13.4429931640625
11.6699999,1.290474772453308,8.092401504516602,-2.2864625453948975,3.3416748046875,-5.1727294921875,8.72802734375
11.6899999,1.8315643072128296,8.054094314575195,-2.3558945655822754,2.8076171875,11.1541748046875,11.199951171875
11.709999900000001,2.693476915359497,7.994239330291748,-2.4396915435791016,1.2969970703125,19.378662109375,3.997802734375
11.729999900000001,3.6822822093963623,7.982268333435059,-2.4827871322631836,-0.91552734375,15.8538818359375,0.1220703125
11.7499999,4.4939165115356445,8.08043098449707,-2.410961151123047,-4.4097900390625,24.0631103515625,-3.2958984375
11.7699999,5.013458251953125,8.271966934204102,-2.1763293743133545,-6.4544677734375,37.811279296875,-9.2620849609375
11.7899999,5.125985622406006,8.51138687133789,-1.7884687185287476,-5.6610107421875,31.768798828125,-21.8048095703125
11.809999900000001,4.876988887786865,8.743624687194824,-1.2832920551300049,-6.439208984375,9.33837890625,-26.8402099609375
11.8299999,4.333505153656006,8.925583839416504,-0.811634361743927,-1.8157958984375,-7.171630859375,-22.8118896484375
11.8499999,3.6774938106536865,9.047688484191895,-0.545877993106842,6.195068359375,-16.815185546875,-17.7459716796875
11.8699999,3.0837318897247314,9.126696586608887,-0.5339069962501526,8.941650390625,-23.773193359375,-16.571044921875
11.889999900000001,2.7054479122161865,9.17936897277832,-0.7829039692878723,6.683349609375,-20.0042724609375,-9.8876953125
11.9099999,2.542642116546631,9.23682975769043,-1.1659762859344482,4.058837890625,-0.2288818359375,-0.701904296875
11.9299999,2.609679937362671,9.263166427612305,-1.5155296325683594,2.74658203125,9.185791015625,8.6669921875
11.9499999,2.849100112915039,9.217676162719727,-1.7381904125213623,2.105712890625,4.6844482421875,7.6446533203125
11.969999900000001,3.157952070236206,9.107542991638184,-1.7884687185287476,0.946044921875,1.6937255859375,1.0986328125
11.9899999,3.4835634231567383,8.978256225585938,-1.7166426181793213,1.007080078125,3.72314453125,-0.6103515625
12.0099999,3.732560396194458,8.889671325683594,-1.5634137392044067,1.007080078125,6.500244140625,-0.1068115234375
12.0299999,3.869029998779297,8.853757858276367,-1.3527239561080933,0,9.0484619140625,-1.1138916015625
12.049999900000001,3.890577793121338,8.834604263305664,-1.1468225717544556,2.2430419921875,7.568359375,-1.800537109375
12.069999900000001,3.861847400665283,8.791508674621582,-1.0079588890075684,6.16455078125,0.7781982421875,-1.15966796875
12.0899999,3.8091750144958496,8.765172004699707,-0.993593692779541,7.415771484375,-3.2196044921875,1.556396484375
12.1099999,3.7876269817352295,8.755595207214355,-1.1037269830703735,5.340576171875,-2.44140625,2.13623046875
12.129999900000001,3.732560396194458,8.801085472106934,-1.278503656387329,3.5247802734375,9.0789794921875,0.0457763671875
12.149999900000001,3.663128614425659,8.875306129455566,-1.4293384552001953,2.44140625,10.7879638671875,0.8087158203125
12.1699999,3.60566782951355,8.913613319396973,-1.482010841369629,-1.220703125,2.7008056640625,3.1890869140625
12.1899999,3.56017804145813,8.911218643188477,-1.455674648284912,-1.0528564453125,6.072998046875,4.6539306640625
12.209999900000001,3.6128504276275635,8.83699893951416,-1.3766659498214722,-0.457763671875,2.8228759765625,4.4708251953125
12.229999900000001,3.732560396194458,8.762778282165527,-1.3192051649093628,-0.2899169921875,-2.716064453125,4.4708251953125
12.2499999,3.8762125968933105,8.695740699768066,-1.3000515699386597,-1.251220703125,0.5645751953125,5.1422119140625
12.2699999,3.9815573692321777,8.676587104797363,-1.3215993642807007,-2.9144287109375,3.2806396484375,3.1890869140625
12.289999900000002,4.036623954772949,8.686163902282715,-1.3431471586227417,-3.6773681640625,1.7852783203125,3.84521484375
12.309999900000001,4.022258758544922,8.7268648147583,-1.359906554222107,-1.64794921875,1.0986328125,6.3629150390625
12.3299999,3.9863457679748535,8.779537200927734,-1.3527239561080933,-2.7618408203125,-2.99072265625,7.8582763671875
12.3499999,3.957615375518799,8.83939266204834,-1.3407529592514038,-4.974365234375,-6.5155029296875,7.3089599609375
12.3699999,3.9624037742614746,8.9064302444458,-1.3192051649093628,-4.058837890625,-7.4462890625,6.04248046875
12.389999900000001,3.976768970489502,8.959102630615234,-1.2952631711959839,-1.52587890625,-4.2572021484375,5.859375
12.4099999,3.971980571746826,8.983044624328613,-1.2737152576446533,1.129150390625,-2.3193359375,7.3089599609375
12.4299999,3.9384617805480957,8.96149730682373,-1.278503656387329,2.655029296875,-3.021240234375,9.765625
12.4499999,3.88818359375,8.908824920654297,-1.3120225667953491,2.5634765625,-4.2877197265625,10.7421875
12.469999900000001,3.8594532012939453,8.83699893951416,-1.3958195447921753,1.861572265625,-5.1422119140625,11.138916015625
12.4899999,3.866635799407959,8.767566680908203,-1.5059528350830078,0.518798828125,-5.1422119140625,10.19287109375
12.5099999,3.8953661918640137,8.722076416015625,-1.6136919260025024,-3.2958984375,-2.2430419921875,7.720947265625
12.5299999,3.9169139862060547,8.683769226074219,-1.6687586307525635,-6.1798095703125,-0.5035400390625,6.8511962890625
12.549999900000001,3.9001545906066895,8.669404029846191,-1.656787633895874,-5.0506591796875,-1.4495849609375,8.30078125
12.569999900000001,3.8355112075805664,8.671798706054688,-1.5729905366897583,-3.4942626953125,0.2288818359375,11.3525390625
12.5899999,3.737348794937134,8.683769226074219,-1.4772224426269531,-3.5858154296875,2.8533935546875,16.6168212890625
12.6099999,3.670311212539673,8.698134422302246,-1.4173674583435059,-5.6304931640625,-1.495361328125,21.759033203125
12.629999900000001,3.648763418197632,8.695740699768066,-1.4221558570861816,-7.99560546875,-6.6070556640625,26.031494140625
12.649999900000001,3.665522813796997,8.669404029846191,-1.5083470344543457,-8.9874267578125,-5.3253173828125,31.7535400390625
12.6699999,3.6320040225982666,8.69334602355957,-1.7142484188079834,-13.9923095703125,-9.2315673828125,41.7938232421875
12.6899999,3.4356794357299805,8.757989883422852,-2.056619167327881,-33.294677734375,-28.167724609375,66.5740966796875
12.709999900000001,3.066972494125366,8.851364135742188,-2.494758129119873,-60.4095458984375,-56.82373046875,113.677978515625
12.729999900000001,2.451662540435791,8.923190116882324,-3.1531636714935303,-72.1435546875,-82.21435546875,168.27392578125
12.7499999,1.7884687185287476,8.990227699279785,-3.9600095748901367,-73.944091796875,-105.65185546875,224.4415283203125
12.7699999,1.072602391242981,9.0859956741333,-5.054159641265869,-76.812744140625,-135.43701171875,271.0113525390625
12.789999900000002,0.5554547905921936,9.253589630126953,-6.291962146759033,-82.3516845703125,-194.793701171875,331.4208984375
12.809999900000001,0.43335050344467163,9.885659217834473,-7.5632829666137695,-75.927734375,-265.2587890625,384.09423828125
12.8299999,0.7158663272857666,11.707646369934082,-8.856152534484863,-72.7386474609375,-305.48095703125,426.239013671875
12.8499999,1.4748282432556152,15.126565933227539,-9.5624418258667,-121.2615966796875,-385.6048583984375,463.6077880859375
12.8699999,1.9632453918457031,19.639636993408203,-9.962273597717285,-118.4539794921875,-500,485.565185546875
12.889999900000001,1.4317326545715332,23.716962814331055,-9.945513725280762,-10.4827880859375,-497.2686767578125,499.9847412109375
12.9099999,-1.237802267074585,24.49507713317871,-9.454702377319336,97.9766845703125,-403.2745361328125,499.9847412109375
12.9299999,-6.054935932159424,19.847932815551758,-9.289502143859863,173.492431640625,-349.395751953125,499.9847412109375
12.9499999,-14.010868072509766,7.718906402587891,-8.13789176940918,69.9920654296875,-261.3525390625,450.1800537109375
12.969999900000001,-21.085735321044922,-11.566388130187988,-5.832275390625,-79.1168212890625,-461.8072509765625,488.616943359375
12.9899999,-21.2054443359375,-33.29616165161133,-5.9088897705078125,90.0115966796875,-500,499.9847412109375
13.0099999,-12.667720794677734,-50.630184173583984,-5.856217384338379,133.209228515625,-326.9500732421875,373.9471435546875
13.0299999,-0.689530074596405,-59.517459869384766,-4.941632270812988,-84.686279296875,271.514892578125,-260.5743408203125
13.049999900000001,10.498574256896973,-56.46006393432617,-3.49314022064209,-71.2432861328125,277.16064453125,-500
13.069999900000001,13.208810806274414,-46.49060821533203,0.3878606855869293,3.631591796875,-72.93701171875,-363.4033203125
13.0899999,8.252813339233398,-33.985694885253906,3.2321722507476807,-12.14599609375,-115.5548095703125,-307.342529296875
13.1099999,0.6344634294509888,-22.79998207092285,2.1595699787139893,22.3236083984375,110.90087890625,-379.364013671875
13.129999900000001,-5.48272180557251,-14.264654159545898,-2.801215887069702,18.1427001953125,187.5762939453125,-360.6414794921875
13.149999900000001,-8.932766914367676,-8.257601737976074,-9.299078941345215,-54.1229248046875,174.346923828125,-296.8902587890625
13.1699999,-9.299078941345215,-4.046200752258301,-14.932636260986328,-103.3172607421875,234.4512939453125,-301.94091796875
13.1899999,-7.1251444816589355,-1.3742717504501343,-17.894264221191406,-99.7314453125,331.6192626953125,-345.367431640625
13.209999900000001,-3.77565598487854,0.22266076505184174,-17.63568878173828,-75.6072998046875,415.7867431640625,-393.5394287109375
13.229999900000001,-0.09576806426048279,1.1324573755264282,-15.030797958374023,-48.1414794921875,408.3709716796875,-406.31103515625
13.2499999,2.942473888397217,1.7597382068634033,-11.422736167907715,-49.0875244140625,315.5975341796875,-424.713134765625
13.2699999,5.169081687927246,2.252943754196167,-7.85537576675415,-61.767578125,244.20166015625,-461.456298828125
13.289999900000002,6.428431510925293,2.9065608978271484,-5.044582843780518,-52.947998046875,238.4185791015625,-472.3358154296875
13.309999900000001,6.560112476348877,3.751713991165161,-3.0621838569641113,-30.8837890625,254.0283203125,-467.2698974609375
13.3299999,5.612008571624756,5.1116204261779785,-1.7860745191574097,-1.861572265625,226.3336181640625,-418.2281494140625
13.3499999,3.914519786834717,6.825869083404541,-1.170764684677124,16.6168212890625,162.567138671875,-344.635009765625
13.3699999,2.1284453868865967,8.674192428588867,-1.1180921792984009,22.7203369140625,100.6622314453125,-265.777587890625
13.389999900000001,0.7613561153411865,10.20648193359375,-1.5897499322891235,26.4434814453125,57.4951171875,-193.6798095703125
13.4099999,0.15083470940589905,11.010933876037598,-2.4157495498657227,33.8592529296875,56.4727783203125,-144.3939208984375
13.4299999,0.12210428714752197,11.116278648376465,-3.4955344200134277,39.2303466796875,70.098876953125,-115.0360107421875
13.4499999,0.4141969084739685,10.745177268981934,-4.548983097076416,28.0914306640625,40.069580078125,-87.615966796875
13.469999900000001,0.727837324142456,10.137049674987793,-5.3582234382629395,9.5977783203125,-3.326416015625,-57.4951171875
13.4899999,0.9481038451194763,9.636661529541016,-5.8203043937683105,13.2598876953125,-11.9781494140625,-29.754638671875
13.5099999,1.192312479019165,9.153033256530762,-5.743690013885498,8.48388671875,-0.18310546875,-10.3607177734375
13.5299999,1.5083470344543457,8.793902397155762,-5.219359874725342,0.6561279296875,2.50244140625,-5.7220458984375
13.549999900000001,1.8914192914962769,8.494627952575684,-4.393360137939453,5.4168701171875,-3.570556640625,-5.950927734375
13.569999900000001,2.293645143508911,8.250418663024902,-3.4787750244140625,4.302978515625,-4.1046142578125,2.2125244140625
13.5899999,2.6455929279327393,8.054094314575195,-2.655169725418091,-6.8206787109375,-7.3699951171875,13.0767822265625
13.6099999,2.892195701599121,7.927201747894287,-2.1284453868865967,-8.9569091796875,-9.4451904296875,19.2108154296875
13.629999900000001,3.00711727142334,7.931990146636963,-1.9488801956176758,-7.62939453125,-6.6986083984375,18.5089111328125
13.649999900000001,3.0095114707946777,8.070854187011719,-2.03507137298584,-16.143798828125,-11.9171142578125,24.1546630859375
13.6699999,2.96162748336792,8.406042098999023,-2.3056161403656006,-29.052734375,-28.5186767578125,35.58349609375
13.6899999,3.047818660736084,8.757989883422852,-2.5306711196899414,-32.379150390625,-36.224365234375,44.1436767578125
13.709999900000001,3.318363666534424,9.107542991638184,-2.650381326675415,-17.6239013671875,-17.8985595703125,34.60693359375
13.729999900000001,3.7229835987091064,9.366117477416992,-2.5330653190612793,-11.138916015625,2.8076171875,14.923095703125
13.7499999,4.120420932769775,9.5408935546875,-2.212242364883423,-14.1754150390625,2.86865234375,8.6669921875
13.7699999,4.292803764343262,9.66299819946289,-1.745373010635376,-6.683349609375,0.152587890625,11.3983154296875
13.789999900000002,4.280832767486572,9.648633003234863,-1.2114660739898682,3.753662109375,-1.800537109375,14.6942138671875
13.809999900000001,4.137180328369141,9.495404243469238,-0.8188169598579407,14.0533447265625,-1.64794921875,12.8021240234375
13.8299999,3.931279182434082,9.20091724395752,-0.730231523513794,18.61572265625,1.6326904296875,2.288818359375
13.8499999,3.7421371936798096,8.810662269592285,-0.9361328482627869,14.312744140625,2.716064453125,0.1983642578125
13.8699999,3.552995204925537,8.42040729522705,-1.400607943534851,11.0931396484375,2.899169921875,1.77001953125
13.889999900000001,3.421314239501953,8.063671112060547,-1.8914192914962769,8.1329345703125,9.0484619140625,0.0152587890625
13.9099999,3.421314239501953,7.790732383728027,-2.322375535964966,5.31005859375,16.0369873046875,-1.1749267578125
13.9299999,3.5673606395721436,7.642292022705078,-2.5665841102600098,2.3651123046875,15.869140625,-1.739501953125
13.9499999,3.818751811981201,7.673416614532471,-2.6360161304473877,-0.885009765625,10.31494140625,-1.373291015625
13.969999900000001,4.132391929626465,7.864952564239502,-2.537853717803955,-2.8533935546875,7.7056884765625,1.220703125
13.9899999,4.438849925994873,8.216899871826172,-2.3535003662109375,-2.3040771484375,11.7950439453125,6.6680908203125
14.0099999,4.738125324249268,8.616731643676758,-2.121262788772583,-1.4801025390625,8.6669921875,8.8653564453125
14.0299999,4.977545261383057,8.98543930053711,-1.900996208190918,-0.2288818359375,5.8441162109375,4.9591064453125
14.049999900000001,5.1116204261779785,9.248801231384277,-1.6424223184585571,0.8697509765625,8.148193359375,-1.5106201171875
14.069999900000001,5.0900726318359375,9.363722801208496,-1.3623007535934448,4.39453125,7.2784423828125,-3.997802734375
14.0899999,4.908113479614258,9.344569206237793,-1.0558429956436157,11.04736328125,4.33349609375,-2.8076171875
14.1099999,4.60165548324585,9.198522567749023,-0.8212111592292786,14.5416259765625,2.3193359375,-2.44140625
14.129999900000001,4.28322696685791,8.944737434387207,-0.7445967197418213,15.0146484375,-0.5950927734375,-1.3580322265625
14.149999900000001,4.017470359802246,8.640673637390137,-0.8786720037460327,14.923095703125,-3.0364990234375,1.068115234375
14.1699999,3.8810009956359863,8.346187591552734,-1.213860273361206,13.3056640625,-4.08935546875,3.7994384765625
14.1899999,3.892971992492676,8.085219383239746,-1.6663644313812256,8.6669921875,-5.4931640625,5.2490234375
14.209999900000001,4.031835556030273,7.948749542236328,-2.1284453868865967,3.5552978515625,0.244140625,3.6163330078125
14.229999900000001,4.20421838760376,7.927201747894287,-2.47560453414917,-0.3662109375,11.016845703125,1.8768310546875
14.2499999,4.37420654296875,8.032546997070312,-2.6431987285614014,-2.8839111328125,10.7574462890625,2.838134765625
14.2699999,4.491522312164307,8.224082946777344,-2.6024973392486572,-3.6773681640625,4.3487548828125,5.0811767578125
14.289999900000002,4.563348293304443,8.446743965148926,-2.3989901542663574,-1.1444091796875,7.32421875,4.8980712890625
14.309999900000001,4.594472885131836,8.638279914855957,-2.1164743900299072,1.068115234375,5.9356689453125,3.2196044921875
14.3299999,4.60165548324585,8.767566680908203,-1.843535304069519,2.655029296875,-2.166748046875,2.7923583984375
14.3499999,4.5609540939331055,8.827422142028809,-1.6424223184585571,4.7149658203125,-0.518798828125,2.899169921875
14.3699999,4.505887508392334,8.815450668334961,-1.5658079385757446,6.0272216796875,3.082275390625,3.35693359375
14.389999900000001,4.469974517822266,8.743624687194824,-1.6136919260025024,5.92041015625,-0.30517578125,4.5013427734375
14.4099999,4.443638324737549,8.62630844116211,-1.7501614093780518,4.4097900390625,-1.0986328125,4.5623779296875
14.4299999,4.460397720336914,8.487444877624512,-1.9345149993896484,1.1444091796875,-2.2430419921875,3.326416015625
14.4499999,4.563348293304443,8.216899871826172,-2.2170307636260986,-0.30517578125,0.518798828125,2.2735595703125
14.469999900000001,4.599261283874512,8.14028549194336,-2.255337953567505,-1.5106201171875,2.13623046875,0.4730224609375
14.4899999,4.616020679473877,8.11634349822998,-2.2026655673980713,-2.25830078125,2.197265625,-0.30517578125
14.5099999,4.563348293304443,8.142680168151855,-2.121262788772583,-2.227783203125,0.823974609375,0.091552734375
14.5299999,4.460397720336914,8.202534675598145,-2.027888774871826,-2.6702880859375,1.2969970703125,0.4119873046875
14.549999900000001,4.331110954284668,8.279149055480957,-1.941697597503662,-3.936767578125,3.60107421875,1.15966796875
14.569999900000001,4.19224739074707,8.358158111572266,-1.9177556037902832,-2.9144287109375,5.92041015625,2.0294189453125
14.5899999,4.067748546600342,8.425195693969727,-1.941697597503662,-3.47900390625,4.7149658203125,4.3487548828125
14.6099999,3.976768970489502,8.463502883911133,-2.0183119773864746,-6.34765625,4.486083984375,8.148193359375
14.629999900000001,3.912125587463379,8.458714485168457,-2.145204782485962,-7.843017578125,7.26318359375,11.871337890625
14.649999900000001,3.8977603912353516,8.394071578979492,-2.276885747909546,-11.29150390625,5.767822265625,14.9993896484375
14.6699999,3.9001545906066895,8.271966934204102,-2.403778553009033,-15.106201171875,3.7841796875,17.791748046875
14.6899999,3.8379054069519043,8.08043098449707,-2.5234885215759277,-18.7530517578125,4.4708251953125,19.6685791015625
14.709999900000001,3.5027170181274414,7.7428483963012695,-2.647987127304077,-24.59716796875,3.4027099609375,25.7415771484375
14.729999900000001,2.698265314102173,7.220912456512451,-2.8562827110290527,-31.158447265625,-3.0670166015625,46.0357666015625
14.7499999,1.3503297567367554,6.392518520355225,-3.160346269607544,-38.9251708984375,-14.8773193359375,87.4176025390625
14.7699999,-0.3447650372982025,5.114014625549316,-3.663128614425659,-46.2646484375,-29.0679931640625,145.6451416015625
14.789999900000002,-2.006340980529785,3.1699230670928955,-4.486733913421631,-55.48095703125,-50.9033203125,208.7249755859375
14.809999900000001,-3.1052796840667725,0.24181437492370605,-5.7772088050842285,-77.606201171875,-94.146728515625,273.6358642578125
14.8299999,-3.1076738834381104,-3.711012601852417,-7.824251174926758,-87.249755859375,-162.139892578125,358.2916259765625
14.8499999,-1.3479355573654175,-8.667010307312012,-10.831368446350098,-70.9381103515625,-212.95166015625,438.5833740234375
14.8699999,2.341529369354248,-13.982137680053711,-14.575900077819824,-65.4449462890625,-193.17626953125,483.673095703125
14.889999900000001,8.51138687133789,-18.65322494506836,-17.937358856201172,-103.1646728515625,-134.0789794921875,499.9847412109375
14.9099999,17.405845642089844,-21.14798355102539,-19.73301124572754,-131.65283203125,-68.0999755859375,499.9847412109375
14.9299999,29.369672775268555,-20.17115020751953,-18.9453182220459,-126.7547607421875,-155.8990478515625,453.3843994140625
14.9499999,43.593624114990234,-13.82412052154541,-16.500837326049805,-35.82763671875,-404.6783447265625,412.7960205078125
14.969999900000001,58.06657409667969,-1.4891934394836426,-12.088324546813965,42.8009033203125,-500,319.9005126953125
14.9899999,70.494873046875,14.719552040100098,-3.224989652633667,-46.7987060546875,-473.8006591796875,22.7508544921875
15.0099999,75.25454711914062,30.12145233154297,10.395624160766602,-27.435302734375,-500,-313.2781982421875
15.0299999,71.92182159423828,38.47721481323242,27.27474594116211,270.7977294921875,-500,-385.6964111328125
15.049999900000001,60.08009719848633,35.42461013793945,43.5433464050293,430.419921875,-500,-408.26416015625
15.069999900000001,41.539398193359375,21.152772903442383,52.660465240478516,435.211181640625,-500,-441.7724609375
15.0899999,21.109676361083984,0.6440402865409851,51.867984771728516,355.5145263671875,-485.0921630859375,-340.911865234375
15.1099999,2.6791117191314697,-20.980388641357422,42.2121696472168,211.334228515625,-251.220703125,-223.93798828125
15.129999900000001,-11.425130844116211,-37.656005859375,27.83259391784668,2.960205078125,-87.6007080078125,-132.537841796875
15.149999900000001,-19.24698829650879,-47.81460189819336,14.132972717285156,-191.46728515625,75.3631591796875,-125.091552734375
15.1699999,-21.902156829833984,-50.10585403442383,4.177882194519043,-280.609130859375,176.849365234375,-143.7530517578125
15.1899999,-20.726604461669922,-45.908817291259766,-0.31124621629714966,-260.1776123046875,187.9119873046875,-76.66015625
15.209999900000001,-17.231069564819336,-36.964080810546875,-1.659181833267212,-196.563720703125,190.1092529296875,2.9449462890625
15.229999900000001,-12.114660263061523,-25.742456436157227,-2.1332337856292725,-180.2215576171875,218.6737060546875,30.8074951171875
15.2499999,-5.705382823944092,-14.487314224243164,-3.1052796840667725,-201.507568359375,222.686767578125,15.411376953125
15.2699999,1.2234370708465576,-5.054159641265869,-4.371812343597412,-202.0111083984375,217.071533203125,-11.5509033203125
15.289999900000002,7.692570209503174,1.8914192914962769,-5.580883979797363,-156.18896484375,198.5015869140625,-31.219482421875
15.309999900000001,12.67250919342041,5.880159378051758,-6.715735912322998,-118.621826171875,152.130126953125,-43.853759765625
15.3299999,15.325284957885742,7.304709434509277,-8.161833763122559,-130.035400390625,106.9183349609375,-75.6683349609375
15.3499999,15.320496559143066,6.888118267059326,-9.864110946655273,-174.3011474609375,93.3837890625,-118.804931640625
15.3699999,12.88559341430664,5.4228668212890625,-11.30063247680664,-201.7364501953125,134.002685546875,-151.1993408203125
15.389999900000001,9.040505409240723,3.751713991165161,-11.793837547302246,-202.545166015625,196.83837890625,-169.98291015625
15.4099999,5.018246650695801,2.389413356781006,-11.200075149536133,-194.549560546875,257.75146484375,-179.3060302734375
15.4299999,1.9321208000183105,1.824381709098816,-9.775525093078613,-203.8421630859375,292.96875,-200.5615234375
15.4499999,0.3232172429561615,2.078166961669922,-7.630321025848389,-228.118896484375,282.4859619140625,-222.8240966796875
15.469999900000001,0.15801730751991272,3.1483752727508545,-5.243301868438721,-196.533203125,235.53466796875,-225.433349609375
15.4899999,1.1875240802764893,4.642356872558594,-3.0095114707946777,-107.0404052734375,182.403564453125,-188.0950927734375
15.5099999,2.937685489654541,6.052541732788086,-1.4915876388549805,-67.0623779296875,138.5498046875,-172.7447509765625
15.5299999,4.709394931793213,7.218518257141113,-0.9361328482627869,-89.35546875,92.6361083984375,-197.1282958984375
15.549999900000001,5.992686748504639,8.20492935180664,-1.1851298809051514,-87.95166015625,73.30322265625,-181.3812255859375
15.569999900000001,6.514622688293457,8.978256225585938,-1.8387469053268433,-42.1142578125,58.2733154296875,-126.312255859375
15.5899999,6.392518520355225,9.720458984375,-2.367865562438965,-17.852783203125,30.33447265625,-86.8988037109375
15.6099999,6.102819919586182,10.307038307189941,-2.719813108444214,-19.9432373046875,-13.36669921875,-77.20947265625
15.629999900000001,5.9304375648498535,10.558429718017578,-2.8586769104003906,-14.2364501953125,-41.015625,-76.5533447265625
15.649999900000001,5.810727596282959,10.63743782043457,-2.8586769104003906,-4.669189453125,-35.5224609375,-66.802978515625
15.6699999,5.602431774139404,10.539276123046875,-2.7293899059295654,-2.4566650390625,-22.003173828125,-56.3812255859375
15.6899999,5.233725070953369,10.247182846069336,-2.4803929328918457,-6.16455078125,-10.528564453125,-42.8924560546875
15.709999900000001,4.757278919219971,9.763554573059082,-2.1523873805999756,6.3323974609375,-8.6822509765625,-35.1715087890625
15.729999900000001,4.182670593261719,9.117119789123535,-1.8148049116134644,22.7508544921875,-8.9569091796875,-38.6810302734375
15.7499999,3.5697548389434814,8.504204750061035,-1.6519991159439087,30.8685302734375,-8.9874267578125,-38.7420654296875
15.7699999,2.9041666984558105,7.999027729034424,-1.7357962131500244,18.5546875,-7.6904296875,-36.2396240234375
15.789999900000002,2.2577321529388428,7.709329605102539,-1.9919757843017578,-0.3204345703125,-9.033203125,-34.576416015625
15.809999900000001,1.766920804977417,7.5201873779296875,-2.276885747909546,-7.568359375,-7.781982421875,-32.928466796875
15.8299999,1.4772224426269531,7.441178798675537,-2.3918075561523438,-7.1258544921875,-7.1258544921875,-28.778076171875
15.8499999,1.3934253454208374,7.47230339050293,-2.367865562438965,2.3651123046875,3.0364990234375,-20.01953125
15.869999900000002,1.534683346748352,7.630321025848389,-2.3056161403656006,5.2642822265625,5.2490234375,-7.9498291015625
15.889999900000001,1.8770540952682495,7.8960771560668945,-2.3127987384796143,-1.9989013671875,-4.5928955078125,-1.6021728515625
15.9099999,2.387019157409668,8.233659744262695,-2.382230758666992,-10.19287109375,0.8544921875,0.152587890625
15.9299999,2.978386878967285,8.59997272491455,-2.454056739807129,-8.8958740234375,19.0277099609375,1.800537109375
15.9499999,3.576937437057495,8.920795440673828,-2.454056739807129,-2.899169921875,18.0511474609375,5.523681640625
15.969999900000001,4.0533833503723145,9.191340446472168,-2.3750481605529785,0.9918212890625,0.67138671875,5.645751953125
15.9899999,4.364629745483398,9.334992408752441,-2.2888567447662354,2.9144287109375,-8.0108642578125,1.2664794921875
16.0099999,4.438849925994873,9.354146003723145,-2.2433669567108154,6.4697265625,-2.8228759765625,-2.13623046875
16.0299999,4.247313976287842,9.279925346374512,-2.2385785579681396,7.7362060546875,-0.54931640625,-2.9144287109375
16.0499999,3.8546648025512695,9.095572471618652,-2.207453966140747,3.936767578125,-9.3536376953125,-1.739501953125
16.0699999,3.361459255218506,8.875306129455566,-2.1739351749420166,5.401611328125,-10.3759765625,0.0457763671875
16.089999900000002,2.9089550971984863,8.633491516113281,-2.121262788772583,5.279541015625,-5.92041015625,-0.0152587890625
16.109999900000002,2.5953147411346436,8.449137687683105,-2.094926595687866,3.082275390625,-1.28173828125,0.8544921875
16.1299999,2.4205379486083984,8.334216117858887,-2.094926595687866,1.4495849609375,5.2337646484375,3.143310546875
16.1499999,2.389413356781006,8.310274124145508,-2.118868589401245,-2.044677734375,6.7901611328125,4.8675537109375
16.1699999,2.492363929748535,8.372523307800293,-2.2002713680267334,-3.570556640625,8.4991455078125,7.354736328125
16.1899999,2.715024709701538,8.47547435760498,-2.3080103397369385,-6.77490234375,12.298583984375,8.36181640625
16.2099999,3.028665065765381,8.616731643676758,-2.4588451385498047,-8.6669921875,14.4805908203125,10.68115234375
16.2299999,3.4093432426452637,8.75080680847168,-2.612074136734009,-9.033203125,13.97705078125,10.9100341796875
16.249999900000002,3.7852327823638916,8.848969459533691,-2.7030537128448486,-12.5274658203125,10.19287109375,6.8359375
16.269999900000002,4.048594951629639,8.925583839416504,-2.7317841053009033,-13.2598876953125,13.7481689453125,0.6866455078125
16.2899999,4.082113742828369,8.96389102935791,-2.6360161304473877,-14.6636962890625,17.2882080078125,-2.3956298828125
16.3099999,3.780444383621216,8.944737434387207,-2.4396915435791016,-15.1519775390625,18.1884765625,0.5950927734375
16.3299999,3.1244332790374756,8.815450668334961,-2.188300371170044,-13.6566162109375,15.533447265625,8.880615234375
16.3499999,2.140416383743286,8.508993148803711,-1.987187385559082,-12.298583984375,17.0135498046875,21.087646484375
16.3699999,0.811634361743927,7.879317760467529,-1.889025092124939,-16.2353515625,23.5137939453125,38.6505126953125
16.3899999,-0.6967126727104187,6.919242858886719,-2.0231003761291504,-21.6522216796875,15.2740478515625,75.0732421875
16.4099999,-2.1811177730560303,5.3797712326049805,-2.4133553504943848,-30.426025390625,-12.5732421875,132.9803466796875
16.429999900000002,-3.2154128551483154,3.339911460876465,-3.160346269607544,-40.252685546875,-49.1943359375,203.06396484375
16.4499999,-3.337517261505127,0.6847416758537292,-4.333505153656006,-47.0733642578125,-72.44873046875,264.2364501953125
16.4699999,-2.1739351749420166,-2.4420857429504395,-5.884947776794434,-56.854248046875,-67.3828125,315.5059814453125
16.4899999,0.395043283700943,-5.916072368621826,-7.709329605102539,-74.21875,-53.16162109375,349.517822265625
16.5099999,4.170699596405029,-9.368511199951172,-9.62947940826416,-95.5352783203125,-73.822021484375,361.1297607421875
16.5299999,8.810662269592285,-12.282255172729492,-11.530475616455078,-105.987548828125,-67.93212890625,376.0833740234375
16.5499999,14.010868072509766,-14.190433502197266,-12.78503704071045,-143.7835693359375,-37.1856689453125,383.1634521484375
16.5699999,19.85750961303711,-14.537592887878418,-12.607866287231445,-174.74365234375,-71.9146728515625,389.3585205078125
16.589999900000002,26.532543182373047,-13.074735641479492,-11.042057991027832,-89.569091796875,-186.6455078125,405.8837890625
16.609999900000002,34.39031219482422,-9.469067573547363,-9.354146003723145,55.7708740234375,-325.775146484375,458.587646484375
16.6299999,43.35420608520508,-3.5027170181274414,-8.987833023071289,104.4464111328125,-402.83203125,499.9847412109375
16.6499999,53.51998519897461,5.102043628692627,-9.852140426635742,50.8575439453125,-441.7266845703125,445.831298828125
16.6699999,63.04890823364258,16.53675079345703,-9.090784072875977,-34.7900390625,-446.0296630859375,184.50927734375
16.6899999,68.52204895019531,28.215667724609375,-2.255337953567505,-95.123291015625,-482.2235107421875,-162.78076171875
16.7099999,67.74393463134766,36.42298889160156,11.408370971679688,45.83740234375,-500,-303.0853271484375
16.7299999,58.88539123535156,36.973655700683594,29.111099243164062,317.626953125,-500,-317.0928955078125
16.749999900000002,42.2313232421875,27.70809555053711,43.8162841796875,462.6617431640625,-500,-284.149169921875
16.769999900000002,20.925323486328125,11.015722274780273,49.56715774536133,404.876708984375,-500,-214.90478515625
16.7899999,1.3407529592514038,-9.883264541625977,44.728477478027344,205.841064453125,-260.4522705078125,-114.166259765625
16.8099999,-13.457807540893555,-28.692113876342773,32.4174919128418,-29.1900634765625,-99.0447998046875,-90.63720703125
16.8299999,-20.635623931884766,-42.89451599121094,19.165584564208984,-223.968505859375,24.3377685546875,-157.8826904296875
16.8499999,-21.705833435058594,-48.88002014160156,8.286332130432129,-288.726806640625,136.2457275390625,-198.5931396484375
16.8699999,-19.57978057861328,-47.13704299926758,2.5450363159179688,-247.314453125,159.3780517578125,-121.52099609375
16.8899999,-16.548721313476562,-38.845924377441406,0.07422025501728058,-216.3238525390625,160.6292724609375,-38.4521484375
16.9099999,-12.665327072143555,-27.181371688842773,-1.2042834758758545,-196.2890625,179.99267578125,-13.824462890625
16.929999900000002,-7.266402244567871,-15.593435287475586,-2.3582887649536133,-200.5462646484375,187.2100830078125,-13.031005859375
16.9499999,-0.8523358106613159,-6.090848922729492,-3.7660791873931885,-195.98388671875,195.49560546875,-36.5142822265625
16.9699999,5.693411827087402,0.4668693244457245,-5.092466831207275,-189.422607421875,194.2291259765625,-70.098876953125
16.9899999,11.073183059692383,4.223371982574463,-6.098031520843506,-187.744140625,202.08740234375,-115.3564453125
17.0099999,14.286201477050781,5.853823184967041,-6.701370716094971,-194.549560546875,226.4862060546875,-162.567138671875
17.0299999,14.963760375976562,6.129156112670898,-7.115567684173584,-205.4901123046875,253.11279296875,-210.968017578125
17.0499999,13.48414421081543,5.858611583709717,-7.3885064125061035,-215.8966064453125,257.659912109375,-243.621826171875
17.0699999,10.690110206604004,5.583278179168701,-7.582436561584473,-205.38330078125,262.115478515625,-260.4522705078125
17.089999900000002,7.4986395835876465,5.525817394256592,-7.642292022705078,-179.443359375,294.7235107421875,-281.9671630859375
17.109999900000002,4.704606533050537,5.8657941818237305,-7.620744228363037,-163.4063720703125,301.9561767578125,-284.0423583984375
17.1299999,2.875436305999756,6.430825710296631,-7.343016624450684,-152.1148681640625,212.677001953125,-227.5543212890625
17.1499999,2.1763293743133545,7.151480674743652,-6.845022678375244,-132.1258544921875,109.8785400390625,-188.934326171875
17.1699999,2.298433542251587,7.836222171783447,-6.0836663246154785,-104.06494140625,99.2889404296875,-216.61376953125
17.1899999,2.920926094055176,8.44434928894043,-5.1116204261779785,-77.0721435546875,128.23486328125,-214.813232421875
17.2099999,3.466804027557373,9.02135181427002,-4.223371982574463,-41.168212890625,114.654541015625,-164.55078125
17.2299999,3.6822822093963623,9.519346237182617,-3.383007049560547,-33.0047607421875,72.9827880859375,-136.383056640625
17.249999900000002,3.7277719974517822,9.926360130310059,-2.5498247146606445,-38.2080078125,32.2113037109375,-114.2578125
17.269999900000002,3.7852327823638916,10.093954086303711,-1.9321208000183105,-0.213623046875,1.15966796875,-82.5653076171875
17.2899999,3.912125587463379,9.967061996459961,-1.656787633895874,39.1845703125,-23.5748291015625,-56.1676025390625
17.3099999,4.132391929626465,9.641449928283691,-1.8195933103561401,24.71923828125,-43.365478515625,-40.22216796875
17.3299999,4.244919776916504,9.23443603515625,-2.33913516998291,0.9002685546875,-30.5938720703125,-38.055419921875
17.3499999,4.216189384460449,8.820239067077637,-2.808398485183716,-5.859375,-15.869140625,-38.87939453125
17.3699999,4.01268196105957,8.42040729522705,-2.9712042808532715,-2.471923828125,-26.641845703125,-33.203125
17.3899999,3.648763418197632,8.097189903259277,-2.829946517944336,1.7242431640625,-30.670166015625,-36.62109375
17.409999900000003,3.1292216777801514,7.90086555480957,-2.604891538619995,-1.9989013671875,-12.664794921875,-46.7529296875
17.429999900000002,2.4875755310058594,7.848193168640137,-2.3750481605529785,-15.2740478515625,-11.8255615234375,-48.7060546875
17.4499999,1.7310078144073486,7.965508937835693,-2.1763293743133545,-16.4794921875,-14.1143798828125,-37.4755859375
17.4699999,1.015141487121582,8.17141056060791,-1.9776105880737305,-3.692626953125,2.1514892578125,-18.585205078125
17.4899999,0.5985504388809204,8.418013572692871,-1.824381709098816,4.5318603515625,7.3699951171875,-2.5634765625
17.5099999,0.6057330369949341,8.695740699768066,-1.7884687185287476,0.6103515625,-6.317138671875,6.2103271484375
17.5299999,1.094150185585022,8.927978515625,-1.9345149993896484,-1.556396484375,-16.5252685546875,11.3372802734375
17.5499999,1.9273324012756348,9.105149269104004,-2.207453966140747,2.3345947265625,-14.434814453125,13.5040283203125
17.5699999,2.8203697204589844,9.193734169006348,-2.4684219360351562,0.640869140625,-3.8909912109375,10.6048583984375
17.589999900000002,3.552995204925537,9.227252960205078,-2.6024973392486572,-2.3956298828125,0.640869140625,7.6751708984375
17.609999900000002,3.998316764831543,9.188945770263672,-2.537853717803955,-0.823974609375,-4.7454833984375,8.1024169921875
17.6299999,4.101267337799072,9.117119789123535,-2.279279947280884,0.457763671875,-6.77490234375,4.669189453125
17.6499999,3.909731388092041,9.042900085449219,-1.946485996246338,3.173828125,-2.7923583984375,-0.9307861328125
17.6699999,3.514688014984131,8.968679428100586,-1.623268723487854,3.509521484375,-2.3651123046875,-0.885009765625
17.6899999,3.028665065765381,8.932766914367676,-1.4173674583435059,3.4027099609375,-3.96728515625,2.38037109375
17.7099999,2.5761611461639404,8.918401718139648,-1.3335703611373901,2.2430419921875,-3.4637451171875,5.5389404296875
17.7299999,2.3104045391082764,8.9064302444458,-1.3766659498214722,1.77001953125,-3.082275390625,6.7138671875
17.749999900000002,2.2816741466522217,8.889671325683594,-1.522712230682373,1.617431640625,0.2593994140625,9.1400146484375
17.769999900000002,2.4851813316345215,8.863334655761719,-1.7262194156646729,0.0457763671875,2.01416015625,11.932373046875
17.7899999,2.849100112915039,8.875306129455566,-1.9823989868164062,0.5950927734375,0.640869140625,12.4053955078125
17.8099999,3.2585084438323975,8.927978515625,-2.212242364883423,1.15966796875,3.2806396484375,11.199951171875
17.8299999,3.584120035171509,9.038111686706543,-2.410961151123047,1.1749267578125,7.99560546875,6.5765380859375
17.8499999,3.7684733867645264,9.150638580322266,-2.4851813316345215,-2.0599365234375,7.415771484375,3.875732421875
17.8699999,3.7924153804779053,9.258378028869629,-2.473210334777832,-1.0223388671875,5.0201416015625,5.584716796875
17.8899999,3.7253777980804443,9.313444137573242,-2.360682964324951,2.62451171875,4.8828125,6.683349609375
17.909999900000003,3.624821424484253,9.294290542602539,-2.188300371170044,1.9378662109375,7.8887939453125,4.364013671875
17.929999900000002,3.5170822143554688,9.205705642700195,-1.9823989868164062,-0.1373291015625,9.9639892578125,0.152587890625
17.9499999,3.3877954483032227,9.026140213012695,-1.764526605606079,-1.2054443359375,6.103515625,-1.8310546875
17.9699999,3.2154128551483154,8.774748802185059,-1.6041151285171509,1.8310546875,3.8909912109375,1.1138916015625
17.9899999,2.964021682739258,8.458714485168457,-1.5705963373184204,2.471923828125,6.103515625,6.40869140625
18.0099999,2.626439332962036,8.092401504516602,-1.7334020137786865,-1.3885498046875,4.5928955078125,16.0675048828125
18.0299999,2.1523873805999756,7.644686222076416,-2.0638017654418945,-10.31494140625,4.6539306640625,26.8707275390625
18.0499999,1.4652514457702637,7.070077419281006,-2.52109432220459,-20.751953125,10.25390625,38.57421875
18.0699999,0.5291185975074768,6.268020153045654,-3.004723072052002,-32.16552734375,5.06591796875,62.530517578125
18.089999900000002,-0.5195417404174805,5.219359874725342,-3.509899616241455,-42.572021484375,-12.3748779296875,106.0028076171875
18.109999900000002,-1.4293384552001953,3.8762125968933105,-4.055777549743652,-53.64990234375,-27.9388427734375,159.2864990234375
18.1299999,-1.7286136150360107,2.2457611560821533,-4.797980308532715,-65.6280517578125,-45.654296875,217.2698974609375
18.1499999,-1.0749965906143188,0.24181437492370605,-5.810727596282959,-78.91845703125,-72.5860595703125,267.8680419921875
18.1699999,0.667982280254364,-1.9967641830444336,-7.216124057769775,-88.9739990234375,-92.10205078125,305.11474609375
18.1899999,3.4380736351013184,-4.323928356170654,-8.829815864562988,-102.2186279296875,-95.428466796875,334.3353271484375
18.2099999,6.907271862030029,-6.253654956817627,-10.338163375854492,-105.46875,-65.2313232421875,368.7591552734375
18.2299999,10.800244331359863,-7.479485988616943,-11.125855445861816,-115.020751953125,-22.430419921875,400.1312255859375
18.249999900000002,15.133749008178711,-7.795520782470703,-10.759542465209961,-130.4779052734375,-43.1365966796875,402.8472900390625
18.269999900000002,19.843143463134766,-7.017405033111572,-9.162610054016113,-127.3040771484375,-132.4462890625,400.87890625
18.2899999,25.1367244720459,-4.9368438720703125,-6.878541469573975,-78.3538818359375,-232.4676513671875,414.3218994140625
18.3099999,31.304187774658203,-1.6735470294952393,-4.797980308532715,-11.4288330078125,-314.88037109375,411.590576171875
18.3299999,38.304832458496094,2.719813108444214,-3.9863457679748535,58.0291748046875,-407.958984375,359.619140625
18.3499999,45.597572326660156,8.212111473083496,-4.359841346740723,108.33740234375,-475.341796875,269.0582275390625
18.3699999,51.71954345703125,14.846445083618164,-3.971980571746826,78.9031982421875,-442.9473876953125,101.86767578125
18.3899999,54.39865493774414,21.784841537475586,0.21308395266532898,-4.5013427734375,-454.620361328125,-115.478515625
18.409999900000003,52.61497497558594,27.732038497924805,9.162610054016113,61.614990234375,-500,-241.9891357421875
18.429999900000002,45.71967697143555,29.757532119750977,22.268470764160156,249.93896484375,-500,-318.878173828125
18.4499999,34.89548873901367,25.143905639648438,34.99125671386719,405.731201171875,-500,-351.531982421875
18.4699999,21.298818588256836,13.48414421081543,41.78121566772461,495.4986572265625,-500,-317.7032470703125
18.4899999,7.105990409851074,-2.454056739807129,39.93049621582031,387.2833251953125,-313.96484375,-229.6600341796875
18.5099999,-4.314351558685303,-20.317195892333984,30.490158081054688,125.0152587890625,-86.944580078125,-137.1612548828125
18.5299999,-11.492168426513672,-34.7590217590332,17.55428695678711,-106.3690185546875,-46.4935302734375,-133.331298828125
18.5499999,-13.927071571350098,-44.23527145385742,6.871358871459961,-243.804931640625,55.4656982421875,-171.0662841796875
18.5699999,-13.297396659851074,-46.55525207519531,0.5578489899635315,-234.1766357421875,110.3363037109375,-140.0146484375
18.589999900000002,-11.710040092468262,-42.6766471862793,-1.4077905416488647,-134.8419189453125,127.166748046875,-53.3294677734375
18.609999900000002,-9.952696800231934,-33.9665412902832,-1.5155296325683594,-118.22509765625,123.3367919921875,24.7650146484375
18.6299999,-7.266402244567871,-23.38895606994629,-2.0446481704711914,-131.683349609375,151.18408203125,39.031982421875
18.6499999,-3.047818660736084,-13.340492248535156,-3.4165258407592773,-144.83642578125,166.6259765625,31.67724609375
18.6699999,2.3750481605529785,-5.310339450836182,-5.202600479125977,-141.0064697265625,174.4384765625,25.238037109375
18.6899999,8.056488990783691,0.2561795711517334,-6.813898086547852,-122.2076416015625,163.5284423828125,3.5552978515625
18.7099999,12.938265800476074,3.3901896476745605,-8.070854187011719,-109.375,115.78369140625,-24.8260498046875
18.7299999,16.081851959228516,4.462791919708252,-8.995016098022461,-134.3231201171875,70.73974609375,-66.83349609375
18.749999900000002,16.991649627685547,4.180276393890381,-9.548076629638672,-172.5921630859375,67.352294921875,-119.32373046875
18.769999900000002,15.693992614746094,3.2130186557769775,-9.792284965515137,-179.7027587890625,96.25244140625,-159.5611572265625
18.7899999,12.811373710632324,2.3080103397369385,-9.727641105651855,-168.8385009765625,107.5592041015625,-171.6766357421875
18.8099999,9.279925346374512,1.7046716213226318,-9.531316757202148,-176.69677734375,103.3782958984375,-177.2308349609375
18.8299999,6.0405707359313965,1.5131354331970215,-9.411606788635254,-199.21875,103.6224365234375,-198.944091796875
18.8499999,3.5410242080688477,1.6735470294952393,-9.296685218811035,-215.9576416015625,135.6353759765625,-227.5543212890625
18.8699999,1.9153614044189453,2.145204782485962,-8.887276649475098,-210.113525390625,184.112548828125,-228.546142578125
18.8899999,1.1324573755264282,2.9017724990844727,-8.034940719604492,-175.567626953125,177.093505859375,-214.9810791015625
18.909999900000003,1.158793568611145,3.737348794937134,-6.979097843170166,-142.2119140625,128.173828125,-212.8753662109375
18.929999900000002,1.821987509727478,4.565742492675781,-5.810727596282959,-141.6473388671875,70.7855224609375,-224.4110107421875
18.9499999,2.7102363109588623,5.403713226318359,-4.989516258239746,-117.3553466796875,83.92333984375,-228.1341552734375
18.9699999,3.2968156337738037,6.323086738586426,-4.467580318450928,-88.6383056640625,119.293212890625,-202.8961181640625
18.9899999,3.3279404640197754,7.491456985473633,-4.247313976287842,-76.1871337890625,87.127685546875,-155.1666259765625
19.0099999,3.0550012588500977,8.767566680908203,-4.23773717880249,-59.75341796875,25.08544921875,-113.494873046875
19.0299999,2.8586769104003906,9.883264541625977,-4.230554580688477,-42.5567626953125,14.70947265625,-91.9036865234375
19.0499999,3.021482467651367,10.5344877243042,-4.125209331512451,-22.0794677734375,41.7938232421875,-87.554931640625
19.0699999,3.4596214294433594,10.611102104187012,-3.8546648025512695,-5.3863525390625,38.1927490234375,-81.1004638671875
19.089999900000002,3.9001545906066895,10.199298858642578,-3.4380736351013184,-8.9874267578125,-4.2724609375,-66.8792724609375
19.109999900000002,4.122815132141113,9.440337181091309,-2.920926094055176,-20.6146240234375,-28.7628173828125,-55.8013916015625
19.1299999,4.022258758544922,8.544905662536621,-2.3726539611816406,-18.7225341796875,-21.66748046875,-49.6673583984375
19.1499999,3.6391866207122803,7.659051418304443,-1.920149803161621,-3.692626953125,-13.427734375,-40.557861328125
19.1699999,3.0119056701660156,6.962338447570801,-1.5753847360610962,2.471923828125,-21.4691162109375,-29.7088623046875
19.1899999,2.183511972427368,6.528987884521484,-1.414973258972168,-5.2490234375,-26.0162353515625,-25.6805419921875
19.2099999,1.3120225667953491,6.490680694580078,-1.4437036514282227,-5.889892578125,-20.0042724609375,-18.646240234375
19.2299999,0.49799394607543945,6.847416877746582,-1.6208745241165161,-0.152587890625,-14.862060546875,-1.6632080078125
19.249999900000002,-0.019153613597154617,7.515398979187012,-1.9512743949890137,4.69970703125,-19.1650390625,22.5067138671875
19.269999900000002,-0.016759412363171577,8.346187591552734,-2.4372973442077637,3.3111572265625,-24.1241455078125,36.163330078125
19.2899999,0.5554547905921936,9.165003776550293,-2.9544448852539062,-4.1046142578125,-18.890380859375,31.4483642578125
19.3099999,1.5705963373184204,9.806650161743164,-3.40216064453125,-7.9193115234375,-2.1209716796875,22.5982666015625
19.3299999,2.7269957065582275,10.177751541137695,-3.5865142345428467,-8.636474609375,-2.410888671875,20.5230712890625
19.3499999,3.7612907886505127,10.256759643554688,-3.5434184074401855,0.3204345703125,-14.7857666015625,19.1192626953125
19.3699999,4.491522312164307,10.029311180114746,-3.337517261505127,8.4228515625,-19.4854736328125,7.720947265625
19.3899999,4.800374507904053,9.670180320739746,-3.07415509223938,8.23974609375,-14.892578125,-7.5225830078125
19.409999900000003,4.642356872558594,9.260771751403809,-2.8586769104003906,8.7432861328125,-11.8865966796875,-13.5040283203125
19.429999900000002,4.07014274597168,8.904036521911621,-2.693476915359497,7.6904296875,-16.66259765625,-8.8043212890625
19.4499999,3.248931646347046,8.611943244934082,-2.5905263423919678,7.01904296875,-16.357421875,-0.732421875
19.4699999,2.410961151123047,8.329427719116211,-2.559401512145996,6.011962890625,-7.965087890625,3.0059814453125
19.4899999,1.7142484188079834,8.018181800842285,-2.6168625354766846,0.9918212890625,-1.861572265625,4.730224609375
19.5099999,1.192312479019165,7.69735860824585,-2.7772738933563232,-3.3416748046875,3.2501220703125,9.3994140625
19.5299999,0.8355764150619507,7.331045627593994,-2.9688100814819336,-12.786865234375,6.7596435546875,20.3399658203125
19.5499999,0.569819986820221,6.9024834632873535,-3.1962592601776123,-21.820068359375,14.739990234375,32.989501953125
19.5699999,0.33758243918418884,6.347028732299805,-3.3734302520751953,-31.005859375,27.4810791015625,44.525146484375
19.589999900000002,0.08858546614646912,5.602431774139404,-3.5266590118408203,-40.802001953125,32.0281982421875,62.56103515625
19.609999900000002,-0.1364694982767105,4.637568473815918,-3.77565598487854,-45.8831787109375,24.71923828125,93.4295654296875
19.6299999,-0.28969839215278625,3.509899616241455,-4.2329487800598145,-53.7872314453125,17.88330078125,122.802734375
19.6499999,-0.23702596127986908,2.255337953567505,-4.955997467041016,-71.2738037109375,19.378662109375,150.543212890625
19.6699999,0.12689268589019775,0.9576807022094727,-5.872976779937744,-91.9952392578125,30.5938720703125,181.21337890625
19.6899999,0.7637503147125244,-0.24420857429504395,-6.873753070831299,-104.91943359375,43.3502197265625,218.597412109375
19.7099999,1.6879122257232666,-1.3503297567367554,-7.750030994415283,-125.1220703125,32.5469970703125,264.251708984375
19.7299999,3.064578056335449,-2.248155355453491,-8.377311706542969,-145.3704833984375,-1.617431640625,321.8536376953125
19.749999900000002,5.157110691070557,-3.023876667022705,-8.736441612243652,-154.266357421875,-31.7230224609375,390.1824951171875
19.769999900000002,8.848969459533691,-3.2561142444610596,-8.810662269592285,-140.93017578125,-115.2801513671875,477.9205322265625
19.7899999,15.33965015411377,-2.604891538619995,-8.916007041931152,-57.7239990234375,-257.965087890625,499.9847412109375
19.8099999,24.811111450195312,-0.33997663855552673,-9.375694274902344,55.1300048828125,-361.75537109375,499.9847412109375
19.8299999,35.9465446472168,3.4356794357299805,-10.433931350708008,131.9732666015625,-448.66943359375,467.3309326171875
19.8499999,46.035709381103516,9.138668060302734,-10.943896293640137,122.13134765625,-500,321.685791015625
19.8699999,52.95256042480469,15.241488456726074,-8.753201484680176,27.7252197265625,-500,214.29443359375
19.8899999,55.77053451538086,20.518308639526367,-3.050212860107422,25.2227783203125,-500,66.8182373046875
19.909999900000003,54.55906677246094,23.31713104248047,6.287173748016357,152.3284912109375,-500,-123.2452392578125
19.929999900000002,50.28541946411133,22.0601749420166,18.071434020996094,183.2427978515625,-500,-261.4593505859375
19.9499999,42.04936599731445,16.22311019897461,28.38086700439453,232.5439453125,-500,-315.7806396484375
19.9699999,29.82696533203125,6.200982570648193,34.770992279052734,317.1844482421875,-500,-275.45166015625
19.9899999,14.870387077331543,-6.847416877746582,35.106178283691406,284.8358154296875,-360.0616455078125,-230.8807373046875
20.0099999,0.035913024097681046,-20.532672882080078,28.546066284179688,130.126953125,-110.2447509765625,-182.4951171875
20.0299999,-12.040440559387207,-32.62578582763672,18.387468338012695,-87.646484375,19.34814453125,-130.096435546875
20.0499999,-19.474435806274414,-40.40454864501953,8.04691219329834,-236.75537109375,116.27197265625,-123.6724853515625
20.0699999,-22.816741943359375,-42.59284973144531,1.070208191871643,-273.5748291015625,174.0264892578125,-88.9739990234375
20.089999900000002,-22.524648666381836,-39.288848876953125,-1.659181833267212,-236.297607421875,186.370849609375,3.0059814453125
20.109999900000002,-19.390640258789062,-31.66331672668457,-1.86508309841156,-165.4815673828125,209.04541015625,73.455810546875
20.1299999,-13.603854179382324,-21.973983764648438,-1.4269442558288574,-154.6630859375,239.2730712890625,80.1239013671875
20.1499999,-5.451597213745117,-12.236764907836914,-1.8483237028121948,-164.0625,238.7542724609375,64.910888671875
20.1699999,3.914519786834717,-4.1180267333984375,-3.069366693496704,-170.654296875,207.5347900390625,42.6025390625
20.1899999,12.876016616821289,1.680729627609253,-4.594472885131836,-181.2896728515625,157.89794921875,-0.30517578125
20.2099999,19.519926071166992,5.135562419891357,-6.064512729644775,-179.4586181640625,145.0042724609375,-74.4781494140625
20.2299999,22.53662109375,6.718130111694336,-7.386112213134766,-167.8619384765625,150.08544921875,-133.7127685546875
20.249999900000002,21.70343780517578,7.038952827453613,-8.583212852478027,-177.1240234375,117.85888671875,-160.1104736328125
20.269999900000002,17.956512451171875,6.682217121124268,-9.660603523254395,-192.7642822265625,92.6361083984375,-180.48095703125
20.2899999,12.916718482971191,5.959167957305908,-10.465055465698242,-200.4852294921875,124.481201171875,-213.8214111328125
20.3099999,8.118738174438477,5.17626428604126,-10.757147789001465,-196.807861328125,160.9954833984375,-244.68994140625
