# Time (seconds),Accel_X,Accel_Y,Accel_Z,Gyro_X,Gyro_Y,Gyro_Z
0.0012499,8.84919019462714,-1.3259959191841189,2.9140489240292315,19.75707072946022,-33.233103678488725,-0.4922435490831609
0.0112499,8.782853954255454,-1.4107718777343463,2.782039664577381,15.02806707031566,-32.83582811816253,1.1157328136094389
0.0212499,8.682990040109363,-1.5969220967534874,2.610405498891045,10.083937488893154,-32.461813697130786,3.475980208610323
0.0312498999999999,8.59047019919763,-1.7469287018855217,2.315872720655426,4.798675161322245,-32.10073547928481,6.012303959659152
0.0412499,8.514144663143568,-1.8877375421777352,2.0794418550159874,-0.3915100974236314,-32.145311563577785,8.40688491214338
0.0512499,8.488943502424728,-2.081701273232314,1.9719240501275168,-5.761808086542899,-31.974160024215273,10.537665620865457
0.0612498999999999,8.44547832663552,-2.233196365553962,1.868196213063076,-10.77458539554333,-31.234554247830687,11.884095504955528
0.0712499,8.40375929152089,-2.3292235453425016,1.8528963073343763,-14.41918875835658,-30.355410359266195,12.32814880190816
0.0812499,8.422165340905535,-2.4612553857795256,1.9358644628310828,-16.09484684211007,-29.267919224332033,12.235141317481997
0.0912499,8.35429589688192,-2.6162967284977285,1.9087977978610693,-16.386255304122255,-27.937416673911045,11.793124316150502
0.1012499,8.174211385739964,-2.784445866042688,1.700605605381291,-15.968119711196664,-26.42136244406367,11.316497796839835
0.1112499,8.05389211776345,-2.953220845657446,1.554611320190719,-14.679667546725026,-24.957029364219714,10.638092810209791
0.1212499,8.047403362256937,-3.038664471959983,1.5076482022869393,-12.913222514747627,-23.161660923503703,9.592278392697068
0.1312499,7.968350117697993,-3.0625436015452756,1.385118329973098,-11.395248909742108,-20.80470136616203,8.421178857079857
0.1412499,7.863091145944525,-3.1325014698040716,1.283034687255354,-9.352300842167162,-18.208847160909073,7.128280167059908
0.1512499,7.821209129085118,-3.225379095647192,1.2161322736042928,-7.040318411480321,-15.038241049173436,5.767551416611224
0.1612499,7.771333609436665,-3.3213155170457194,1.0450787445783718,-5.052682107948074,-11.636403310799283,4.812344199856165
0.1712499,7.7878030835121965,-3.3946763063249685,0.8598480203135568,-3.6649452997369774,-7.712049874678705,4.38283458485318
0.1812499,7.884361774510079,-3.447513378889026,0.8505459032402639,-2.881079290231485,-3.1732934777380946,4.334942351546263
0.1912499,7.943048531907722,-3.592384916328537,0.9648862323400009,-1.9140438730976383,1.9349324851109826,4.7553017798758255
0.2012499,7.966882300765919,-3.7850160021385086,1.0476347418605005,-0.7590015408721827,7.780366470771384,6.2947865525843785
0.2112499,8.150755810452088,-3.9529356837280005,1.0815811049316142,1.1367764196217731,13.96933444283573,9.238724602733896
0.2212499,8.564880054068938,-4.07407846413934,1.136254124005109,4.093714011621697,20.201173724214584,13.526203486387438
0.2312499,8.966842784995695,-4.099302511245211,1.2732193586294347,7.117395041173025,26.717901419867488,18.769284164265375
0.2412499,9.197156741102349,-3.9836759239437445,1.4690824865271233,9.800489415596118,33.16430788509241,24.083114686035124
0.2512499,9.290949365948373,-3.8427270541977014,1.6016142356746892,12.647319943328373,38.91463172503144,28.78846300989249
0.2612499,9.343550262234,-3.8242216472884727,1.6117851007179753,15.091597759527863,43.89088621829705,32.95661104606646
0.2712499,9.298245510951762,-3.9634168629376423,1.5072165709133543,16.9620805102523,46.84751944094464,37.33977853131443
0.2812499,9.157892113076244,-4.131893889807957,1.40525024931217,18.558890809120143,47.37791184846521,41.483550614694266
0.2912499,9.114536444645069,-4.103297872600512,1.2915286592394177,18.825323588692246,46.65926794243282,44.44158799635592
0.3012499,9.124479637933105,-4.004203431400414,1.2086801641981293,17.47767747969304,44.5022249744206,46.49756191081978
0.3112499,9.244240279819444,-4.060916144975973,1.4186187983156608,15.075162620872408,42.207826702341,47.89840791824895
0.3212499,9.371805976081149,-4.126575117752744,1.8275439916747684,11.507526696424126,39.27626114256955,48.44406897389435
0.3312499,9.331563006450892,-4.1901115864946625,2.0756759446942032,7.616043958456468,36.60949963210596,48.25367228998491
0.3412499,9.231601770204872,-4.246774194635135,2.2621915143406097,3.6520977069616105,34.02939087774371,47.16321489646771
0.3512499,9.163754834625845,-4.387439511748089,2.5884142736770697,-0.7102833371950564,30.583508014629498,46.17759182853879
0.3612499,9.124307854013702,-4.6243908520682275,3.024996867128488,-4.5819331475288765,27.63462739061498,45.68465679535172
0.3712499,8.970350583407555,-4.7383479133917294,3.30239422103809,-8.15844143393076,25.710656732965223,45.03302849570302
0.3812499,8.78908264107728,-4.835105370658636,3.3626184411749214,-11.197330770524466,23.334475522323448,44.20811923199206
0.3912499,8.747459473776823,-4.99502461171731,3.383627644600145,-13.417039158886071,20.125840486727103,42.86001650191399
0.4012499,8.819265590453561,-5.166690242561999,3.403863343725872,-15.905787405834076,16.74303305693717,41.223691574501885
0.4112499,8.956949756250138,-5.388800133452149,3.381392676613279,-18.143882995886663,12.767351355091188,39.23424461321328
0.4212499,9.078605242380261,-5.534592839221132,3.326336874548751,-20.121614616962766,8.533306795773118,36.25390561055933
0.4312499,9.118856116958906,-5.591558310461722,3.1988155732933117,-22.001160668972698,4.164274190991751,32.06914846065921
0.4412499,9.21117576472827,-5.648541909630856,3.0348655319542583,-23.578533667204905,-0.04744150505223989,26.95978733941674
0.4512499,9.357999341848737,-5.749920958586289,2.891587501077541,-23.823804912191672,-3.859489602692903,21.382372915791304
0.4612499,9.473412719786868,-5.902390636041127,2.706917484208815,-22.899770505907377,-7.3775022608491065,15.764522451425147
0.4712499,9.607611415534345,-6.019349488040227,2.4757822284787925,-21.31450698515262,-10.531652552504388,10.291363039920695
0.4812499,9.782176246037631,-6.065220382643829,2.305152303635129,-18.907827996077653,-13.122269471515974,5.550116591327993
0.4912499,9.899487096703398,-6.104708552764557,2.1585578591116286,-16.252705653076116,-14.891012535001455,1.7040987181997802
0.5012499,9.85891965312883,-6.145076739457901,2.0043101156056573,-13.686965565784572,-16.497353342050616,-1.9252649706374902
0.5112499,9.780698192240203,-6.077357527323808,1.9787453258529901,-11.04190500331167,-17.957596844559326,-5.5077857528653
0.5212499,9.74053946456747,-5.944404427599002,2.044010251756527,-8.220832588140302,-18.79700971384387,-9.234731528169425
0.5312499,9.601711702098118,-5.869959777691774,2.0252557499447676,-5.571228776595588,-19.6653061449743,-12.930344774585222
0.5412499000000001,9.346895779706344,-5.826023528857452,1.888476456925141,-2.9709069860949544,-21.487072025032425,-16.081409191312336
0.5512499000000001,9.164285479297536,-5.705722663480393,1.7941954491388503,-0.3038756430876856,-23.797209616179657,-18.77993019142221
0.5612499000000001,9.049495590721005,-5.536716904626393,1.7994242129195621,1.4522815989828146,-25.52848835327753,-20.992199285503716
0.5712499000000001,8.854381541651694,-5.344450189752008,1.7491184113299822,1.6212700013379095,-26.695488570410152,-22.688265025065956
0.5812499,8.69994368607849,-5.093187507789945,1.621851834221475,-0.2679758628650072,-27.55612729026189,-24.110604661880068
0.5912499,8.702038254045293,-4.878100649502843,1.589029241822057,-3.817129226148905,-27.628392917710144,-25.35240887020239
0.6012499,8.649304809401707,-4.6929954345744544,1.664857435505773,-7.359840787259016,-27.009866270591893,-26.33817729753512
0.6112499,8.457162596529484,-4.515323750132243,1.7810872401345836,-9.82858269548025,-26.255552305250742,-27.589176322455245
0.6212499,8.340301110092238,-4.4391164637979115,1.8773398767603011,-11.087436455028973,-25.578880694310488,-28.740248971660172
0.6312499,8.267676090448576,-4.438008587614781,1.9109406017933965,-11.212924037969145,-24.870583776000473,-28.99269685176038
0.6412499,8.072618048801134,-4.441718535516762,1.8999252555538984,-9.18553691678363,-24.378103461603203,-28.69516968831828
0.6512499,7.902150068717023,-4.415266245459949,1.8061830471423967,-5.952877651778685,-23.84975188991998,-28.221608231423165
0.6612499000000001,7.796222570464173,-4.4045095754216295,1.7030566839278152,-3.36339163337407,-23.279180085671445,-27.40258220728215
0.6712499000000001,7.646991143006686,-4.411907440537015,1.658538824545233,-1.668102714852043,-22.730586422564652,-26.364249527144
0.6812499000000001,7.555292233985276,-4.274824758768273,1.5667554807091064,-1.0037423412492832,-21.79203774754483,-25.850159149498502
0.6912499000000001,7.5796542305750485,-4.0016594862452015,1.4796422394735491,-1.2989011459630964,-20.83996059406492,-26.289082163868127
0.7012499000000001,7.5988139727847965,-3.858757437429214,1.5063100595134726,-1.598031909675601,-19.866578119896534,-26.730198876120454
0.7112499,7.524636106198868,-3.9382865215397644,1.5602022904552881,-0.8374734887430505,-18.187328113411965,-26.319968682571947
0.7212499,7.400368129689049,-4.011492573572518,1.5277309505881749,0.9148470545986008,-16.331805494582557,-24.94680072338109
0.7312499,7.37381811788748,-3.930136231323048,1.4177189159805046,2.7161474649990254,-14.488409250293016,-22.710959566616488
0.7412499,7.361488802305299,-3.804862556258973,1.2300278354687202,4.45599925535877,-12.599991246920833,-19.80833051092893
0.7512499,7.189614145133517,-3.698476452128489,0.9687043871846195,5.9713952757987885,-10.922687592692892,-16.467878184210385
0.7612499,7.004983815752647,-3.5616474056016374,0.759569910737451,6.4476233764653275,-9.180802627609408,-12.913506115355542
0.7712499,6.860323127456998,-3.425744372710683,0.6055867094433434,6.281095891933921,-6.86996679020087,-9.546503849895918
0.7812499,6.657127359591171,-3.3011541173149657,0.3257380477511478,5.718303437773203,-4.486386352069019,-6.510086013660039
0.7912499000000001,6.557469173879024,-3.180016475629502,0.09173684937206981,6.250069496180751,-2.052823437082893,-4.067525290710298
0.8012499000000001,6.6776506262086075,-3.1626344580226444,0.16648304406018016,9.900168580875125,0.9159237591577479,-1.8989730104703755
0.8112499000000001,6.969755955142986,-3.450542430076887,0.26313364364136327,14.96396311997711,5.216097570950191,1.825087465451242
0.8212499000000001,7.3607827234454595,-4.012054123655397,0.5069498698289816,19.888629501181292,11.164714318274218,8.277253379392427
0.8312499000000001,7.750211624359842,-4.206639900890761,1.0127161731339183,24.78917917681672,17.405768430272367,15.218628849587311
0.8412499,8.118130969333842,-3.8216382724444276,1.224515282732684,26.6738079993612,25.28533686915273,19.644824872345033
0.8512499,8.445477084498947,-3.4175433186723643,1.269152085047562,26.531886482373338,31.55708493652856,20.23097881705424
0.8612499,8.680333613252456,-3.403676663567986,1.5311740911650817,26.2827915507365,34.97892288131842,19.21889083643025
0.8712499,8.849599401920049,-3.605538192591354,1.716861399501811,25.565702371232128,37.46707297640588,17.382874918864534
0.8812499,9.07190262774379,-3.7512950857632483,1.5425868725467238,24.843335318022426,38.112968609208025,14.317116786099684
0.8912499,9.54770858440486,-3.8562144140936248,1.4112043578110613,24.772652161048914,36.66996299710193,11.071017424693993
0.9012499,10.066637755617752,-4.048872385312549,1.691536651888675,24.529138669631994,35.008679718739394,8.643716064096449
0.9112499,10.411642192063244,-4.184794948121585,2.2555875372800234,24.899194016838003,33.56624454059662,6.762130676547361
0.9212499,10.7169666717727,-4.1317172161125955,2.7282716208332256,26.52922602539185,31.859394135541454,4.606353310985766
0.9312499,11.008089836887185,-3.9870831136612543,3.00796325272972,29.909135140742045,29.214111250337755,1.5331493510053957
0.9412499,11.115396873971068,-3.89947044013627,3.2371786140983767,33.514609308900575,25.413854392118992,-1.9094676330021527
0.9512499,11.012279340390128,-3.832828093608056,3.494453830444759,36.33786895234469,20.67650030844817,-5.208790257590166
0.9612499,10.857211611444898,-3.714764428877816,3.684646105779553,37.79513361434249,15.380038292399657,-8.548280481828996
0.9712499,10.59719564855562,-3.5908498082848848,3.77941014519662,37.3987746800993,9.75868194857154,-11.943967868312697
0.9812499,10.27414464922706,-3.438888975267629,3.779758757534153,35.69907033676124,3.7677247772708897,-15.087549482744937
0.9912499,10.007708830710726,-3.340586587707912,3.7173427931168015,32.319342039096384,-2.129874205116081,-17.847100255610407
1.0012499,9.710030847446559,-3.3183149239586758,3.71504598763489,27.641467188455135,-7.671508718768668,-19.70193219155033
1.0112499,9.409548504617977,-3.2348852233480248,3.741847015912441,22.381848713956085,-12.467829309275247,-20.67616177738036
1.0212499,9.180442313441493,-3.0864667894982882,3.7038749063621546,16.836115822633033,-15.879470223983168,-21.333644594206334
1.0312499,8.966899022756218,-2.9960992078526294,3.687472767309337,11.984667778345367,-18.28173359330425,-21.66784137396169
1.0412499,8.750069778048069,-3.072181872072963,3.711820212595088,8.137276838717922,-19.46128577287168,-21.028778234034835
1.0512499,8.574851906633455,-3.1411746493537627,3.6939419535910694,5.096030528958144,-19.451273153718475,-19.282692740872484
1.0612499,8.456023554221487,-3.0893935597766453,3.6497077136626297,3.4038342030736035,-18.734676419204686,-17.013763662220878
1.0712499,8.304986213767618,-3.0715202238473593,3.521257070712473,3.2087100091840313,-17.854450551881197,-14.659201084896226
1.0812499,8.12464944632925,-3.1273771212997628,3.350657273275601,3.206900128323502,-16.927838564532458,-12.307521076680933
1.0912499,8.041852510588408,-3.082439565039285,3.3064635488322804,2.915952713572124,-15.783084885612805,-10.276689850242695
1.1012499,8.035031785394711,-3.002975668377811,3.3273654174129907,2.5145479115585916,-13.921091150026033,-8.87792558292897
1.1112499,8.004089265179301,-3.0536808383079195,3.311300103288782,1.6927945566048526,-11.758198713683102,-7.662576678202965
1.1212499,8.019804941781413,-3.0325255511333116,3.3021515007740088,0.08343058634717465,-9.188479793215201,-6.7327599866581185
1.1312499,8.098894300002742,-2.9044051094772185,3.3684677870925603,-1.9932595376785827,-6.468424794013427,-6.29779926903646
1.1412499,8.194232483976482,-2.877780499966665,3.4937512635252,-4.167095441878903,-3.577930953395909,-5.818086327410541
1.1512499,8.265327769924577,-2.8675635476335763,3.557244449386395,-6.6308076035457475,-0.3704899887027542,-5.163022189930662
1.1612498999999998,8.268642809606748,-2.75629347938412,3.569836784893038,-9.005958440799109,2.2414123924188,-4.7011471850394
1.1712498999999998,8.278420487152385,-2.702663783230192,3.5733987657320845,-11.038461397438542,3.874138908576262,-4.242583378039775
1.1812499,8.333405214905465,-2.7384265600924125,3.540408066336493,-12.536445473175021,5.225388908202242,-3.820789232432345
1.1912499,8.440857435844304,-2.7908115966358,3.4235771833283795,-13.38731300794045,6.272682069843267,-3.366236746024362
1.2012499,8.610361179531544,-2.8364232558772713,3.262818048885893,-13.631843493353072,6.672662706852434,-2.318483512427628
1.2112499,8.716201408582414,-2.9267492570765374,3.1811334841286154,-13.707921365499761,6.777844237472816,-0.2228878365534129
1.2212499,8.771540239699673,-3.0121236661609996,3.1434985077221542,-12.90082116380554,6.464940424240133,2.4298008852951005
1.2312499,8.977614525359813,-3.091702439913233,3.0875305461017395,-9.919106848379785,5.50172352197972,5.326269998479848
1.2412499,9.24408896860387,-3.2748068835842856,3.171292422580641,-5.722627406959916,4.341654301065892,8.861801857161522
1.2512499,9.336329245403798,-3.4542101362687196,3.3853031031880985,-2.33564154093326,3.4850380829768537,12.522306230831518
1.2612499,9.356963314778046,-3.271715532975189,3.449240262977996,-1.6196694013450164,2.7444097531692955,14.430653731541838
1.2712499,9.319772216344003,-2.821470966427052,3.376190417858204,-6.3969509456021925,2.1422483230864136,13.219422396949685
1.2812499,9.133888574905448,-2.5414908317834803,3.279473813766021,-15.257850737113028,1.5975805868464052,9.689954927262983
1.2912499,8.97564668423411,-2.4856621824651715,3.118124892279813,-25.757340196444275,1.6841653089296211,5.503242790969596
1.3012499,8.813216623021527,-2.4405451521604515,2.935770614559959,-36.27914686244241,2.234508190070028,1.532355351548235
1.3112499,8.609563037084355,-2.3102167252974857,2.795657241182894,-44.43540424566906,3.1477778580976703,-2.0363701887564356
1.3212499,8.46071900816298,-2.209762994867759,2.7839724773444443,-48.04092632006149,4.67620101498191,-4.568327013166208
1.3312499,8.366901353174379,-2.2337241047120697,2.836411134977258,-46.705638444412045,6.6949990375445205,-5.127278681439565
1.3412499,8.223869777321909,-2.1997502640602993,2.7833687509774525,-41.979602582629454,9.287165661275763,-3.460429189381453
1.3512499,7.9535213465192145,-2.119295012827954,2.6116106756538184,-34.62089658772476,11.873472605659376,0.36652557886485393
1.3612499,7.710390604262955,-2.0813596033328134,2.2998106852119586,-26.15943955904855,13.646682326440601,6.195111545415777
1.3712499,7.530231418352597,-1.8994585269916884,1.9511917264479852,-18.442348805253108,14.812418107090663,13.564750399357798
1.3812499,7.2487017841402555,-1.6723423497847973,1.7287306584153261,-10.913674433127165,14.958716426924356,22.361987510262406
1.3912499,7.011224032287438,-1.6310619588338544,1.5322042563295644,-3.3068278044222423,13.974210150496898,33.224922757145706
1.4012499,7.00333878952485,-1.5241697575156674,1.2715651098232652,2.779554688168913,13.118024013961536,46.125500465260494
1.4112498999999998,6.983918507683975,-1.2502836381148876,0.9987896006326632,5.870407082885307,12.468969172814047,60.62950024044702
1.4212498999999998,6.872793321326398,-0.90717185116027,0.6811635899513514,3.367199058944559,11.761808189237577,75.50247755610029
1.4312499,6.804999895590278,-0.5554478118705832,0.23916609991138219,-6.399212655938646,11.437804704726902,89.55281630855102
1.4412499,6.793887509541813,-0.35456564837842,-0.3082114359491378,-25.209059779713375,12.228017245166416,103.37946681636008
1.4512499,6.772461411799959,-0.5122872776833545,-0.7552746495849986,-51.06074668181031,12.96155064578783,118.42099790424649
1.4612499,6.746728124878494,-0.8431889142183205,-1.0650103127649333,-76.51522742710772,13.628553661191848,132.9217545390582
1.4712499,6.86208626170869,-1.06741083893062,-1.481528097643095,-99.27587743330639,14.166276385878723,146.21227247884514
1.4812499,7.4403442983185215,-1.6465304259759155,-1.6875225113985517,-116.94429040533157,12.5122097214529,160.4641450678759
1.4912499,8.381769622401047,-2.7287694881576097,-1.8249760440787883,-128.2453228350212,8.252221420440936,178.50024001895298
1.5012499,9.8775871178235,-3.685941072915834,-2.379310731291309,-135.60397573361735,1.1191213594802853,199.97896691669166
1.5112499,13.708667397562312,-4.236909976558025,-2.5142120564988977,-140.78620847278575,-9.503388449275306,222.15556438895914
1.5212499,19.986094494436408,-4.331370154694647,-2.0623444199720224,-144.5854962466537,-25.661452720650107,243.65236496510553
1.5312499,26.493385719098317,-3.776326086214109,-1.9881982172153034,-152.82932652287676,-45.21986200385386,262.56979065963446
1.5412499,32.63029091941412,-2.481553205791338,-2.047915081180332,-169.11656938907632,-67.5105059482414,276.5445341293871
1.5512499,38.98060175117961,-0.8278609061433435,-1.8265805122045327,-191.1627211008037,-95.41587440158256,284.81657962276535
1.5612499,44.57990070036376,1.1472036357356603,-1.3213784802109934,-221.500977099006,-125.56380035978408,287.4744776089613
1.5712499,47.79629679127323,3.3103587450148324,0.15480874005771023,-265.3989284738119,-147.46526769744455,284.08852568754094
1.5812499,47.11344563729306,5.154559408706007,2.2900410963004925,-321.58740099729863,-157.46358018261495,275.82426025149886
1.5912499,42.922638671192836,5.62533458861226,3.853861275904367,-389.5106422293984,-159.10714528854766,269.98255492915655
1.6012499,36.75809481831445,4.276775082111035,5.1178477939588465,-466.24134104711896,-150.81209652011134,273.2820860961419
1.6112499,28.345321901342107,2.84430002190148,5.391877196678206,-502.5736475100528,-136.35320405499823,284.2665867393361
1.6212499,17.55577483165152,1.2092009892329585,3.5598461512478163,-499.8450409922287,-125.10436131594905,298.5924400655888
1.6312499,6.087985994780441,-1.4681251143069087,0.4234493896170199,-499.4304761781539,-113.69283748304197,313.05434725481524
1.6412499,-7.049244720855555,-4.316575402724031,-2.191147537749916,-500.72793576402546,-99.02552878157869,331.94326375090736
1.6512499,-26.480481515866593,-5.195610271130778,-3.6669934455142696,-499.25258122362874,-98.48303952314203,367.98765147821047
1.6612499,-50.37004416900227,-7.794144184795773,-8.748198626360386,-499.79523003466755,-116.33385402007448,416.90339637919664
1.6712498999999998,-67.58453957472766,-15.128799354811427,-16.81125948554635,-504.0256715973767,-104.28778375637552,442.6204754995346
1.6812499,-70.4100604237662,-17.11643246227665,-15.531616125037644,-455.5925391889193,-43.176434560891764,412.0997967093406
1.6912499,-55.66007146139915,-5.050148211991408,-3.572323938275782,-364.5500812148332,48.973402902670124,291.8761117233351
1.7012499,-36.14498533601155,9.846408942905166,5.763675585947352,-269.6394292972516,125.93318584354525,91.83176858502624
1.7112499,-26.282916378007474,8.929750844067977,6.054298998428066,-108.13811838571358,137.2126278976512,-104.40564243773066
1.7212499,-23.010006290312937,-3.07453291511235,1.6458605271677182,122.53502712528707,87.89880236883705,-231.7067954814739
1.7312499,-23.913937726266592,-12.590680177559374,-3.630027822054414,355.6950070495156,29.716743102036357,-279.1947683742309
1.7412499,-28.758843633420234,-11.214545689962208,-8.086022124569533,487.88063912443334,-10.617072547052421,-271.3779141789109
1.7512499,-30.79240647346737,-2.882336514244991,-10.03407133068515,506.9061901352641,-41.85424721212713,-240.7035590703676
1.7612499,-24.516102865895302,4.604345599148009,-11.28533306562282,479.52026302505993,-56.073663567871556,-218.51527310374235
1.7712499,-16.52554375981633,7.776236604860051,-12.492737635456697,387.0654698702937,-49.030827614586244,-215.98811232622197
1.7812499,-11.821592475267966,6.066521877982143,-11.669435759423056,267.80385009061223,-29.03604782513267,-218.46309856718102
1.7912499,-6.924935843645276,2.217160783295907,-9.955329075871171,165.1116576764444,-0.46226023099364355,-217.0748158149014
1.8012499,-1.4507645507028943,-2.0170036985964144,-9.343012264871684,87.94633362548487,34.6592042557136,-208.98314757056966
1.8112499,3.1885230079562743,-5.556850000381268,-9.958994613457136,43.777240857375666,66.25302924531981,-191.54036796111004
1.8212499,7.712954669894367,-7.658183904054413,-10.580307564600353,34.70513966225856,86.1510628912826,-172.10711151894048
1.8312499,11.156870297720273,-9.390918549184436,-10.010799316187882,58.15954674892447,100.7220908924032,-154.23243720551054
1.8412499,12.750985171044624,-11.288323560931534,-8.249881608402825,108.74248818870366,115.41156003645946,-132.9153332748029
1.8512499,13.308667558896405,-12.152266479826752,-6.209063586863204,169.9049144541711,126.72445894945102,-111.75175245420242
1.8612499,13.804066731472162,-11.630964430787845,-5.388522068912021,227.9788161595744,136.31948530576122,-95.84827047581362
1.8712499,15.094655920167902,-11.275302869430375,-5.525885214248973,279.9768959118595,140.57473640805932,-84.25198252366188
1.8812499,15.677409842211375,-10.875541211033358,-5.489491882058005,317.85806233188873,140.45428492609494,-78.26269521344642
1.8912499,14.572460835067398,-9.60970851845469,-5.291671558900121,335.85775084376377,138.8845245222975,-79.83763931614737
1.9012499,13.615389675042119,-8.382816699468169,-5.004643112391807,333.7371273630622,137.1686424331392,-86.88135787606059
1.9112499,13.087487659666367,-7.247212190688894,-4.466680355847985,314.02813480114503,134.20184151466952,-99.94003599965632
1.9212499,12.321073598389189,-5.929973794163011,-3.9408148509431067,283.88054521901563,127.91202805909349,-120.17755576537705
1.9312499,11.933433673183353,-5.301876272536616,-3.3601626113504683,252.6206887734342,117.84734010154106,-143.2842684336683
1.9412499,11.84338229098547,-5.2495260725479405,-2.5723012270123196,225.6271329730871,106.05642169340074,-163.8754917619839
1.9512499,11.383473014975179,-5.515574697453578,-1.5902851293672717,206.29498952991244,93.96939614003067,-178.2389561570388
1.9612499,10.406719249669877,-6.2392076089307915,-0.6869093358735221,195.82377724046393,82.68694283566984,-185.6218349776378
1.9712499,9.2696411404614,-6.691435652704471,-0.4780915870412732,191.9584000006277,72.31574047257678,-188.0406765699791
1.9812499,8.553864458517344,-6.912257433999526,-0.145656054963714,193.11627805476292,61.975627190440164,-186.02966586503217
1.9912499,8.162056124955953,-6.677308116296648,1.0785949468570284,196.02902550577653,53.83803516746789,-181.58038651292884
2.0012499,7.928946432316085,-5.939967814985056,1.9268164140934785,196.91790531516713,49.87897104070199,-176.57812766350088
2.0112499,7.431017288677667,-4.944398307515527,1.3589268183277705,193.8633834814881,44.922714121776565,-172.32411247305848
2.0212499,6.822316736763758,-3.705540326329121,0.17779564287617805,187.3727003411782,35.38233698850571,-170.21830800195065
2.0312499,6.637526799448116,-2.857790144932615,-0.36859504310272245,178.16905393221677,24.125135152744615,-167.48889633236152
2.0412499,6.830693435028007,-2.769166060014226,-0.002421912852899107,166.50561923439645,14.753560480064305,-160.94941527370074
2.0512499,6.847241137327259,-2.8822246011933688,0.5098622587098742,152.72394731087854,8.926735462638288,-151.56858494927727
2.0612499,6.556826121314747,-2.3987366161688577,0.34531218649844597,137.7340325202492,5.443591913819737,-143.24799860012106
2.0712499,6.770644805677098,-1.581406368006757,0.3033881156038516,122.4633107399368,1.985800176161133,-137.3237324641143
2.0812499,7.665809082474643,-1.1640320730003089,1.257836715670016,108.31159579133761,0.7097933643613212,-133.03049486815462
2.0912499,8.538500769024555,-1.4220091093672536,2.081565479578877,95.74767602192428,4.846184490766043,-126.25062653450969
2.1012499,8.686933953337817,-1.578388431984524,1.534900898200141,84.0262992977012,11.951120500036936,-117.57196791559879
2.1112499,8.127601060481542,-0.9287739872864391,0.21294490739686353,74.34246155200817,15.907630947539877,-112.6090997236336
2.1212499,7.8255915526796045,-0.2914239552239456,-0.3497190034083159,67.51435709959364,15.952868189483278,-111.90270526158707
2.1312499,8.172731252213378,-0.5454817089848444,0.012648251663274887,63.41397274219356,14.496664113556431,-110.24460346315641
2.1412499,8.626971988010048,-1.1373491470359631,0.35098503673436166,60.34204686425277,13.003541526049217,-105.23275538742705
2.1512499,8.756972644643255,-1.0960831852863384,0.2752583934749192,57.841190624439854,11.394923146800867,-100.22792874370282
2.1612499,9.08427726548896,-0.725773856959557,0.5100010607787574,56.015257354876,8.792543401741376,-96.42501663199111
2.1712499,9.915356934802048,-1.092252033633673,1.5098626936843613,55.63710493421361,7.10812415060633,-89.84724075390957
2.1812499,10.34524179156318,-1.5731087880985815,2.4049375485519877,56.706846189632174,6.736804672526137,-80.27317768620676
2.1912499,10.175694479562853,-1.4459707888962183,2.87433392295634,57.61706556010601,7.019821845442236,-70.87928994269846
2.2012499,9.985906615405007,-1.640930798080421,3.03036520582436,58.385513088492054,7.527167331830191,-61.35559753315002
2.2112499,10.075920461886094,-2.3222385579286966,2.852228582529159,56.872680542894415,6.461440485104973,-50.71909967904118
2.2212499,10.353725647621552,-2.594183543606747,2.788713438534026,51.58843101753446,5.600467724468684,-39.51821299662092
2.2312499,10.449697738782847,-2.3912270439550265,2.9021620911170194,43.73622400259347,4.785700696671003,-30.026317021094677
2.2412499,10.4746883497389,-1.9813964512665865,3.074169572784728,34.614851787492796,2.6782178691570198,-23.556370595931035
2.2512499,10.533121229130066,-1.649071149041411,3.2172446413847147,23.793872144184625,0.1391148269459062,-19.226710193833483
2.2612499,10.498335922949078,-1.5551433370327414,3.0480176020454595,11.744360732425923,-2.757393080233379,-16.068602123612017
2.2712499,10.330536185264728,-1.579410744911105,2.5380988296275158,-0.5081344790042264,-6.389557931183211,-13.608006402230243
2.2812499,10.225551578673628,-1.6432805971177884,2.022971007742845,-12.589203506190744,-10.214439997622385,-11.480296027889532
2.2912499,10.315427179738956,-1.792434608777183,1.881919681031762,-23.17118631463647,-13.261001594270892,-9.465985831038859
2.3012499,10.370958155528502,-1.85950379439304,1.9731951623940753,-31.057664161443657,-15.011169473014858,-8.992307250192807
2.3112499,10.251934982912255,-1.9416276230941412,1.8864620406517398,-34.67602734642431,-16.15419792267444,-10.050813959183692
2.3212499,10.15960101405614,-2.200243549536683,1.8111301548807863,-33.49254746452251,-17.04577761171375,-10.589687426373285
2.3312499,10.015405521427864,-2.4506530031498217,1.9862824241029096,-28.804721439294994,-17.467107047902882,-9.72121776928634
2.3412499,9.742612558469,-2.5141532738503316,2.2146100270383897,-22.168477432583792,-17.60712791633463,-8.008090697921727
2.3512499,9.509460375245851,-2.361641224085945,2.2609757447086323,-15.074881622545202,-17.57969484794493,-6.264437822869327
2.3612499,9.318327161448295,-1.9926619723014112,2.1788801230787183,-9.677862754646013,-17.78775036908726,-4.757359395560736
2.3712499,9.18805303730491,-1.5510582279280092,2.273803292308971,-6.900463984073098,-17.77884679874425,-3.9028682413080746
2.3812499,9.119826450812377,-1.2432156253924367,2.496146727721118,-6.98044492577543,-16.37934480101999,-3.50234693765995
2.3912499,8.941908400807526,-1.007991717015657,2.5101261067054828,-9.368662102140341,-13.94158657555089,-3.5437419870334073
2.4012499,8.735131554608884,-0.8629121901466136,2.3436964345259224,-12.486449019494149,-11.698942080751896,-3.765822325297967
2.4112499,8.581681939520955,-0.8905622108920394,2.3187315654236675,-15.7776496731135,-9.474518082978324,-3.452788402656015
2.4212499,8.40634308625506,-0.9829727517991229,2.354380366463124,-18.70434840682765,-6.983997926433201,-2.4894774968759985
2.4312499,8.359908247234948,-1.1786010833182354,2.1384093273325253,-20.657006941018945,-4.3358898575510505,-0.8806173302200637
2.4412499,8.418236171485415,-1.3401847775930096,1.8393671990973934,-22.346882942262678,-1.78995934834517,0.7338599815917535
2.4512499,8.568778060741664,-1.4004767825675084,1.8105809074619648,-23.963524310493256,0.7334822073334551,1.7580347847028983
2.4612499,8.83215546935819,-1.5987675868374422,1.9675530047673244,-24.32592970649297,3.3782860570824766,2.3172576548388135
2.4712499,9.031066799072727,-2.03000590509439,2.079179981367843,-22.023693190461653,6.074568738731193,3.1734839139380804
2.4812499,9.117405955136372,-2.5155119235197825,2.1582834287452415,-16.573427503790757,8.366493231801813,5.097163009925038
2.4912499,9.176741742160614,-2.950583077767967,2.187842735332372,-8.60117755829271,10.017655952161913,7.9023977555933325
2.5012499,9.189567474641795,-3.2370795936174632,2.073162427649192,-0.5776126054211961,11.017382084413374,10.852918755102543
2.5112499,9.084917012268281,-3.320448440873348,1.8773477020838838,5.306012820094196,11.29044479933727,13.362474341620988
2.5212499,8.94123843928694,-3.3644711862870738,1.710417156045899,8.073804327035301,10.77455983890365,15.036252633519089
2.5312499,8.87218826656442,-3.370250114193738,1.6196531522850448,7.8857528937698165,9.701986097708938,15.811112406992901
2.5412499,8.86861540402584,-3.2732859120030695,1.4996849344606396,5.403509748073245,8.354620520181726,15.37582345083868
2.5512499,9.006043461143747,-3.2016706174777356,1.3806478737261798,0.6214838725060466,6.699519933941407,14.305059348227177
2.5612499,9.293023044412626,-3.2032306250364435,1.5837220573810495,-4.832928196450513,5.466363599917167,13.397646246552886
2.5712499,9.508744869678708,-3.2016860049513296,1.8610129959749773,-9.659125922262518,5.10133190837657,12.524369973039446
2.5812499,9.568974005335427,-3.124099845633683,1.8088110674040205,-13.963059529975052,5.1096300953491305,11.32506198418016
2.5912499,9.558587280599593,-3.019790940765423,1.7785386095451055,-16.958285045554437,5.111865388535909,9.397249654431294
2.6012499,9.538781664593362,-2.9642686049566986,1.9718123452068796,-18.211621090073454,5.281880588268312,6.946142727681426
2.6112499,9.53982595525629,-2.958114250485427,2.050290734257121,-18.12601525940106,5.628775772342254,4.752849608862278
2.6212499,9.54444079694523,-2.930690800448553,2.0938383650568304,-16.290150833442812,6.03186780697844,3.292180008008754
2.6312499,9.483524185269701,-2.8372769646159406,2.2168376306883495,-13.059715101371609,6.403200426220079,2.3140567116162085
2.6412499,9.417542136226313,-2.791106361418124,2.2931301387207723,-9.48111139049402,6.2681584085291195,1.947054805570358
2.6512499,9.363719066693074,-2.786627593982518,2.3786240066329394,-6.342028889271095,5.935217567856505,2.4142168082623594
2.6612499,9.30421659860382,-2.6514241389849342,2.4453113457033733,-4.825799232726311,5.875148154820597,2.7751962825645453
2.6712499,9.288102822488394,-2.4386032534126936,2.5203545134064145,-4.997045526519936,5.658262395071729,2.532784326496213
2.6812499,9.236356958268855,-2.2660133166862284,2.6500309288137336,-5.976410103818862,5.23061925456101,2.00643657002781
2.6912499,9.138164412970056,-2.1740164543017055,2.6366583627452207,-7.509527109892268,4.711426089470893,1.2788503031796115
2.7012499,9.097583082413504,-2.1624865799446282,2.4371353874156165,-9.353116703893969,3.817459439813109,1.088210309873294
2.7112499,9.058624518461665,-2.215080324010986,2.3000803160440286,-10.574043051048315,2.472234726310541,1.7392382252210579
2.7212499,9.051797725634357,-2.2375089013300036,2.2930637665616316,-10.492474209265447,0.8711855509401855,2.689698246437241
2.7312499,9.099181712455973,-2.2641507229105606,2.239444071988187,-9.241172953234534,-0.7805814730740666,3.842895514583833
2.7412499,9.12635527834375,-2.45688464189096,2.106942286431633,-7.202030200574522,-2.4100767829129635,5.4732660258824515
2.7512499,9.144440534533082,-2.7348492575629186,2.008689922942538,-5.636627379724881,-3.6550469857975427,7.369836754584751
2.7612499,9.159871768667305,-2.8601429285839046,2.018795333031193,-4.895426121080812,-4.252997831410747,8.808184285668672
2.7712499,9.245895037049399,-2.812576846499516,2.0932361185101414,-4.526492471628786,-4.3666086704122336,9.122455256063667
2.7812499,9.322490335665043,-2.782604551455822,2.1531134759575106,-4.053813017874805,-4.0211525074295364,8.67837712822128
2.7912499,9.315620153514782,-2.8215400058166527,2.1516465190301624,-2.876924165650758,-3.392197268442839,7.940516968882706
2.8012499,9.297623534921746,-2.9067830710261857,2.0587298075996023,-1.2146400888241953,-2.7343217083474656,7.470975596737567
2.8112499,9.276142429690998,-3.045319805049358,1.9724236046401606,0.8658964568129598,-2.380693442050027,7.7736147472629185
2.8212499,9.245859381318578,-3.0707449292814233,1.9609512037475705,2.9600697462981764,-1.983874824294511,8.295199086028939
2.8312499,9.187383220224417,-2.9626676370462373,1.9296025870631794,4.322218544784593,-1.310877841674002,8.096751617763363
2.8412499,9.170114293003545,-2.924793606265864,1.865270226755299,5.1525665246625545,-1.027282613960725,7.672842286139536
2.8512499,9.210955161172182,-2.975871125013841,1.85978837871826,5.854176696612079,-0.7043906933595994,7.565054370630252
2.8612499,9.137511687354097,-2.9026807499286966,1.9247592059823444,5.821829556324982,-0.07276634629824477,7.677155010111539
2.8712499,9.034043630906053,-2.755689350626722,1.997111393841046,4.957437280374719,0.6356063679955578,7.466124218631184
2.8812499,8.981234540728147,-2.6970357094113733,1.9715696453399694,3.0662445354856502,1.0966136649752698,7.180756643438681
2.8912499,8.888229715301236,-2.7278248032993417,1.8873853539003353,0.06401682380932057,1.2214897007791197,7.093296253231075
2.9012499,8.777678608259736,-2.83878816256983,1.871324992300373,-2.746785304665424,1.3787132285901753,7.209688591875878
2.9112499,8.73396947446008,-2.9427320393749943,1.9182081359362326,-4.71834683414265,1.7016439062383715,7.874666113847508
2.9212499,8.724052831886285,-2.987785058433928,2.0426754247257346,-5.762607558775449,2.152026333533774,9.044663049916197
2.9312499,8.695854940890495,-2.989526763813635,2.2297696115927774,-5.412147613961548,2.870836462926993,10.015243923291061
2.9412499,8.652398925626738,-2.9366201054629597,2.1984905740406657,-4.491162214321312,3.606875549694203,10.749263395117028
2.9512499,8.64878853521791,-2.886109462632929,2.0660097522485965,-3.801262452134931,4.105394123894183,11.717473876577436
2.9612499,8.663971393212165,-2.829701507275194,2.022750035553572,-3.441176287236486,4.80871567960269,12.808470475952763
2.9712499,8.63311221945186,-2.7651024305242684,1.9359225285639157,-3.9255161108329863,5.456625590398815,14.089970224625615
2.9812499,8.614294264417513,-2.75195399112316,1.852472938829842,-5.478664550349297,6.043232358482286,15.757623502879007
2.9912499,8.536218155772964,-2.783641452913309,1.8087213610988002,-7.73089072252483,6.821051610477398,17.447594418154587
3.0012499,8.36907266755361,-2.879389223991985,1.7755412390516674,-10.463525463997751,7.3482051656867515,19.42530977498423
3.0112499,8.238682583060084,-3.03840372330791,1.6967485814112544,-13.435251924256749,7.307603485188412,22.117719341984483
3.0212499,8.121093265914544,-3.1305279770359413,1.5575661643733112,-16.743716373892408,6.541114695157603,25.434177722200825
3.0312499,7.945799960351373,-3.1532824542200246,1.475955758356314,-20.64320214920143,5.292463794572722,29.714958985958035
3.0412499,7.707201801081681,-3.172252093820905,1.3868596915397813,-24.95154155737505,3.73928353817595,35.140212946873326
3.0512499,7.387997264642713,-3.107408564105413,1.1895470309961005,-29.77367384125871,1.5826936092794504,41.722315211133775
3.0612499,7.037344452785636,-3.046848657240831,0.8984716095655039,-34.329427594193795,-1.8662516487341194,49.8778771367827
3.0712499,6.871623226516355,-3.1162341684192847,0.5717007334501756,-38.097645896199815,-5.9962767376362445,60.138541341489756
3.0812499,7.100943960490057,-3.132228161508393,0.33850668605788103,-42.09375902703749,-9.75424462485954,72.19616063557471
3.0912499,7.486893222479739,-3.015062525121649,0.24375244728705092,-46.229311025964066,-12.860962485782416,85.10386331247736
3.1012499,7.672062408077566,-2.833454886381564,0.13125636874184696,-50.33487259362235,-15.254414151051263,97.89869440138341
3.1112499,7.863833746844573,-2.701141035808171,-0.11755799018801574,-55.10181404970457,-17.213064606848715,111.13097153976287
3.1212499,8.289169535715319,-2.719166545755316,-0.38566764885310245,-60.848434593157954,-19.364624730872407,125.79399052353091
3.1312499,8.969336165228214,-2.731822357093582,-0.6308567839843142,-67.09970178760241,-22.13739327432466,141.54206390732367
3.1412499,9.995862895585958,-2.731066525075994,-0.8848116769085109,-73.28279137804809,-25.24698238443116,158.58142460894854
3.1512499,11.090710647457758,-2.8035467344218685,-1.2757628300718602,-80.64584893253381,-28.107291251761257,176.98597085582935
3.1612499,12.518245970668794,-2.734708634900015,-1.7467006084454884,-89.56796182769432,-31.100331382079684,195.5591586368509
3.1712499,15.099355540537083,-2.5329000953507674,-2.121537747349933,-100.00277692978273,-34.72318200781839,213.96030480919424
3.1812499,18.699405149261093,-1.7899894183024676,-2.6504251176221163,-117.03765626416578,-41.08809521689975,232.93711377959073
3.1912499,23.042434378435388,-0.006721732333739091,-3.4570264797272343,-144.15236988244206,-52.229214202622124,248.01918823164775
3.2012499,28.767667573641265,2.2922941854497245,-3.8326480188156618,-177.07623647219344,-68.55953490373535,254.61851542261834
3.2112499,34.93688272997922,4.525598664245236,-3.02837980744365,-214.0545533965633,-89.02169612223996,256.4185584806624
3.2212499,39.42682762208078,6.917000160106849,-1.258127017883689,-252.02992458142035,-112.31171897538991,255.0504368050134
3.2312499,41.26917630367943,9.330900484345124,0.1261144734984805,-282.4383609211107,-141.30687453650043,247.93337731450112
3.2412499,41.82585151605588,10.229308248216075,0.5309709057859473,-302.74144627965603,-173.1822198992602,239.0827271358725
3.2512499,42.580897981087794,8.660255490802657,1.3491725211345056,-317.0363381094366,-194.77706459115635,236.8330825271078
3.2612499,41.10518913599943,6.569490805562591,3.4167443781526057,-333.51211037062717,-206.58786897627658,245.91475155805787
3.2712499,36.14117808380916,4.480027019597724,5.786036268316656,-362.4337145916684,-208.91333093459477,268.6557988512484
3.2812499,28.608086675448657,1.9949006537460001,7.212995153230992,-415.96964916863544,-193.18324870296686,302.8222277739405
3.2912499,18.113630585872396,0.24792803850418896,7.590654558174574,-480.1195174501022,-160.07290988917222,337.2551260916187
3.3012499,5.14538170606571,-0.3236843076051725,6.03641987242281,-503.0927276642114,-126.18448866473489,366.4881610058777
3.3112499,-8.561186842251535,-0.4665879320299362,2.4908461874694483,-499.3059776240837,-104.35218891433624,389.407373026749
3.3212499,-26.038047801723206,-0.0949849831237797,-0.8298396481430989,-499.7386811461602,-99.68551614879568,413.40758154620715
3.3312499,-48.92231962095261,-2.5948879537424783,-8.266756305334505,-500.545850204804,-105.53919108397463,448.19903138394494
3.3412499,-70.02636673942976,-10.090565966004862,-20.836411418633148,-499.67148079416125,-103.47265536365232,475.00602719776793
3.3512499,-76.97394485641259,-13.958349644456895,-24.657876101258868,-498.9490046975159,-69.68541050044156,452.7946977676117
3.3612499,-59.70231596825795,-8.108142641551257,-13.94935691634413,-504.7267649410917,34.102751597906135,337.6840493149273
3.3712499,-38.071848029463936,-0.39979921975740934,0.6593786471180134,-443.8004977066883,164.49490439373676,148.152940413598
3.3812499,-30.542514011472456,-0.6552409962319391,7.1130528484970466,-206.6400186424002,235.30594023001262,-34.7515862314008
3.3912499,-25.202175161337102,-11.444775462710167,2.548535442431987,193.74359740614992,195.6418621456048,-170.9442906437801
3.4012499,-21.86229518627687,-24.250363040747267,-7.836598752045651,483.9842980091923,89.74568348106631,-245.23483318233443
3.4112499,-29.05010723669544,-23.900985170234797,-17.229461048433393,508.71009438998414,-12.598765133273528,-253.92390969422422
3.4212499,-36.36959105651082,-8.563737273565264,-19.259667139287856,494.07961301542144,-100.79537962498495,-219.9559936134976
3.4312499,-30.619940113329964,8.588153429633676,-17.565884696217253,500.617751598243,-146.62760657566196,-208.05182384840995
3.4412499,-19.775273370713514,15.359224700217183,-16.826182487980056,508.03961857918875,-152.20677351335272,-228.3553056309375
3.4512499,-13.182470316364606,13.050721186461951,-14.065308446890612,408.5867586309857,-132.51954812950635,-248.22988769045458
3.4612499,-8.421613678939938,9.483435248086545,-10.600639475445814,184.7857628570853,-94.58581342265299,-265.98193429988135
3.4712499,-2.6570437264513513,4.447184747587422,-9.011274663010783,4.6835378910337235,-50.38548191962449,-282.3113710984404
3.4812499,2.408033117363621,-2.5034446532844274,-8.776264638630751,-94.70499278509008,-1.1115047152611768,-284.0219162219064
3.4912499,5.54423292399204,-7.551160366132285,-9.459670293282848,-127.1226597291611,41.21170376110619,-271.2542590905994
3.5012499,7.871813565742701,-10.051740698780712,-9.69330544917664,-98.89352473506182,70.01010713982139,-252.62322784344943
3.5112499,9.808730285281067,-11.52372597997799,-8.007051582732016,-25.328221339049783,92.15059049789936,-231.45779968642609
3.5212499,11.112755400180388,-12.565036718990784,-5.688455056623151,77.64208971145987,108.72161219410813,-205.46784017175602
3.5312499,11.79623771610218,-13.005074380434039,-4.522731331249411,185.40427675190955,120.20216124473932,-173.58764077108034
3.5412499,11.410282020212485,-11.871964534606189,-4.4289812586101505,275.888213798428,126.48647884507089,-144.15641119223523
3.5512499,10.356242609208872,-9.34755463055918,-4.847990769672168,339.24523314015227,125.52328005994549,-125.11621739737446
3.5612499,10.047251172610682,-6.8948130606121865,-5.090664709255093,376.1992690344363,116.83183217167867,-116.40122032553327
3.5712499,10.788318191432124,-5.556496930242178,-4.3979784517712055,389.6661989691229,105.09035712846122,-112.38160598014478
3.5812499,11.270014941528835,-4.35920206779231,-3.5833646698993022,380.35976333600036,94.3391174850186,-111.62504398770939
3.5912499,10.996062753629637,-2.4292526799217264,-3.9007806121187145,351.7804914159365,82.56210011482655,-118.89961062207826
3.6012499,11.371312980493956,-1.2923583360519506,-4.624371332099261,310.1877837406087,70.83972923211978,-132.33175120862268
3.6112499,12.235702029459565,-1.4929156881618286,-4.201791145670507,260.1826900366224,64.77944601569783,-143.667073053008
3.6212499,12.200615732844277,-1.571649088665288,-3.06707623454766,205.91029925496576,65.88886996394795,-151.7594556678935
3.6312499,11.813187322234127,-1.4396876331058575,-2.4570164234462957,155.41361359094617,71.17594225986952,-159.35528373230088
3.6412499,11.624421203018912,-1.6121859075160363,-2.373746066984106,114.33762589397624,77.12015056328465,-165.7291868801302
3.6512499,11.442861577046163,-2.0300923663352535,-2.2632587234032213,85.41208300254237,79.60791609053787,-169.1540599615311
3.6612499,11.544057935019548,-2.9102633548534134,-1.6607601639873173,69.44001677791682,79.31614828735546,-167.88597757577952
3.6712499,11.352994772922338,-3.8468954709844314,-0.8542839694298132,65.20654843508889,77.44572970313801,-162.08827225598137
3.6812499,10.531608906676196,-4.183113363287154,-0.6883608266428219,71.26138632185999,71.7530803815692,-155.11212649851123
3.6912499,9.978526075122714,-4.348223639069468,-1.0271082222175376,85.65773605747663,61.53734280465229,-148.1705929399639
3.7012499,9.907406429838174,-4.7627822284216155,-0.6603431626981716,104.29465786723806,49.789177248969686,-139.27176994134402
3.7112499,9.565888892255076,-5.078064338799322,0.39714631390990823,123.33751970399385,39.96290488456847,-127.993745810577
3.7212499,8.933871202096942,-4.819685154807105,0.9912211458012489,138.94044191555736,32.36348903270412,-116.8874705648542
3.7312499,8.710873342508862,-4.291828638169405,1.2684025874775977,147.54061900033963,28.927207603420804,-107.52546042602806
3.7412499,8.774576246868106,-3.904720218155263,1.7817991574391148,148.50191439689561,24.856673040437254,-102.21071989331105
3.7512499,8.644713582344455,-3.6241897763557733,1.955988192085242,140.22542713683015,21.55827422606595,-101.09122493442344
3.7612499,8.424388556830994,-3.3327297866237635,1.4790278382384534,124.50213260876203,20.576817861084088,-103.3293832728282
3.7712499,8.30021935461804,-2.964836409526118,0.9773063532133028,105.21726185549399,19.69754333864227,-107.77147760905045
3.7812499,8.189285891515137,-2.4735252461918718,1.2538110812002012,84.75346607628447,19.89928091571256,-113.82633654858256
3.7912499,8.066854635546711,-2.265880439269516,1.7499935980443104,67.4092491967793,19.539207731817225,-121.19098860726238
3.8012499,8.250238864781819,-2.427102821631963,1.7860695046947042,53.76925032753979,20.47917775622103,-126.07883332049391
3.8112499,8.784137733982192,-2.6118050638055212,1.966617716532477,43.35300794281953,22.576848977045003,-126.97218175748229
3.8212499,9.263705250047277,-2.850700986679551,2.59270433480977,36.82265068286214,24.016431879777883,-123.85580275528334
3.8312499,9.670653221474574,-2.864378104489864,3.1326603642047437,34.306757428271794,25.274706711300134,-117.18220370820569
3.8412499,10.028992333656097,-2.5754158732561017,2.933775010868847,35.060098201819514,24.712158205410994,-107.8822368161885
3.8512499,10.357616558393907,-2.4199767311897133,2.319370016931015,36.67756527407094,19.698785466434707,-95.39261829995347
3.8612499,10.550698007921044,-2.157290130981907,1.7740340566643347,38.03885488018626,12.731615830544092,-80.82708215552465
3.8712499,10.262077623490939,-1.589556341367179,0.9656654738293674,38.61985826623014,5.118091196522679,-66.91448529483199
3.8812499,9.881004377045386,-0.9233051837497309,0.42383232761187223,38.11334291040348,-3.3097846457641453,-55.094610816486906
3.8912499,9.836309802302992,-0.5494009663235179,0.4529714724433973,37.04589363156035,-10.897153227093778,-46.000882793257276
3.9012499,9.98402713591836,-0.6081550929307339,0.5159127969757578,34.739668465940696,-16.78743222644438,-37.6625842939278
3.9112499,10.079369482359791,-0.752098975142454,0.6323687187759326,29.87727231879161,-19.981275996939797,-29.5575474024627
3.9212499,10.169045571755305,-0.8753227500669771,0.9145317490098106,23.586650234617387,-20.827705073211806,-22.321844112015942
3.9312499,10.26454738180775,-0.9740236799670297,1.291008751343783,16.92397407176129,-20.938240650514572,-16.465229003856365
3.9412499,10.182891913509833,-1.0291892784976677,1.5138990345028314,10.860074222222769,-19.13056257018625,-11.998256157648326
3.9512499,9.90118613565706,-1.308850684065083,1.48592962663883,6.989145651506607,-17.43558808816028,-8.956987109621485
3.9612499,9.608216841810753,-1.824336467479121,1.266046147266155,4.52454357548577,-15.770402236044694,-5.814748286731429
3.9712499,9.441590305331498,-2.213439529868027,1.093974394601617,3.0600357312478708,-14.071682121864402,-2.1277766652553733
3.9812499,9.501067384955476,-2.320700008940971,1.1806783424157468,2.6671387491966168,-12.811012233514603,1.023750773467456
3.9912499,9.667090632700301,-2.267453815431185,1.494171855759083,2.561451686703654,-11.329923015793073,3.2978640657024254
4.0012499,9.69988701100962,-2.1981899386202883,1.8654807861134493,2.2661365738089305,-10.013254338142746,4.839274600023341
4.0112499,9.563659055429747,-2.2043083789730553,2.0343420689569696,2.0459951688756535,-9.593510679803131,5.072766715901566
4.021249900000001,9.37099771885585,-2.3877215804332,1.9096724086403327,1.7470806392305236,-10.24745648360763,4.434026115547187
4.031249900000001,9.133074451656604,-2.5607255749627784,1.8100932563517704,1.0577122895365296,-11.356744385514384,3.7115234731112983
4.0412499,8.885575788473615,-2.600311773298343,1.8750408641224066,0.31880857264101065,-12.208266813269953,2.288252022138942
4.0512499,8.826411087747644,-2.6227708527464637,1.828840102246524,-0.7559488336437147,-12.423070654370294,0.30483129334218423
4.061249900000001,8.789708097085603,-2.7444986839102574,1.7923817887904778,-1.4057787998313127,-12.012079426622165,-1.6205648013594438
4.071249900000001,8.90623255620666,-2.786789346543516,1.902024414306786,-1.6279260675356304,-10.813413106049426,-3.553119430797611
4.0812499,9.238050396183137,-2.841981978067212,2.101556552030441,-1.5243132466170795,-8.73805963048726,-4.663479035660736
4.0912499,9.337525146736589,-2.951411629801797,2.2436997951774824,-1.2581254263900243,-5.75496887658779,-4.509311764435628
4.1012499,9.19218577749265,-2.862020765858965,2.112374631319413,-1.0299251747672786,-2.379372234947435,-4.324689680588791
4.111249900000001,9.079171332486162,-2.6478368768039418,1.8553277505755263,-0.3665314489744408,-0.025411039962983266,-4.751005010955737
4.1212499000000005,9.075346547920734,-2.4148917721901695,1.7171032978713625,1.2001555379421638,1.042891282319997,-5.980756479495073
4.1312499,9.134655801783017,-2.31387935324965,1.6589890082342844,3.8148805907561396,1.3362287156098327,-7.249335026372876
4.1412499,9.168040156402308,-2.335330037253558,1.6383252775019757,6.820399494613384,1.1933720384971642,-7.570459864842112
4.151249900000001,9.223798470725981,-2.366394509609803,1.6616932142504075,9.495023711744958,1.2692883845951555,-6.772003643913784
4.1612499000000005,9.342584190301816,-2.355631589466174,1.6171450570264365,11.554656330104674,1.5027672990516798,-5.2573459932952975
4.1712499,9.449773783203966,-2.3413107281420764,1.5761508758002998,13.105584387576249,1.802422367668761,-3.9243009643123306
4.1812499,9.539062077229714,-2.301563757722684,1.5875218885538953,14.20828451531072,2.4788023377738155,-3.0059901521275134
4.191249900000001,9.645086488827458,-2.2695505781026233,1.5967204239731405,15.794323763006707,3.5763422080910754,-2.461664097448443
4.2012499000000005,9.689811616646063,-2.3796992219924005,1.6645782483241103,18.50746059375268,4.562879480955545,-1.7604084412917638
4.2112499,9.648439242685061,-2.5145253165936157,1.8570818617711211,22.64019211264831,5.638570282572852,-0.9065447322613692
4.2212499,9.601139976804118,-2.5967549545334245,1.9649462781326779,28.059666273219822,6.35242496314444,-0.2999472605982261
4.231249900000001,9.527049489094987,-2.7398185121666763,1.9010135581826053,34.71408745169841,6.134638968314429,0.19882081600433116
4.241249900000001,9.431474494340367,-2.8995911659660276,1.7800687609764878,41.649962165103034,5.356123763531788,0.5851557705940481
4.2512499,9.35768168828192,-2.914250143425755,1.700391448435588,46.390142426203674,4.153608073873356,1.0709082882870924
4.2612499,9.259325980068434,-2.7821411564446166,1.744717532003884,47.63204719895668,2.961479061152851,1.2230727424271277
4.271249900000001,9.219364088129229,-2.63482885428612,1.708317261070094,45.21131553386994,2.280992537129938,0.5648790528611755
4.281249900000001,9.239506946768508,-2.4320638004268673,1.555826057001523,38.346538700183,1.8105264332763484,-0.5480292223567316
4.2912499,9.226252353925132,-2.2339811343686624,1.6641663822562847,28.242078705294478,1.6102812980397785,-1.9008600755274794
4.3012499,9.145801322217286,-2.1718309777432876,1.886265892851311,17.203839372722147,1.8199983706203462,-3.363924683622689
4.311249900000001,9.002625807916704,-2.2363881155421326,1.7941263268015624,6.090378596423573,1.665295433066218,-4.270716134116177
4.321249900000001,8.913903297027629,-2.3120865508204917,1.6834517806177305,-4.166999505283705,1.166985060117765,-4.219740105082626
4.3312499,8.884333677638423,-2.2559725786291045,1.7768228458905069,-13.049726626524503,1.0172334868924844,-3.873132716868755
4.3412499,8.813591110865342,-2.1971330351041027,1.814190518520456,-20.170177221246746,1.1546463790411106,-3.3645517237037894
4.351249900000001,8.765143600899915,-2.2482913151244306,1.7796266612491076,-25.342518955442664,1.360494100835139,-2.3995406779106228
4.361249900000001,8.775629690996213,-2.306699205656402,1.7845234470380409,-28.654776233925546,1.9381737035907565,-1.0736771632492632
4.3712499000000005,8.799940307990243,-2.3515155458022914,1.850569531873008,-29.909754314498105,3.0898276700804828,0.8368589477490511
4.3812499,8.869884968108579,-2.4086629775322153,1.9730854129278985,-29.087075109881486,4.784938157338523,3.343539157564006
4.3912499,8.882001414704431,-2.399884368468994,1.9824770339052955,-26.138430841723153,6.5753094876294575,6.053776054665567
4.401249900000001,8.791968343034725,-2.3653097426299152,1.9337591902615947,-21.6972403759028,7.924186827582809,8.806029906823635
4.4112499000000005,8.680075776697901,-2.352507033305929,1.9304755596329042,-16.74211855450889,9.082720100861959,11.698309631836718
4.4212499,8.64691028276778,-2.3359574097086426,1.829774763647496,-12.817971213263222,10.159418609311379,14.917522221850751
4.4312499,8.653410657156378,-2.3173976333875173,1.6963793076464275,-10.982265058958216,10.79188502395222,18.17820422252399
4.441249900000001,8.649416557359364,-2.267921996492655,1.7052259761489097,-10.969741267300039,11.423124414305754,21.040239377483616
4.4512499000000005,8.74769369660324,-2.1460619081015166,1.8266496748209875,-12.06273237854168,12.243637671011507,22.94819478796766
4.4612499,8.894537302269942,-2.0840984035816414,1.9917617349066064,-13.572658304784563,12.962807221205486,23.771790250033156
4.4712499,8.88436308122265,-2.2892077267764597,2.1261744710160944,-14.143869375370004,13.259339760647197,24.17450075550459
4.481249900000001,8.72652510685453,-2.635339133766767,2.1386074442291374,-13.393952942001743,12.911563363283234,24.97036479181738
4.491249900000001,8.618048654274158,-2.8744091399398966,2.110782329314842,-12.110577004568416,11.97225018569785,25.88041978039111
4.5012499,8.628700102864215,-2.9929149511217785,2.1758106399347334,-10.082927653939269,10.5504999993783,26.337433185761082
4.5112499,8.560435377751105,-3.1177465190647218,2.234356110054265,-7.479115466541039,8.659124157241504,26.35573271825271
4.521249900000001,8.439009154463774,-3.1925156969113053,2.098465268552948,-4.940946817075718,6.8923726271881485,26.073319715670404
4.531249900000001,8.556881374924686,-3.08863125585811,2.0214071994181326,-2.9368899530783867,5.659808250872525,25.619291450172035
4.5412499,8.866254536550104,-2.8754722630428518,2.1258598428334996,-1.6370643642042813,5.415062408233979,25.159708232306425
4.5512499,9.064162122090169,-2.710502459328592,2.0898221504847965,-0.9077064724809613,6.252278823507961,25.17876069787484
4.561249900000001,9.139433185739277,-2.5439238314362265,1.886914659171493,-0.7079843564449362,7.656653612911247,25.786772072539925
4.571249900000001,9.245197253034734,-2.277826418161069,1.6874264988456733,-0.5256770493255112,8.932786621119186,26.845957882398107
4.5812499,9.211239093771525,-2.140099812499466,1.456103939072648,-0.40695425893256126,9.350055272857572,29.337944045734123
4.5912499,8.97527471311187,-2.2992572991703,1.295773674564431,-0.001504556510052164,8.979999732339193,34.56227671291701
4.601249900000001,8.753768953969857,-2.5203498986042785,1.216042256352943,1.2080617048654332,8.121888076920428,42.396216166134195
4.611249900000001,8.622479831170969,-2.640844977420795,1.0110525607452765,2.816117543459915,6.216748985468229,52.278836430755106
4.6212499000000005,8.467011197324016,-2.778219848063625,0.7311724098026885,3.416425290289351,3.8683362875187703,63.803728445017164
4.6312499,8.197676486417208,-2.8794530122698565,0.5408293921345757,1.7051747512320532,2.223808217539424,75.85393517114265
4.6412499,8.06679225344022,-2.8661741682112964,0.330142322942113,-2.6092210961714573,1.7755351111628292,87.06705237435648
4.651249900000001,8.211053647481629,-2.8410897431697695,0.052908903021372654,-9.708067545704814,2.9015762934552023,97.53382574507376
4.6612499000000005,8.359332900177906,-2.7782448426089923,-0.11790651276144862,-19.15631456045656,5.569783811463946,107.86343852016458
4.6712499,8.65463000951398,-2.6517788784871312,-0.1918477475831931,-30.337629308139938,9.57952970034114,117.58074720571845
4.6812499,9.364659112071214,-2.745327414717876,-0.25491312327765686,-41.74395507113385,14.411083054080061,127.64450789866652
4.691249900000001,10.094133034017817,-3.0376338170613475,-0.2951201650825601,-52.235371347384074,19.773440065662307,138.84851199145353
4.7012499000000005,10.469952179947398,-3.202418871959498,-0.5093202733210748,-60.69538954328128,24.117977959838512,150.09263650690303
4.7112499,10.877114470873467,-3.29142400639024,-0.9095040586145895,-66.59773699408922,25.42291072858569,160.79257797747613
4.7212499,11.663422683084763,-3.6235561109559336,-1.0858006879501751,-70.26071790070888,24.501834147213838,171.89243288663235
4.731249900000001,12.5476884431797,-4.172044705606604,-0.9106384376581099,-72.02341887409375,21.547699512690954,185.05110471171818
4.741249900000001,13.588580685095291,-4.712887281336901,-0.9078046501545678,-74.38411135176958,17.125614489202693,199.03681146815416
4.7512499,15.09569357395898,-5.024187606936554,-1.3168568742107891,-80.25545394961154,10.078824683355787,210.45888705021022
4.7612499,16.776619683172882,-4.9853605271318475,-1.8409721351757602,-92.95512904760164,-1.546892839783141,218.35419366660295
4.771249900000001,18.390162200730042,-4.626213410119037,-2.4765561765877284,-118.01168945937317,-9.959885100065971,223.78822461255032
4.781249900000001,20.62045124048091,-3.7084259115625917,-3.024895825822272,-154.8469084811892,-21.68384388248384,225.95870570498093
4.7912499,24.085465380595778,-2.250475678220136,-3.497235571716541,-202.83140612688388,-39.69383325832441,223.5066851028933
4.8012499,28.215510930205035,-0.19295798263820535,-3.6385677456275602,-258.41909508371083,-61.7259816426384,215.01266690288452
4.811249900000001,32.186110577093295,2.6079339755588617,-2.9509746980086327,-317.9023180188961,-88.1421012833696,199.9373626964191
4.821249900000001,35.856032363099665,4.823244764993409,-1.660381664991984,-373.21446027064815,-114.46253829451996,180.51233656469228
4.8312499,38.25187739184562,5.453707258070836,-0.3373720612470506,-419.23062145924797,-132.01985918218216,163.03716305353836
4.8412499,38.04527129663369,5.297063518330139,0.5449859622085683,-455.43857144091254,-138.75424383466725,152.44884949441163
4.851249900000001,36.23667947410674,4.519632455899549,1.281137264364367,-480.00519487620573,-139.21076675039433,151.6628903740161
4.861249900000001,33.54387934066835,2.744843042970322,2.655931808434415,-494.46866429580336,-133.7966323970616,165.3561109800993
4.8712499000000005,28.647247935986286,0.5850910627779294,3.795562742734176,-500.1203983905047,-123.10177622079156,196.47060736725066
4.8812499,21.25485724643599,-2.0831154857027885,3.385902241331654,-500.0028435748002,-112.3272363160436,245.06928492173617
4.8912499,12.209594511916903,-5.878485083005403,2.613142553080602,-499.98793888325,-106.55750482755907,310.93958889088117
4.901249900000001,2.1963925141935388,-7.935808791276244,1.9536427267048,-500.1007015242731,-102.68032294258595,379.28899287028884
4.9112499000000005,-10.693020996142765,-4.98452107219431,0.5543511369396406,-499.461705388316,-91.22518201501656,426.7770393651219
4.9212499,-30.590563311652094,-1.3846048175092693,-0.1033474090542978,-501.47769422522447,-73.12521208502224,458.2121536193609
4.9312499,-56.64178666413204,-5.36005403301581,-7.74222474522804,-490.58470351409477,-53.169751133156375,492.0475742171925
4.941249900000001,-75.26596351305707,-13.634126175716542,-21.805624587395247,-439.6958940506336,-17.6173301308727,494.56890207990995
4.9512499000000005,-70.67821327943119,-11.756911138807629,-20.50879819642266,-360.8452225971143,53.97442402518201,407.1255100138055
4.9612499,-47.23521908413754,-0.03567026122384933,-3.414875862057284,-251.25729432809317,160.0542601647433,224.62085815491847
4.9712499,-31.202470316116074,4.553318369001674,7.159795600848273,-81.407764327555,212.54835174301775,23.799812218158365
4.981249900000001,-27.268617515611382,-1.59716432836448,1.9266702731078775,154.97388686024385,154.51248711588732,-134.10483694548807
4.991249900000001,-24.63727130824334,-11.47191567734478,-8.403103468077195,403.0703050591332,57.09585271431378,-236.31672329517616
5.0012499,-28.033145152620648,-14.756972534284454,-12.699521088913768,505.59690008893205,-28.38688172958108,-265.9249872189147
5.0112499,-34.819901578178175,-3.7836221794575557,-11.702817182566244,500.4262398611342,-96.00771860188055,-254.99651084761325
5.021249900000001,-31.881503756460447,9.215357448336283,-10.278729960998895,499.4857664553608,-127.00402833295048,-256.1030435059742
5.031249900000001,-22.128867916215174,11.941792981894562,-10.380610327344549,403.6819840211553,-117.80916491249205,-264.66592380639446
5.0412499,-15.72238060133306,8.835669381308808,-11.236576669902847,226.42697303695383,-86.25734921826393,-264.6017139210233
5.0512499,-10.896717314006327,4.9063660060801615,-10.791660227970226,88.85660094834266,-51.80222486228251,-261.00666246808424
5.061249900000001,-5.252185891897928,-0.21532957354791504,-9.574840258204956,15.614868522824256,-18.023853576732318,-252.43658982813554
5.071249900000001,-0.97892999805907,-5.270141385499931,-8.94067302559952,-3.4358785949006636,17.02171414519524,-233.68885831490093
5.0812499,2.125021267339591,-8.384224298982272,-8.983705045645763,17.88230885834178,42.93803015565282,-208.8912052495965
5.0912499,5.093499569675432,-9.777504604828067,-9.13463200752963,63.104812378192385,58.7689873902981,-186.26331499206515
5.101249900000001,7.523161645238678,-10.800263768983779,-7.9901375682710984,118.18039065361205,71.2986169409542,-165.33606801143944
5.111249900000001,9.244987043621819,-11.35496097233987,-5.862672519241875,170.06674454503474,83.33202335171605,-142.9329828990852
5.1212499000000005,10.007465904936863,-10.464666378397736,-4.272433287705984,210.65960087914246,96.05980370497588,-124.55537397658016
5.1312499,10.025166826060891,-8.888250812060853,-3.283369765420514,235.52474235760238,106.41317009296269,-114.60747184898484
5.1412499,10.73710957685081,-7.618824572081571,-2.7913334804392735,244.8560029116531,112.97230259658679,-110.18838425405484
5.151249900000001,12.102277411360964,-7.079141408308471,-2.2743220119068375,241.4975597072628,116.67378313446099,-107.25247594570071
5.1612499000000005,12.63731662817726,-6.6365857202257965,-2.0840021248701834,227.908464164485,115.09427684684715,-105.23543955785514
5.1712499,13.025532632957173,-6.079668346514758,-3.0933698531677796,209.61961799346307,106.09660463647138,-105.30545317598857
5.1812499,13.568005133197417,-5.799242441202622,-3.7572317704554483,190.75601602732354,93.72688853673063,-108.74812427131688
5.191249900000001,12.690675116243279,-5.550458442582962,-3.1565315087534356,173.2138934638332,83.62532679680818,-113.76539354253916
5.2012499000000005,11.107970948881174,-5.52801240499081,-2.2157895857474905,159.79735869991094,77.47003548483725,-118.26126749513186
5.2112499,10.903475550032741,-5.938200009242507,-1.711945509017121,151.8195964804028,74.15869929200915,-122.29576429246168
5.2212499,11.907100173366446,-6.265570327060132,-1.5505085034403072,148.1729211205644,71.84802151493172,-126.22058421514694
5.231249900000001,12.844098354546666,-6.171269409537241,-0.9917798891932215,146.0509031100856,69.75660680466939,-130.28530921716373
5.241249900000001,13.658192549612316,-5.861692875606772,-0.15206034999695722,143.3382704461202,67.77564509029243,-133.84418642953258
5.2512499,14.419935967204463,-5.664642047030525,0.3161154595601663,140.64176671130326,65.6206939583428,-135.79457308547103
5.2612499,14.389091768903892,-5.450266054112574,-0.008960046707745715,137.15034004438985,63.54442689697471,-136.32915781327057
5.271249900000001,13.055923492494639,-4.937545409708335,-0.5753672629239627,131.60158465535096,59.49220938407592,-137.50182873834555
5.281249900000001,11.321672801598973,-4.32514843009529,-0.8846586410254474,125.85476732592008,53.0210882730758,-139.70218828142575
5.2912499,10.279143565211234,-4.011881209413334,-0.7877280513471221,121.01155621079546,45.6171556966857,-141.8051037933846
5.3012499,9.589945100363597,-4.098495919767904,-0.15653320357902392,117.84570747141315,39.30064134238718,-143.7426190965363
5.311249900000001,8.939866025181685,-4.121810154712808,-0.011409055317561652,117.06905666073405,33.44188524472421,-144.97880911196782
5.321249900000001,8.887791369032211,-3.9123166360048804,-0.24841956396944762,118.23650123099324,26.556485602240627,-145.00356948350938
5.3312499,9.2810592531186,-3.615086366297718,0.17957862834888422,118.67972259371967,20.02948261311486,-143.8924490142889
5.3412499,9.468382947712508,-3.223650705534481,0.8320826595978305,115.83528279080868,15.474405947137265,-141.24948000344585
5.351249900000001,9.248418827947251,-2.600338410525225,1.048137812269927,107.78484027093559,13.416054088034224,-138.59477759471562
5.361249900000001,8.720183431944454,-1.9331784089948179,0.7940116243301315,96.93768930370388,11.818090963202508,-137.0716264163047
5.3712499000000005,8.409309120653504,-1.677439329910592,0.2335642740299057,88.16557904997728,10.815380255555908,-136.8244200891138
5.3812499,8.506985115563191,-2.198707163815315,-0.1946721713558966,82.36089371907889,12.050626191610606,-135.15699473164386
5.3912499,8.556970416191445,-2.8522905764657196,0.13641229112244754,80.36589799819134,13.685102447885189,-128.40221102952924
5.401249900000001,8.413563545568884,-3.2232574599228037,1.0823992486379004,83.35832780870881,16.0344749752901,-117.60584995230289
5.4112499000000005,8.17219522719982,-3.3195202113345545,1.6933426752394012,88.53518243283115,17.662043844225053,-104.63927609999425
5.4212499,8.19533646196757,-2.59961457741288,1.5347825285073016,92.70501427337227,16.011638871999793,-92.98789488119417
5.4312499,8.61061666098024,-1.3352890507474666,0.9900945308495022,92.6581974062267,12.464181845061269,-86.05942573624337
5.441249900000001,8.961789894921829,-0.3715003135903555,0.6200049025522067,86.9045527897204,8.22887881603449,-83.35194671770492
5.4512499000000005,9.050657058193424,-0.08076619916517148,0.4435293788203315,77.37389019391922,4.444198512175242,-81.82831174574876
5.4612499,9.160389169014598,-0.21117784105099915,0.2920852138171722,63.94985580121932,2.231236032029069,-78.57183549625286
5.4712499,9.403064283334048,-0.26340064480252284,0.369136977133424,48.357936428993334,1.1922370361420338,-73.80647358995262
5.481249900000001,9.747089251998068,-0.09431338139593065,0.5904463914692949,35.30289208372605,0.184687569890518,-70.72692513173291
5.491249900000001,10.19343145344146,-0.010280779354780431,0.789385738832765,27.043569478066143,-0.674029254576359,-69.49399945372208
5.5012499,10.526070197456812,-0.31961420399192747,0.9015597344286049,23.57644032433443,-1.2856009056213382,-67.46230878597943
5.5112499,10.611931093335517,-0.7216849911532158,0.8483578814670091,21.949353641786775,-1.4967787186002313,-63.67463689327242
5.521249900000001,10.495562153428068,-0.777366584431563,0.7154510260035402,19.14223439962562,-1.5400208901539527,-59.46790126212418
5.531249900000001,10.196632156485503,-0.7078239612714295,0.6912221692724171,16.008430254232753,-2.1105825422104467,-55.87502421345501
5.5412499,9.904452268652234,-0.7744528187231826,0.850753491398807,14.626226804012694,-2.8857971576151535,-52.72282257650922
5.5512499,9.735875524215947,-1.0157468082156043,1.1136957255962994,17.212359899109977,-4.919306375605817,-49.26256261224062
5.561249900000001,9.586088080452061,-1.4831587249419507,1.273844615857299,23.878873982217378,-7.30975154062165,-44.873071217628706
5.571249900000001,9.480049535959147,-1.9760963249095553,1.3440598768304606,32.29406883018218,-7.992889892701673,-39.24278058388981
5.5812499,9.463299800442428,-2.0910523387568456,1.5394640353726718,40.67321835335532,-9.491494657052591,-33.5748614823974
5.5912499,9.443444752639213,-1.8484715334086992,1.6518541969308924,46.319721763393304,-11.262707230647953,-28.174973629735437
5.601249900000001,9.469226495023145,-1.5975375465946362,1.5052059191792058,47.24196161936285,-12.408807369959575,-23.048301842591968
5.611249900000001,9.545603051257944,-1.61051847268179,1.2093360038720393,43.206063123648704,-12.376234258236842,-17.117269730836096
5.6212499000000005,9.539006172555096,-1.8505905961905653,1.1341972776472937,34.068347885330056,-10.538240798566795,-9.855767161706618
5.6312499,9.536945116421723,-1.8956931379594646,1.139270649755313,22.77781404730531,-7.15897393204351,-4.554619679707724
5.6412499,9.608120259052432,-1.6977619406647328,0.9687849732464816,12.544205897769327,-3.719129016586757,-2.332651759473256
5.651249900000001,9.66290960810901,-1.5256695739733404,0.9134248703099828,3.5304504678415216,-1.0621555953850785,-1.387022182755532
5.6612499000000005,9.721094660840118,-1.478528438778032,0.993323519048876,-3.590306566011603,0.6834957381240673,-0.3786907553325152
5.6712499,9.677235234595585,-1.6277929003956526,1.0153566777040204,-8.063569253014434,1.908828405151291,1.5528796592010394
5.6812499,9.401589532610062,-2.0026049108528827,0.8572957608226653,-10.621742586958964,2.003533124137846,4.19723461602966
5.691249900000001,9.190882824669918,-2.456741601400408,0.5818302085098905,-11.363795075240585,1.0255370298065496,6.825904492654733
5.7012499000000005,9.20417199207846,-2.7316903549231424,0.5354055386783297,-11.617050301147641,0.15151611462599285,9.07634611222292
5.7112499,9.275120663240447,-2.7678629648952184,0.8071047724999919,-11.583102551709517,-0.4752007244619719,10.661115457118132
5.7212499,9.453281340919995,-2.568717190068361,1.2940195093606575,-10.632763469577057,-0.6457786729938639,10.978464198016356
5.731249900000001,9.738323826204972,-2.277194119014698,1.7734884466625052,-8.752854975634019,0.019723352295780497,9.79388085888161
5.741249900000001,9.91901553199987,-2.2209642325967396,1.977004960712862,-6.065007955648855,1.150900516546042,8.101677500780978
5.7512499,9.860259499530082,-2.335671361849634,1.8806439785103184,-4.0292673269359565,1.8993311836920308,7.17054422989574
5.7612499,9.648560644612727,-2.4282214935193736,1.6650712641135945,-3.1186097612257124,1.9720510659715103,6.7563533000157845
5.771249900000001,9.434892288662768,-2.462500628390483,1.5190078175456232,-3.136163452565548,1.25045263477178,6.2712772435375586
5.781249900000001,9.2659744924915,-2.455090827320857,1.4065797312396704,-3.9557799444958905,0.04960627101010962,5.555267109729682
5.7912499,9.13080522828088,-2.4775703247905696,1.2867916278964915,-4.832036813241409,-1.6002679089115432,5.43284788280557
5.8012499,8.941315020958147,-2.399557734929122,1.2241969029875754,-6.498608847695785,-3.82067504798677,6.118825110260035
5.811249900000001,8.805716845277695,-2.1083787370899354,1.2338453325300351,-9.548330036017271,-6.0207725269872245,6.735704532324265
5.821249900000001,9.017993955312242,-1.9098165047296343,1.4029508122185534,-12.820449120523437,-7.262060399277209,7.028253676342531
5.8312499,9.367351902458445,-1.9191098845282364,1.5673947290868937,-15.505174156567307,-7.7664040978830515,7.047017140477287
5.8412499,9.537914097712493,-1.8635456132777317,1.6405170973091847,-17.350809054083207,-7.630845875726438,6.701099643486334
5.851249900000001,9.539594969467904,-1.839219034928115,1.7619618739746288,-18.37059503538398,-6.685622262237826,6.070735037469893
5.861249900000001,9.43477845790798,-1.9422315987923517,1.7871351539383,-18.300505014017048,-5.212889655012749,4.695732083314667
5.8712499000000005,9.455717228339143,-2.1543238137208416,1.7048958440630047,-16.86148719414423,-3.6812153887907306,3.7826083184148716
5.8812499,9.634417281225433,-2.296705408280384,1.6859664968406178,-14.478369003951629,-1.8368722692772956,3.315176585204032
5.8912499,9.703114713601686,-2.2870526984084316,1.6698502672202493,-10.8715739919872,0.22951776352001463,2.424001121410683
5.901249900000001,9.573055082910406,-2.3268941502667806,1.5390761376119249,-6.297039621175153,2.0783481352181763,1.689942032298029
5.9112499000000005,9.392637503417715,-2.3540454871944627,1.231595840741825,-1.9813580789514715,3.64047659999513,1.1314730897430423
5.9212499,9.267642176290595,-2.2369551391095133,0.9136641232482895,0.6393580449221034,4.962450502828123,0.33917071856884434
5.9312499,9.189175601193378,-2.0811923176596836,0.760555722886708,1.1667433408019292,6.180803413561834,-0.45513472545260614
5.941249900000001,9.215561953641577,-1.977170541029336,0.6612838112449902,0.22073646425586915,7.64295503253575,-1.028795192583423
5.9512499000000005,9.36050367918519,-1.8856758213826699,0.6071925501407948,-1.6547452728939345,9.464274376779066,-1.1769919307646295
5.9612499,9.507737960807166,-1.7660222870247018,0.7085196176373639,-4.532072492388187,11.586816833180082,-0.32804236656344776
5.9712499,9.532358396252613,-1.6298060101024288,0.8491730900207681,-8.339371328354707,13.79733527400206,1.1754860515582164
5.981249900000001,9.488433949192022,-1.526494768309345,0.8286951315828249,-13.201091837596454,16.030072366722713,3.371003941735912
5.991249900000001,9.417408505110227,-1.5133022250818584,0.7486478528137241,-19.35706243879358,18.097316058160906,6.38481288213414
6.0012499,9.217017683374284,-1.5176633507127222,0.7214424624615213,-25.017822357793985,19.326629971407733,9.89030404515755
6.0112499,8.981567765311588,-1.5580635758783306,0.7561528690410413,-29.156793428425814,19.624474730896097,13.825989314084188
6.021249900000001,8.783034167142072,-1.6939127882495426,0.8975953830254338,-31.662279175649125,19.252898067415007,18.118201685487396
6.031249900000001,8.561111377045187,-1.8924731219527338,1.0146965561660146,-32.558999366549564,18.29035760503312,23.08906699886856
6.0412499,8.393871878134316,-1.9633578491237054,1.017819340381558,-33.29473764694332,16.68375069288596,28.643022515219247
6.0512499,8.303315090566471,-1.9817311547846803,1.0398340433782363,-35.05454933852163,14.702592175364062,35.150010906394385
6.061249900000001,8.13112327443024,-2.1127335371134706,1.0332332987320432,-37.69788153599629,12.360427380457452,43.09739925017068
6.071249900000001,7.8692548511728795,-2.227387350622282,0.8100838738359596,-40.72466587571582,9.32995389082471,51.884500530750465
6.0812499,7.621044086800519,-2.276469758183324,0.38955402641594306,-44.41321509897001,5.354473361748899,61.04112014168262
6.0912499,7.404715563360081,-2.313130845718269,0.047348024337345536,-49.107957007100545,0.06641584856637008,70.75478168447853
6.101249900000001,7.400332570984093,-2.430070332450762,-0.00570410138299653,-55.59336169087865,-4.396497400894676,81.77426890265738
6.111249900000001,7.4513815973672495,-2.461832981760721,-0.21574818648149766,-63.016738825384195,-8.216116964402302,93.61957013651734
6.1212499000000005,7.31861899411001,-2.0568857459556367,-0.7457667470106031,-71.84946742600191,-16.789639694524674,104.81495552614176
6.1312499,7.340871023993449,-1.6486787037404693,-1.2796495068701084,-85.27414313198304,-23.131531981922603,116.3038978489147
6.141249900000001,7.658328820274612,-1.7585788518000798,-1.1281455527156528,-99.4740510093073,-25.60411418070829,129.07970382456918
6.151249900000001,8.163190557737918,-1.9710351619865103,-0.735862735072075,-112.23068004105556,-27.924283629107695,142.960756251733
6.1612499000000005,8.722690423382616,-1.9864577633310607,-0.8835093249048861,-124.18165915729627,-28.755349670924293,156.34603216459357
6.1712499,9.336986480664981,-2.2029018312030018,-1.255845338899842,-133.51438964557556,-29.86572378035519,168.60614282626776
6.1812499,10.292966822933572,-2.9213735758419204,-1.592632854890331,-139.5576676866757,-32.2667866709313,181.85136652521942
6.191249900000001,11.55899007339852,-3.6999414358946447,-1.8625878325678351,-141.82472860558275,-36.40318317177688,196.49965754273822
6.2012499000000005,12.843845311272911,-4.083895645138947,-2.0342495197438004,-141.4086844105044,-41.37583187533094,210.20389133984642
6.2112499,14.218036866048767,-4.1619054338566475,-2.327591721019503,-141.17098679994564,-47.11358203647897,221.27036731772938
6.2212499,16.000377119884917,-3.9793033155773627,-2.8786262828233147,-144.64563467230715,-53.52842037775085,229.0770729045588
6.231249900000001,18.149026028034704,-3.5347090503231353,-3.3862353895426343,-154.7270146771158,-60.9763521471413,233.0687312599995
6.241249900000001,20.761339401002513,-2.6123795670237375,-3.5533831609463182,-172.82382175285468,-69.82866897788905,232.48121597247234
6.2512499,24.195117527753936,-1.0854959491038794,-3.3116672106249494,-199.41967061978036,-79.6253676725113,226.3640654136542
6.2612499,28.234057018795145,0.7924585291777755,-2.3818799945421425,-231.96524394161392,-90.51417552930495,213.65171896324821
6.271249900000001,32.38279754082554,2.712540694355187,-0.9574297160109552,-261.59437640205266,-105.45592166128087,192.20222761671192
6.281249900000001,35.987539766784465,4.250041885928461,0.6091476961993282,-279.6054331183621,-126.91732936642391,164.48496079453486
6.2912499,38.73148235816936,4.143531534730496,2.4335730139671807,-281.98575403916465,-148.16652245031912,139.8140816639741
6.3012499,39.7782426777294,2.0279250925270973,4.303958145596296,-266.472668081753,-167.56710488839917,125.73183915074664
6.311249900000001,38.30653964918305,0.08055734095912594,5.9090064148848835,-240.8113258444292,-185.6454192665675,124.76221469140188
6.321249900000001,35.67857616633011,-0.8652353986230206,6.765135780874313,-216.39686658866907,-197.2737395364857,137.34940101977733
6.3312499,32.80298387948262,-1.2126159698754249,6.464905544344024,-206.78597535075377,-199.44999746492178,165.9437093728283
6.3412499,28.696100861557966,-1.2979352378110056,6.213076291160489,-223.03000189592282,-189.77960945671785,210.27500456862455
6.351249900000001,22.537662749949178,-2.2887871915329003,6.909649215717843,-262.86157942909995,-169.47305627893,266.1458651887753
6.361249900000001,14.260666370267879,-3.616386787195399,6.495302542721681,-317.1487186432883,-146.51369846061448,322.65543713759945
6.3712499000000005,3.8659545519293324,-3.3868156142637322,3.545197553366423,-378.65743843258474,-124.89447581739934,365.4938488878923
6.3812499,-9.17885840689883,-0.4892284882095443,1.4998649591519202,-445.3601032135815,-90.2581684272906,395.619309184553
6.391249900000001,-29.95938964241849,2.96527253047262,1.4809984283710473,-494.1379680079458,-45.57445737766521,430.21333544197944
6.401249900000001,-57.72791978071816,-0.7307191627549612,-7.929372390993552,-501.26627686154313,-14.02907816444872,472.24093555293524
6.4112499000000005,-77.53628831450719,-8.317959587344266,-24.559087711228514,-501.7531642084917,1.4634599884257882,479.6263717300152
6.4212499,-74.12203582535528,-7.310597307176314,-23.06405875025477,-470.55489546767365,45.149368625410034,398.3311525818997
6.4312499,-49.65548126422517,0.8589509027710469,-5.700348776881697,-358.4887637471102,134.59269047456888,230.61548583794473
6.441249900000001,-31.432549087078147,3.86818345614757,4.298438646883451,-174.6659736600909,186.71714831397497,46.134098055125875
6.4512499000000005,-25.58227168804723,-0.08343832269134158,1.2802017065847826,67.88528096904612,154.9436449084598,-109.88998552853286
6.4612499,-22.562288684936078,-7.416042928854787,-7.704357958636787,333.44795196387946,62.263829936788795,-222.1905066788355
6.4712499,-25.685949249292243,-11.928287399203244,-13.864376115749305,489.67768583286085,-35.06579733367632,-263.41870775343375
6.481249900000001,-32.16979841442558,-6.18492419740789,-14.82788104496038,503.0716805083654,-108.76526117635352,-247.7670962854188
6.491249900000001,-31.666523405595356,4.548889849302788,-12.89759638071096,501.7987088109826,-147.66509745255266,-226.93227267739022
6.5012499,-23.938466299881078,11.63613130852081,-11.667279001564161,441.3724238218482,-146.07365188634012,-226.69351113405364
6.5112499,-17.198250209892745,12.628271417410117,-11.960645201392213,275.59351831888745,-120.22833770780663,-240.69655312769203
6.521249900000001,-12.13940456613871,8.198008510242534,-11.473938149944724,108.07535593814113,-86.94662002587724,-251.85701320005262
6.531249900000001,-7.200197462518595,2.0167279684023414,-10.193800309893142,3.82001713888121,-54.83477648414508,-251.1949003270301
6.5412499,-3.61851339465854,-3.4831181861959726,-9.220182405660452,-45.51694556223898,-20.873733999994293,-238.11386104073037
6.5512499,-0.7640592739717325,-7.347029301121155,-8.495085567617322,-48.11143279510255,10.160545725719079,-215.3274473807824
6.561249900000001,2.373837073112238,-9.217199904228515,-7.792973628882655,-9.696084764433309,33.50530053724797,-193.3074377453761
6.571249900000001,5.051560785795392,-11.064786015253748,-6.610374178849442,56.49904191249324,51.729359272241645,-171.3528604764459
6.5812499,7.296369844014222,-12.997000735171332,-5.368451339592214,133.16471723547284,67.39679891575928,-143.80016273353172
6.5912499,9.28374046759501,-13.104608510341933,-4.686459739315511,204.42229046727036,81.46919301523775,-116.54070618033273
6.601249900000001,10.354123381241907,-11.418575294829765,-4.191965096190189,259.68973940483414,94.31910661892258,-97.76198634178682
6.611249900000001,10.671451020368055,-9.610685853420119,-3.431896733847746,293.57118201314336,104.44680726450441,-87.1883279973702
6.6212499000000005,11.132899842284598,-8.393740523763247,-2.941278224733031,305.8951731110298,111.40303089557364,-82.1253150916069
6.6312499,11.681900552619204,-7.246797062526101,-3.353452233069246,298.98670062475577,113.87270425599844,-83.44316243692474
6.641249900000001,11.879632083611858,-5.9617799644514955,-3.804100951473745,277.6213678946841,111.2615868943101,-91.64342412521806
6.651249900000001,12.540759617399189,-5.83863439878014,-3.50224113344558,251.1398644057731,106.52402789388255,-103.01204838746978
6.6612499000000005,13.76774220790193,-6.48808602037049,-2.8039889717828066,222.299020386847,104.76365294348979,-111.66125685187252
6.6712499,14.20208906581978,-6.16042620781693,-2.2704615225369404,191.40516093645448,107.12148518948928,-119.9176365497974
6.6812499,13.6498158257545,-5.392406700665728,-1.9838572962273193,163.07370791399615,111.88955165366815,-131.9910622138389
6.691249900000001,13.14948731222831,-5.116135409972603,-2.254551404068235,138.72122981759952,116.39798993808361,-147.36259448283712
6.7012499000000005,13.309555791494478,-5.55425471271443,-2.5066511703682557,121.85424101399268,118.40941139857593,-159.58331985542364
6.7112499,13.330365157341065,-5.938083063283968,-2.384233523904439,113.5161182826545,117.92409761384405,-166.0925551306855
6.7212499,12.581234299440212,-5.7458633991873755,-2.614288533295832,112.25561612809706,114.26620136511532,-172.33553426540777
6.731249900000001,11.698738723643121,-5.383022940261961,-2.902065860982997,117.19891463973646,109.78742205384654,-178.36341993505997
6.741249900000001,11.136747022468604,-5.089304837117153,-2.8100963433796338,128.7332535090428,101.28273517525987,-183.78426178925054
6.7512499,10.800352511339176,-4.983623039178876,-2.6148802064733,145.56385373642985,87.68364209339131,-188.11424271235938
6.7612499,10.397895150578861,-4.914328742864327,-2.3691348843292257,162.9041422141069,76.0804065556769,-188.53083425520424
6.771249900000001,9.839282966482351,-4.472265367660545,-1.9924672611189453,177.45011490760933,64.61869544411933,-186.62812168387472
6.781249900000001,9.994692901301777,-4.259514646795836,-1.18577055471201,188.59210095779366,53.226528133377464,-180.9647403275013
6.7912499,10.673103548351554,-4.445702745899409,-0.09526429919425818,193.96154916764132,46.50747920736295,-168.04956238258757
6.8012499,10.419747637498016,-3.5833346693292314,-0.012661942185252755,190.64635119355714,41.98167948503913,-154.7881731611899
6.811249900000001,9.649160075867478,-2.4615408518002106,-0.9154729131634533,181.2474783359445,35.018580643689326,-144.9823940216806
6.821249900000001,9.416684732673795,-2.2273350560265412,-1.6872742884183785,166.60526003303326,26.866267059228257,-135.75847138941137
6.8312499,9.36871749502098,-2.1073556698279066,-1.6473079209586363,146.10645816412156,19.61845457910574,-126.60310081285867
6.8412499,8.953566459935606,-1.5452903414552566,-1.082139356737929,123.03213519758998,13.072220292927515,-119.30978262518937
6.851249900000001,8.399149428243252,-0.8599657009533244,-0.7286347270597983,101.56056416102571,7.339797247893509,-117.08531140015104
6.861249900000001,8.165605088275697,-0.6278207993278052,-0.7776358958914805,83.77616182030576,2.096249209562237,-118.53788273644895
6.8712499000000005,8.546837905635497,-1.0372337287307083,-0.477599135178215,68.61683499531713,-2.404847930641879,-117.82373128005976
6.8812499,9.166132313676492,-1.7446035536965463,0.1544784161692299,53.93054298001154,-3.394426737056804,-112.58683058591399
6.891249900000001,9.615939895863095,-1.9788175083887334,0.34470503326621105,38.49700049187908,-1.466236492481047,-104.95229382094789
6.901249900000001,10.030374150507813,-1.6546084058761232,0.5213443693579239,23.382225704381206,1.8802084690028193,-96.72663601977737
6.9112499000000005,10.226186448039556,-1.3139736157747088,0.8839741776964584,10.955688914110366,5.271516400913627,-89.55371841504855
6.9212499,10.011816552693832,-1.1114224213474848,0.8187820039361736,2.9963037914334025,6.955416787398501,-83.43548989474633
6.9312499,9.670043487861367,-1.1183978725706818,0.5756324043998383,0.6493371156202291,6.914392977244452,-77.7480437952835
6.941249900000001,9.513910536274814,-1.3562030891810937,0.6023490727768093,3.489078410250385,3.855529802847655,-72.41597481071145
6.9512499000000005,9.617638826546667,-1.6103688450483518,0.7586694129006826,8.808600321405454,0.9795239162349025,-66.0617290294381
6.9612499,9.732457720540232,-1.659460221203805,0.9305969585912123,14.655139709221043,-0.6820942733093699,-58.730127297070936
6.9712499,9.597344148537102,-1.4852705989129436,0.9627020675734981,19.374043389145108,-2.188458380879552,-51.09681961902028
6.981249900000001,9.327305892029853,-1.176606982162008,0.9628785147655434,20.93756842491056,-3.467626007916738,-43.92957006101955
6.991249900000001,9.159789526146678,-1.0095983236313528,1.1080151890983774,19.587205476266796,-4.2364789822719615,-37.6092554710764
7.0012499,9.177036315395737,-1.0410630331095019,1.249966746509855,16.608377306898642,-4.469852804653391,-31.337515501965335
7.0112499,9.171686356554574,-1.098055739132518,1.3620725530860587,11.404587692535745,-4.080061606238749,-24.839745068279687
7.021249900000001,9.103817186385719,-1.1206343475127087,1.636520091238619,5.239661864490214,-3.0360829510523444,-18.86003139750415
7.031249900000001,9.193543018756088,-1.1634690287491323,1.962648835207366,0.1111543939305724,-1.3575481341103108,-13.248975356011725
7.0412499,9.311421794495143,-1.2451729159724907,2.13920265273394,-3.451903975155641,0.22030484362136474,-7.987733464149461
7.0512499,9.282972390895837,-1.3028305255565025,2.1253099387899135,-5.355241869411424,1.5319856573465673,-3.4922294067588457
7.061249900000001,9.23631063009807,-1.3705621841608353,2.062684127464758,-6.348098191385374,2.6935181114265796,0.30371966616036333
7.071249900000001,9.266186638400104,-1.4308522289611663,2.1831827443434824,-6.145411255969572,4.06093520712825,3.4546502911316046
7.0812499,9.401483644239763,-1.3791071250188653,2.3243980379017652,-4.377686445616546,5.522374451285486,6.016752521102253
7.0912499,9.610623912649295,-1.3109830854871585,2.352175578221024,-0.9038645447198397,6.5868057392104795,7.980090051784873
7.101249900000001,9.704153685102465,-1.3160972287538972,2.3895642084787205,4.42324217599198,7.472864455220095,9.57377849298263
7.111249900000001,9.771406076288134,-1.4179336461534746,2.3169100621604493,11.129412783958093,7.491837191023915,11.097091941643983
7.1212499000000005,9.879444413038012,-1.5718611833476808,2.0638727141738977,17.910251529217337,5.7022758014805595,12.913577595022634
7.1312499,9.87971889400777,-1.553796871356367,1.8030525462436027,22.816098010059118,3.3118067129470194,13.9392753639747
7.141249900000001,9.97595689603455,-1.4436840203515353,1.7546287637780953,25.53242384690628,1.1240487964126777,13.890819598101045
7.151249900000001,10.232934370848008,-1.4424536599142672,1.8312453580713048,26.077254841052213,-0.5428862767741961,13.242930555963234
7.1612499000000005,10.362160368794651,-1.4214242072494043,1.7689356313682316,24.169236274447304,-1.43122156846691,11.647720301475903
7.1712499,10.312674239814442,-1.3369334379575653,1.6686136866630317,19.64157736634312,-2.099255901863461,9.797062620525717
7.1812499,10.195794553528707,-1.435865782455086,1.6088285985874304,13.124063479387367,-2.6665398648927714,8.842713060186753
7.191249900000001,9.985302738254415,-1.6939679553776517,1.5623411476710982,6.0657385715706225,-3.448862058216361,8.258890636889724
7.2012499000000005,9.722346405187718,-1.9458725394318994,1.5691295916688366,-0.14030234813885345,-4.695999622450904,7.871095402948924
7.2112499,9.526825879837025,-2.2509832290770104,1.5195622206434283,-5.05205457596934,-6.0502233570237225,7.986621784542745
7.2212499,9.351323384249367,-2.50896650148702,1.5001683155783012,-8.921160246673184,-7.2771850134190625,7.859776206535216
7.231249900000001,9.211258226043558,-2.6977036420497718,1.6330205601897765,-10.980417347611503,-7.76197518333581,6.973722495945863
7.241249900000001,9.136202539996509,-2.927026617706126,1.7279157948155879,-10.992362553748178,-7.43679856149063,5.664643784270972
7.2512499,9.076777246858658,-3.127909187874906,1.739000666020862,-9.83765304725862,-6.796584251708919,4.606308289237211
7.2612499,8.984862279771708,-3.306885323050817,1.7802092569647243,-8.139954711596813,-5.773668359185373,4.3762877595082905
7.271249900000001,8.899381389061393,-3.4312262846875035,1.7955256496136327,-6.101300108642515,-4.484929797552971,4.8768952758672945
7.281249900000001,8.918252244167208,-3.5169600373963696,1.752716345351553,-3.785875037694616,-3.4602338716611403,5.635026017131504
7.2912499,8.901898002803819,-3.5766359024012906,1.686754083635803,-1.7924836808247038,-2.497619103939851,6.392937591986338
7.3012499,8.811140606345992,-3.5979728458989495,1.5240165202635088,-0.2794989766351692,-1.5814424782731191,6.696330874560518
7.311249900000001,8.837374192096037,-3.5374576792561094,1.3478750695970951,0.42728371387424435,-0.9508868446605019,6.268464671648311
7.321249900000001,8.970698223575132,-3.3060519315360195,1.3103939461856673,0.04888182608193125,-0.2029113174182216,4.9217779164870725
7.3312499,9.137562704178917,-3.1517863426320774,1.4043097945821676,-0.9725826361463495,1.0602483992246452,3.304017248906551
7.3412499,9.23632381162415,-3.1998866672123265,1.5394523380518286,-2.390379276337225,2.971121723337442,2.307660200036168
7.351249900000001,9.180705311791248,-3.235812149223768,1.5294580483457059,-4.05244845537035,4.759852043275675,1.8633687841339621
7.361249900000001,9.144075036724445,-3.1977085790726116,1.4883100732166743,-5.612425822469936,5.7077588333255305,1.7620665091184775
7.3712499,9.202829763383425,-3.1741904392872597,1.6023550383873926,-7.10757911754271,5.957726519693501,1.93407533248943
7.3812499,9.18088206260399,-3.275868090119747,1.7033060360615861,-8.672481165187843,5.980180570156756,2.4043458234605977
7.391249900000001,9.002398902570834,-3.283213732396803,1.6607572334520757,-11.232884431952044,5.796652282939397,2.608466567680037
7.401249900000001,8.812986017537183,-3.0287237831467917,1.6292323946220235,-15.1389457044539,5.1538554838629125,1.633996624007428
7.4112499,8.745765680826128,-2.833259463733954,1.676298084891966,-20.02633438700372,4.18374338023759,-0.029674645769321932
7.4212499,8.84734160705315,-2.7718939381125205,1.69928904569831,-26.345002847262055,3.86622213339976,-1.7034234352765047
7.4312499,9.127367751752015,-2.6376451113765245,1.7144571057819802,-33.26542859191908,4.2616348608108545,-3.050105021417761
7.441249900000001,9.320207679889876,-2.577806853251761,1.7258217528919568,-38.167522282937426,4.598806534290192,-3.735334376157981
7.4512499,9.283414019529795,-2.6639688844130105,1.5809914756856576,-38.72483729920196,4.652666677248534,-3.582467048622113
7.4612499,9.272980605147541,-2.7506531797312253,1.2681397904836078,-34.5461778705521,4.227021936523369,-2.932246519045627
7.4712499,9.317121870373898,-2.8199281099165137,1.100260421758349,-27.504047769741934,3.013035383917098,-1.3783726509524017
7.481249900000001,9.304598845274095,-2.814447871812311,1.1429747402815924,-19.590628739794955,1.8545689159706782,0.48489847817338655
7.491249900000001,9.259718895404967,-2.6565970180936556,1.0757836908039469,-11.955616300356498,0.8771202798933937,1.8736382384878898
7.5012499,9.259701166882905,-2.5293088524182394,0.9800119643483112,-5.540544667964806,-0.09419861405347214,3.35444563131489
7.5112499,9.376125444551477,-2.4865242309474787,1.032141392302155,-1.1579600761369142,-0.38595381927275996,4.923871030766462
7.521249900000001,9.500905651065107,-2.4191136925750487,1.0931426995513818,1.1272455363717047,-0.21277484680130457,6.637607373218239
7.531249900000001,9.470432295620785,-2.329633936590249,1.154411988499362,1.0993095129382537,0.41389977418962054,8.579017727919945
7.5412499,9.363190606396254,-2.21142120649556,1.1505107609481868,-1.1174011052599282,1.5252471466817987,10.210350891431474
7.5512499,9.270055739256515,-2.153295155421287,0.980455165362057,-4.841552068711695,2.1866284198321364,11.644433991537817
7.561249900000001,9.082955005065372,-2.273687495894215,0.8857648873828741,-9.667680097095982,2.573881718446672,13.58639553558392
7.571249900000001,8.828790051633778,-2.396450129386548,0.8577600424294296,-15.450123848130126,3.3364594725009926,15.776124340338802
7.5812499,8.762180929130036,-2.4081064662284977,0.8266239875947677,-20.26796394741774,4.019819286810121,17.503004231780473
7.5912499,8.816352111670371,-2.457262596272695,0.8938678191533801,-23.387162630910737,4.921120606846236,19.188280656711335
7.601249900000001,8.737220944260761,-2.511268048339028,0.9493493495533137,-24.751680396101165,6.0420867252450865,21.18347645858296
7.611249900000001,8.582727174094178,-2.5379750625050264,0.9029213131327796,-24.164298203548913,6.887830143950495,23.265713554745055
7.6212499,8.460877836187816,-2.655133390654962,0.8239495936946208,-21.65195336216978,7.417219676350484,25.748380990587833
7.6312499,8.34950435079055,-2.7631115676165425,0.7674910037433671,-18.15062058486433,7.641692177253657,29.126262459973873
7.641249900000001,8.267533508559433,-2.7678753745931663,0.7520256165617454,-14.909328803757145,7.514347938926721,33.18402891870783
7.651249900000001,8.209410676079802,-2.7624157070830724,0.6857523191698763,-12.35773854197463,6.894637302725499,37.74078195066953
7.6612499,8.115470814948496,-2.747182580393514,0.5395933113779315,-11.259758113043251,5.989464359565953,43.01102163793598
7.6712499,7.980116442643193,-2.7815354061341,0.461111806859439,-12.10828819803992,5.231368770990428,49.224718943394066
7.6812499,7.847875947736117,-2.921108021862308,0.490915241634045,-14.391150206186044,4.60415182322951,56.837958670658
7.691249900000001,7.790358138496357,-3.075137869636793,0.49202726016519305,-18.098095331801876,4.108645065190895,65.43274273023977
7.7012499,7.691192109588894,-3.2480326319599166,0.3802411288235877,-22.97876314881564,3.681849760610565,75.27981427145335
7.7112499,7.5011469569940905,-3.3828451501545995,0.2557185001370258,-29.207592742078226,3.2143649122792803,86.59459668013395
7.7212499,7.440806217129817,-3.4363379504393787,0.1892098298710136,-37.025007197105545,2.3809028209491507,98.60897177770187
7.731249900000001,7.5259703818262755,-3.595986486640572,0.10869181064315316,-45.26211314919961,1.9682781680337522,111.71947836264229
7.741249900000001,7.623461465118154,-3.8742291247869853,0.058669258777776456,-54.44927301074696,1.7485026206790562,125.79066042867909
7.7512499,7.72271062101375,-4.102479462162864,0.08918984595655756,-65.2049371845482,2.098889832154792,140.00937417141296
7.7612499,7.738459420019586,-4.11492429883756,-0.0048997872585151815,-76.70961734622311,2.820006603026819,152.73670467458743
7.771249900000001,7.76435235216763,-3.881437137882949,-0.2592462691301335,-88.69535596991398,2.3963407776116505,161.8908360857527
7.781249900000001,7.9675816342858505,-3.715208196344258,-0.466764795062119,-100.10580740797249,1.1018626553165258,166.92310696155835
7.7912499,8.396878082288094,-4.006237622201959,-0.5435599920735152,-109.4575794052273,-0.49709220060910203,169.97855051657973
7.8012499,9.104794951657869,-4.705179473133543,-0.7011197127384431,-116.03663326878599,-2.440104726669389,173.42731570426938
7.811249900000001,10.025793348447264,-5.527733109279413,-1.0411992111298587,-119.22177119620962,-5.174180947113017,178.16209200633537
7.821249900000001,11.11061204279624,-6.442391643537187,-1.2516400078856886,-119.2705832545241,-8.735165292135745,184.60578116431387
7.8312499,12.311355589178255,-7.275927453087403,-1.2772824220153745,-117.38461957581889,-12.787472192136493,192.24360990769745
7.8412499,13.85362862383527,-7.826171458954518,-1.5250313125259574,-116.02201779811757,-17.593485460451483,198.94372158615565
7.851249900000001,15.840786868868257,-8.080590932502586,-1.8369186017258856,-116.65683092259839,-24.191945278994204,202.62287024444402
7.861249900000001,18.117161314864816,-7.945911927669151,-1.8173576314813555,-120.14068050430124,-33.284535687434015,202.82196489528562
7.8712499,21.28386331673982,-7.318642621811671,-1.4387818116518911,-127.39115840727959,-44.42363541001771,199.5992904099605
7.8812499,25.95341997100148,-6.09640904750461,-0.9646710781487102,-141.23512639648055,-58.0270949194832,192.51217625540832
7.891249900000001,31.643230962911346,-3.7604930604003193,-0.8609128420062927,-163.50499046576235,-77.41755642173958,179.39598120692355
7.901249900000001,37.59739203655462,-0.44963274584950874,-0.8097498487127026,-194.03790105215143,-101.77376768605137,157.7258236563105
7.9112499,42.01800906554965,2.767286074661651,0.24036403841925055,-230.75913514179595,-124.19375490190214,130.92653542100857
7.9212499,42.8104138236345,5.638496645998956,2.006192032049717,-266.2471895794768,-143.61632212874798,101.81636000956439
7.931249900000001,41.21088817000231,7.7466070955383595,2.7128403304729884,-298.47685899561174,-158.44076214733292,74.94921076342808
7.941249900000001,39.68200983990532,7.329750877368594,2.796811523486131,-326.61144662268435,-164.11300092815034,61.99581394360388
7.9512499,37.06016840908531,4.709655030625136,3.6119791280385867,-345.70191058252374,-161.28897436032258,72.55644338862788
7.9612499,31.743040289983508,1.914861010352015,3.8861967810093128,-355.69284901489505,-151.45408588251237,106.80798753120995
7.9712499,24.042475332082645,-0.9641343058796703,2.8032775757492803,-358.98388967644223,-137.83681103215628,160.5782014317955
7.981249900000001,14.82605270252259,-4.418148227934257,2.18051110021289,-365.0724652841608,-121.90058165155305,230.9100146745535
7.991249900000001,5.103902909498989,-7.032068447958393,2.5489330492033826,-377.6310294274279,-98.8041169840252,312.6114116215389
8.0012499,-5.959270798955593,-6.137368059180649,2.4774600941616427,-382.81768241768526,-70.76595706787523,387.9292421253394
8.0112499,-22.993229895850373,-2.0267069417309513,2.5074911944423652,-384.6132763749656,-43.08494243347387,444.4125588791958
8.021249899999999,-46.67445565950317,-1.8635101678845458,-2.670251968976482,-398.2345116575443,-16.57768145457398,486.10819885048573
8.031249899999999,-67.98815845423148,-6.836413141787053,-14.461935102786699,-418.5300263127871,-0.029493459286331278,501.37718875399247
8.0412499,-77.36242856894883,-8.697678010952014,-19.595433706001845,-428.255477595212,20.63684869790622,452.7458409991816
8.0512499,-64.46959593005124,-5.519369480643312,-14.715062419212362,-419.87255028000936,69.71187948053162,313.7788330667724
8.0612499,-40.10524233294831,-0.48629468465111775,-7.241941024285269,-372.35341025172903,133.9241413673491,106.67131105030042
8.0712499,-28.044204894283506,0.08363056583817838,-0.9949208798462339,-239.01074042332985,164.35829737442023,-91.7831837647442
8.0812499,-24.176508358643858,-6.068985496977893,-1.359438932709889,-11.968045510757918,136.74131894559437,-230.54697852325296
8.0912499,-21.14814342309738,-14.61415141059311,-7.06670877139677,262.4911361040151,67.96543022399686,-298.48873673475833
8.1012499,-23.5949656408369,-17.035858886868237,-11.315002398469847,466.58789824173095,-3.3503408473749854,-304.73367471665097
8.111249899999999,-29.24595749831682,-9.703239545049769,-12.415508124724694,505.4743915588185,-65.40906266671779,-274.5658125735906
8.1212499,-27.80021063821611,0.9238547019526067,-12.12316987001857,502.2010310757601,-110.0351796713607,-247.8217016323048
8.1312499,-20.099557180413047,7.714001879324714,-12.230394172907955,475.57091780900817,-122.3512773514359,-243.7072832945853
8.1412499,-14.55763265557165,8.539680509108967,-11.691963357101866,350.955901208082,-112.5774921942894,-248.98548025037744
8.1512499,-10.387822616013473,5.881680375350692,-9.849387942124165,207.27325094612502,-88.53557987477025,-252.04085419332762
8.1612499,-5.538837421951234,2.6434962037278487,-8.284886033548238,99.46801476973341,-55.731985485094626,-253.21329296011066
8.1712499,-1.8254508800300677,-0.24439507477671749,-7.9773544870007695,27.536812194036,-20.856426269361037,-251.43859151306307
8.1812499,0.8808384631031297,-2.8371833900998213,-8.215252341851238,-6.379583947367598,14.564973094357521,-243.20422647883848
8.191249899999999,3.765309529623964,-5.058694857452319,-7.957152255217736,-5.06562387164131,42.01598930294257,-229.23452914804392
8.201249899999999,6.50771712676748,-7.081558414272878,-7.298327569259527,24.42882718833893,58.54259174363723,-209.61793866685036
8.2112499,8.566067758548343,-8.558955817296127,-6.838017385203482,70.12724097722955,69.31675153253497,-184.17488750599512
8.2212499,9.852448803400499,-9.077651329811696,-6.361145369967266,122.48703800371685,74.04337451591942,-158.54496325455443
8.2312499,10.578636747911137,-9.09173075451947,-5.350640436703783,173.14197904179736,78.82126894917639,-134.67718933347547
8.2412499,10.909457608192309,-8.443389220259036,-4.402769639999873,211.95038262066006,89.12575389426998,-111.91873668777697
8.2512499,11.054834949113456,-6.6893748257357,-4.174860703985096,235.08883944940172,102.59751083715723,-96.01607270644409
8.2612499,11.81141035863148,-5.053965002118796,-4.482224334616927,244.51043376089387,115.33977979516656,-88.56641350434961
8.271249899999999,13.099939953650619,-4.444656793953034,-4.774643280610351,241.59655109101487,123.62768054533382,-86.95783333239798
8.281249899999999,13.476961003977076,-4.028972768830268,-4.718887063567104,229.66750419751645,127.29191708656542,-89.11995312325372
8.2912499,12.644426911985185,-3.5756727129006918,-4.399627750673299,213.1004068470828,127.85403677474015,-93.06036735465123
8.3012499,11.60498316789779,-3.3430580492914803,-4.158774441449684,196.3110897468991,125.65782832453823,-97.25271262711108
8.3112499,11.091959769773638,-3.486279568843905,-4.138433880533902,181.5901060669785,121.10213279476267,-100.59531103712094
8.3212499,10.956447019209019,-4.097593866644042,-3.9454637392210286,168.25292287496669,116.76725930630795,-100.61597152915637
8.3312499,10.602183209295111,-3.850273529485993,-3.6450534715128753,152.61031003023692,113.3380207876995,-99.56514901165909
8.3412499,10.259373906580805,-2.9148807779967494,-3.505013895231002,134.66230264855443,109.05102069598784,-102.14975751674699
8.3512499,10.457990039311111,-2.8495074800350118,-3.131712601143759,117.35578089835955,105.04120710457988,-106.27152613894543
8.361249899999999,10.771347082325702,-3.2462412754461045,-2.4145133352005814,99.55954368394751,103.88307643929886,-107.5605590074764
8.3712499,10.683148523835444,-3.431484326129749,-2.0381942026614186,81.68123623515989,104.96920598323815,-106.52783808049962
8.3812499,10.277431880738634,-3.646178501517571,-2.1070364301913282,67.04952306428352,105.41496883656926,-104.73435050715995
8.3912499,9.895491052850097,-4.264453728658105,-1.8581179356084376,56.87412612417067,105.38093359831288,-100.47181494106133
8.4012499,9.48725431662113,-4.9929992607793325,-1.3081241125818148,49.55076745203209,105.92039004418764,-91.7101290599447
8.4112499,8.84135079476671,-5.0848577927614,-1.3020155367751032,44.436670307754994,104.96032939315928,-82.16101196658367
8.4212499,8.199012648165375,-4.762057949807751,-1.5626229105246043,42.09597043381108,99.95776176385087,-75.18800273931447
8.4312499,7.838688545160063,-4.574450782329026,-1.4820057971524108,42.10531355803458,90.67242819170515,-70.5905823587261
8.441249899999999,7.786159450259817,-4.892057533268236,-1.3371417275898922,44.7096456515685,78.614766481915,-65.85851495069038
8.451249899999999,7.834436027716406,-5.386286775476845,-1.1803628090652885,48.10531707462419,66.86219108522911,-59.65638851134104
8.4612499,7.621749835867407,-5.502094500232102,-0.8736912831549348,50.53085799503237,56.31805858683418,-53.01006639327946
8.4712499,7.330622996144961,-5.377639088466138,-0.43884545924490803,51.77415706654819,46.98044475188652,-46.74703632415415
8.4812499,7.413969568961323,-5.479727315214033,0.19290661829068548,51.10764248531597,40.40221863195109,-39.85912249315965
8.4912499,7.513988930283068,-5.528284710676875,0.6963110276870984,47.544926212578936,38.08504141000238,-32.22556963038619
8.5012499,7.387199526317793,-5.03675758856698,0.6295594262815409,41.083994723523965,37.57004247250645,-26.065735650361603
8.5112499,7.361073307019502,-4.454495517443521,0.3003849474976827,33.242227916939285,36.19606089239442,-22.380954585529935
8.521249899999999,7.542810962916674,-4.151439767108976,0.23870787432735652,26.32180634772011,33.991370036662275,-19.94078710042145
8.531249899999999,7.686236175143681,-3.9703751425659393,0.455166753936918,21.843066704459357,31.81902028798187,-17.823557908009374
8.5412499,7.738980033608085,-3.736411152402613,0.4574015564291668,19.731896112161643,29.29977303692676,-16.00194312779414
8.5512499,7.882800012974594,-3.711570738313719,0.16647662703384328,19.03290439772128,27.40960158087748,-13.99095832314557
8.5612499,8.078600850419447,-3.69619582582586,0.04004256394029362,17.911591227094338,28.407681122306585,-11.44821145534412
8.5712499,8.09576482689079,-3.189440441881529,0.021067360763662408,16.42162463583411,26.69520036873183,-12.055513516287842
8.5812499,8.109513961172253,-2.5640147856419873,0.13722717180049768,14.410150073740683,24.47117400999017,-17.765135071598838
8.5912499,8.415680699015684,-2.3869265325537845,0.6760799439856565,11.20983159779968,23.9592580424653,-26.184117739199568
8.6012499,8.845725270983548,-2.542304914400896,1.3909755902101575,3.561581029152078,24.338555823899142,-34.77549245107811
8.611249899999999,9.117990827220614,-3.1190599995063595,2.0511164011476914,-8.073457293270327,27.346475899502963,-40.684607918076225
8.6212499,9.292376930456806,-3.8504840570372876,2.469980820665802,-23.582687013162754,33.39661122721412,-42.12033645347333
8.6312499,9.377946918602461,-4.492169286939142,2.5725918291075134,-42.172628927667354,40.864380620291044,-39.7824965602318
8.6412499,9.405448134443139,-4.856105163888362,2.6326896926415735,-58.207445629404205,48.53082093708225,-35.68386443881726
8.6512499,9.418884892493738,-4.859999933068058,2.6963066511122262,-67.34608079552363,54.110401820275406,-32.72087325965272
8.6612499,9.51012214103638,-4.691172534582504,2.708049601994097,-68.37025447247831,56.71241061656877,-32.34754769199785
8.6712499,9.638740069260278,-4.480050964767378,2.824026376342404,-61.033810826145306,57.033966852063955,-33.48595369054064
8.6812499,9.603046808627138,-4.501871393622797,3.1791082770742585,-46.61785071420758,55.327265414413944,-34.37061756199422
8.691249899999999,9.576358663027799,-4.681330674987806,3.5057250913856275,-27.649320073258924,52.54893845930552,-34.079515491804315
8.7012499,9.753154536811733,-4.71169821523021,3.5173215134504807,-7.358281818839822,48.85288789925476,-32.630345845220155
8.7112499,10.120118622531107,-4.551055448780169,3.532217963261139,11.811075932251416,44.34630800007138,-30.30400291022789
8.7212499,10.72067336208523,-4.209465523240581,3.7828170352818273,28.61649155973282,40.02381342630304,-27.532776245171938
8.7312499,11.40591124550807,-3.8415638950034574,4.031738761634831,42.140416524043616,36.061063536640475,-24.60358986021763
8.7412499,11.952736757307488,-3.5038976472878938,4.120173231501412,51.36560679765693,32.53486687402124,-22.10983990832051
8.7512499,12.409872555022512,-3.0799493223966006,4.147243034918919,57.48907623958396,29.102588103010266,-20.12919745899637
8.7612499,12.586491921949062,-2.819790713283986,4.169406789702168,62.051170733700104,24.38681598940686,-18.06186744353554
8.771249899999999,12.388803215214468,-2.564286863422117,4.104187212518441,65.94630680423913,18.5360348352078,-16.392012722856762
8.781249899999999,12.120340744744599,-2.1023221341499196,3.8802221249281703,69.09064104549387,11.342217129082886,-16.62777857804974
8.7912499,11.849653955523705,-1.873710368214764,3.5504276269727995,71.07486677638502,2.70702140673769,-18.320835044316418
8.8012499,11.599834312363422,-1.835572496366644,3.256535067678554,71.08946207657547,-5.942402974534437,-19.85979845296772
8.8112499,11.478286874784605,-1.948201407074634,3.1446807440904996,68.35572796074003,-12.340074515116259,-19.931871043062067
8.8212499,11.38478082948357,-2.12663153246483,3.2358621690327216,62.889431612001175,-18.27929462692369,-18.72087840710994
8.8312499,11.156217351685061,-2.0278721192397264,3.4539179534300013,54.109991341740574,-23.078719037073277,-17.105051438392643
8.8412499,10.80658806455935,-1.99508283669367,3.6066296867009955,42.428189542825116,-25.71767975280044,-15.98603021634457
8.8512499,10.412182804054321,-2.2803317801980905,3.5575901895390407,29.613650271513215,-27.250251062248143,-14.987856632025855
8.861249899999999,9.821632595327191,-2.907043304432235,3.473934900829426,17.395994039737072,-29.023699313311035,-13.115772876198942
8.8712499,9.178496402040611,-3.7508006149181936,3.5417091949224258,6.802630599723115,-30.460504300224315,-11.581997069980366
8.8812499,8.737967296736064,-4.348974124572329,3.734550831066209,-0.788327601272616,-31.740487828827675,-11.488230539173594
8.8912499,8.338104572849186,-4.609583430964593,3.848366565067298,-4.496291584855558,-33.506014765704045,-13.210387086565202
8.9012499,7.99323313913086,-4.644099154453032,3.781793707642155,-4.962058127316834,-35.713661160072185,-16.82259438857147
8.9112499,7.732566674440276,-4.805867809157325,3.7902855787677603,-1.8229526782848748,-38.22606042146404,-21.075658725615465
8.9212499,7.625235713765186,-5.141298603671811,3.927855581175232,4.310028763744073,-40.5610516240672,-24.17480046996812
8.9312499,7.735548528938597,-5.164894266923987,3.9189840091157047,10.907544423829936,-41.14020779598152,-25.1837812760548
8.941249899999999,7.779636895975905,-4.709861930432718,3.553329560629038,15.334282462895453,-40.3698926701596,-25.118003595927068
8.9512499,7.697192132528226,-4.0936272127506435,3.0106316419754173,17.382191623241937,-39.1359834869933,-25.057193341950242
8.9612499,7.668752282160926,-3.6598046766949826,2.520027026782436,17.356833739985156,-37.41064801323892,-24.629376165957392
8.9712499,7.766842182851697,-3.4141165983870936,2.251825642811449,14.738951419138798,-35.095432459794246,-23.11402419125994
8.9812499,7.844452489241209,-3.1426772914593863,2.1610669928532,10.873211688136877,-31.916496163628082,-21.12762742941203
8.9912499,7.791460411888389,-2.959034713570845,1.9861817931484365,7.199576605225692,-28.66877729365369,-19.07399600069138
9.0012499,7.670998611579671,-2.950208485384468,1.6756483945958676,4.429318637010109,-25.917191929802307,-16.45380276239453
9.0112499,7.587089729773361,-2.9236307661602545,1.391251287394836,2.5005463578061855,-23.521019713381957,-13.814576334416126
9.0212499,7.569254549241775,-2.9394337042859537,1.2920605775197525,1.7323569678199073,-21.54688752777615,-11.31732464637228
9.0312499,7.552613322838145,-3.1406833806177845,1.2631634509779168,2.6276269907604446,-19.86910558503538,-8.35964565612596
9.0412499,7.480329989201289,-3.37872254241811,1.0970092883863527,4.6695078042185605,-18.55590329472567,-4.831879611658299
9.0512499,7.4525815693573065,-3.5216784104029983,1.024228681445077,6.957753835851445,-17.25657298660851,-1.1492989575235644
9.0612499,7.558989927286611,-3.619214729127903,1.0971098961403247,8.859336720350166,-15.453548648394069,2.553670069161597
9.0712499,7.7146223418100375,-3.6705522022388637,1.1632511831530634,9.994504441321705,-13.218639478179524,6.198823972508305
9.0812499,7.848428153379377,-3.6099745253959754,1.2656282912320664,10.311120391611508,-10.41330293060929,9.206203496656116
9.0912499,7.913862323122667,-3.428775754331293,1.296003765715946,9.286989043710232,-7.310349612040652,10.9628236933951
9.1012499,7.937045797379417,-3.295145712151786,1.2672059921531975,7.245224654102517,-4.517407997945963,11.177640328780765
9.1112499,7.977011846339809,-3.325137381828767,1.2875115542068871,4.786393045127307,-2.022464227986817,10.461474629294026
9.1212499,7.984575834646331,-3.4150067971647027,1.275041893608833,1.6689467941216234,0.9096638805658748,9.444600511363639
9.1312499,8.038852168792806,-3.500812603592823,1.313212559393284,-2.401153292907508,4.3143881540596265,9.119518412621357
9.1412499,8.085284559687977,-3.478889328099475,1.522022386824095,-6.864125024868297,7.830593116454945,9.458976102047236
9.1512499,7.996339468334275,-3.389214033274869,1.702910746761008,-11.062599956341355,11.39111073093777,9.670425861814325
9.1612499,7.905479727981877,-3.5006506136846562,1.788046929456126,-14.330197502088552,14.469892115941505,10.454571303641545
9.1712499,7.912808901124207,-3.806865079267081,1.885502623264489,-15.783661629170457,16.411004928293444,12.399810170029404
9.1812499,7.938412225489534,-4.1011191998539225,1.9876571529768472,-14.71331375833478,17.050353142835547,15.57724104973335
9.1912499,7.944212553925226,-4.2961171230275355,2.0238304238450437,-11.744023321979158,17.1571768362962,19.172754097476933
9.2012499,7.962377352079605,-4.4280235214409105,2.025473516992438,-7.823012994409339,16.82994660382297,22.53026315071664
9.2112499,8.053247379005658,-4.445103452235258,2.0800959396585257,-3.4441373577158236,16.163001458711953,25.17467549530354
9.2212499,8.254971723740312,-4.372878922472356,2.068228402730825,0.610857266454478,15.295259369905176,26.50430733002672
9.2312499,8.573855218599922,-4.367879793261166,1.9747188921158898,3.713291345458698,14.234999883683434,27.297830319351934
9.2412499,8.956141596192118,-4.359578217280986,2.0223063227686358,5.544054363969346,13.748456676247276,28.250375279548404
9.2512499,9.269834533773022,-4.25860305017989,2.1971367171184615,6.104707568127458,13.868415113873285,28.7834850764978
9.2612499,9.46888680125577,-4.187526377808339,2.2890686788342656,6.297083208001333,13.838529964579488,28.779662335983218
9.2712499,9.49551488070432,-4.264469166105593,2.159916132657998,6.652363297622051,13.257544365360244,28.617708317547105
9.2812499,9.356852385421853,-4.4045133657367055,1.9448171536078396,6.693356560952767,12.191673693398064,28.87064416978706
9.2912499,9.20638112203728,-4.477802902500458,1.7900877223020917,6.629942198215677,10.914600813336884,29.627856080650748
9.3012499,9.026720173474018,-4.430461261223938,1.6840941508714848,6.469616604509547,9.132646537400039,29.99018245606647
9.3112499,8.873564985125022,-4.321497976139813,1.6255821202659206,5.830243693333693,7.369900974920025,29.53919956311607
9.3212499,8.942327509891186,-4.186854670211697,1.5855531041162394,4.636799478942166,5.930973548726262,28.167168825035418
9.3312499,9.054552660995446,-4.07654739306735,1.648467703165624,3.0867511828798686,4.687846998725762,26.12905656218662
9.3412499,9.009733375135701,-4.010243400510388,1.7960738232022573,1.4471554948391836,3.991547818806075,23.77192103516506
9.3512499,9.0075729102017,-3.954164998401173,1.8623453982474334,-0.1030695357435467,3.7949765552881427,21.43833611344988
9.3612499,9.08905511226484,-3.9986481393925715,1.9645286602432799,-1.5009875755726787,3.753510808563694,19.60964764319896
9.3712499,8.939794183046772,-4.187548119547473,2.1429415508803737,-2.2058331417871604,3.8373900010996116,18.929706183039716
9.3812499,8.668000899083552,-4.40791928762399,2.164320839262938,-1.6911397080086854,3.809246044150619,19.898600095879647
9.3912499,8.501445852955005,-4.525442989657658,2.0147552286785473,-0.45436986414735325,3.517937052353912,22.243492776341547
9.4012499,8.303201491509082,-4.447880799726082,1.8216314042025321,0.4592534580747566,2.773295640629582,25.275023384188696
9.4112499,8.042223654472677,-4.230603728241495,1.6927301818447786,0.5168249990178698,1.7820557695679637,28.77208692424095
9.4212499,7.769511495673964,-3.9072662899801403,1.610105960912268,-1.7209925292247898,1.133131684872343,32.80992088940507
9.4312499,7.509377838566444,-3.562651181472727,1.4129572636685754,-7.315676914254287,0.8734280073101747,37.16743034725731
9.4412499,7.382322582844455,-3.234358440776801,1.0969312060643523,-17.828743552244635,1.22157254201911,42.167603734452285
9.4512499,7.4940898533132305,-2.7983063862788136,0.8030510932286367,-35.518792814482985,3.280263899325305,48.45953337773221
9.4612499,7.730910850545573,-2.296407749393699,0.3079693101618416,-60.56306330591667,6.825897896557348,55.49257052934141
9.4712499,7.996936543898319,-1.8222855761985413,-0.4480031545096477,-91.10196557076628,9.523094062047806,62.2617179496192
9.4812499,8.483120070225553,-1.641729372510355,-1.098920063380591,-123.92193760583329,9.752358759199566,69.01228263768893
9.4912499,9.174365181460516,-2.047514846631907,-1.4453973528741015,-156.05975801782319,6.952936661571909,77.02218758647567
9.5012499,10.065891716992224,-2.8853761821505612,-1.621666546376965,-187.12904706911365,1.4154832654877376,87.929717186765
9.5112499,11.637634097328586,-3.8817645661747293,-2.1331604643843844,-215.7140523429881,-8.469945916266209,101.94220662888661
9.5212499,14.056943321295593,-4.848764698336459,-2.9452305208121516,-241.75732323239848,-24.226731601580198,117.61439388453239
9.5312499,17.092654358926833,-5.353341844772837,-3.4037060047267986,-267.30547535360483,-46.35096115165003,133.7527653730163
9.5412499,21.22326512641268,-4.911475582160085,-3.5742430666367424,-296.47472781763565,-75.81122888756035,148.36766543073617
