# Time (seconds),Accel_X,Accel_Y,Accel_Z,Gyro_X,Gyro_Y,Gyro_Z
0.0012499,7.876923561096191,-5.152322292327881,0.7733271718025208,17.3492431640625,7.0953369140625,4.7760009765625
0.0037499,7.8960771560668945,-5.116408824920654,0.7469909191131592,17.2271728515625,6.8206787109375,5.0201416015625
0.0062499,7.910442352294922,-5.073313236236572,0.7374141216278076,17.39501953125,6.9427490234375,5.157470703125
0.0087499,7.929595947265625,-5.03021764755249,0.7422025203704834,17.39501953125,7.110595703125,5.8441162109375
0.0112499,7.939172744750977,-4.9799394607543945,0.7565677165985107,16.876220703125,6.9580078125,5.9814453125
0.0137499,7.943961143493652,-4.9368438720703125,0.7709329724311829,16.5252685546875,6.5460205078125,6.1187744140625
0.016249899999999998,7.960720539093018,-4.910507678985596,0.7924807667732239,16.357421875,6.4697265625,6.439208984375
0.0187499,7.99184513092041,-4.90571928024292,0.811634361743927,16.357421875,6.5460205078125,6.7138671875
0.021249900000000002,8.044517517089844,-4.9152960777282715,0.8403648138046265,16.082763671875,6.6680908203125,6.866455078125
0.023749899999999997,8.10437297821045,-4.93923807144165,0.8667010068893433,15.8233642578125,6.4849853515625,7.080078125
0.0262499,8.154650688171387,-4.946420669555664,0.8954314589500427,15.68603515625,6.5765380859375,7.3699951171875
0.028749900000000002,8.188169479370117,-4.946420669555664,0.9026140570640564,15.228271484375,6.6680908203125,7.659912109375
0.031249899999999997,8.212111473083496,-4.929661273956299,0.9074024558067322,14.5111083984375,6.4544677734375,7.8277587890625
0.0337499,8.22887134552002,-4.90571928024292,0.9002198576927185,13.916015625,6.4849853515625,8.056640625
0.0362499,8.257601737976074,-4.884171485900879,0.8906430602073669,13.18359375,6.317138671875,8.4686279296875
0.0387499,8.281543731689453,-4.876988887786865,0.8858546018600464,12.6190185546875,6.378173828125,8.8348388671875
0.0412499,8.307879447937012,-4.891354084014893,0.8834604024887085,12.1307373046875,6.4697265625,8.7738037109375
0.0437499,8.324639320373535,-4.9152960777282715,0.8858546018600464,11.77978515625,6.256103515625,9.2315673828125
0.0462499,8.355764389038086,-4.95120906829834,0.8834604024887085,11.322021484375,6.2713623046875,9.2926025390625
0.0487499,8.374917984008789,-4.972756862640381,0.8906430602073669,10.5743408203125,6.5765380859375,9.521484375
0.0512499,8.391676902770996,-4.98472785949707,0.8930372595787048,9.70458984375,6.6680908203125,9.82666015625
0.053749899999999996,8.394071578979492,-4.989516258239746,0.9002198576927185,9.185791015625,6.3323974609375,9.82666015625
0.0562499,8.389283180236816,-4.989516258239746,0.9074024558067322,8.941650390625,6.103515625,10.0555419921875
0.0587499,8.38449478149414,-5.003881454467773,0.9097966551780701,8.514404296875,6.195068359375,10.3302001953125
0.061249899999999996,8.389283180236816,-5.015852451324463,0.9169792532920837,7.87353515625,6.28662109375,10.2996826171875
0.0637499,8.406042098999023,-5.044582843780518,0.9193734526634216,7.5225830078125,5.92041015625,10.3302001953125
0.0662499,8.422801971435547,-5.070919036865234,0.9313444495201111,7.1868896484375,5.55419921875,10.650634765625
0.0687499,8.44434928894043,-5.109226226806641,0.933738648891449,7.0648193359375,5.4473876953125,10.7269287109375
0.0712499,8.453926086425781,-5.137956619262695,0.9409212470054626,6.5155029296875,5.2490234375,10.80322265625
0.0737499,8.468291282653809,-5.178658485412598,0.950498104095459,6.317138671875,5.1727294921875,10.894775390625
0.0762499,8.47786808013916,-5.219359874725342,0.9672574996948242,6.2713623046875,4.8980712890625,10.8184814453125
0.0787499,8.487444877624512,-5.2696380615234375,0.9840168952941895,6.317138671875,5.0201416015625,10.955810546875
0.0812499,8.501810073852539,-5.319916248321533,1.0031704902648926,6.4239501953125,4.669189453125,11.04736328125
0.0837499,8.506598472595215,-5.353435039520264,1.0127472877502441,6.2255859375,4.5318603515625,11.2152099609375
0.0862499,8.497021675109863,-5.365406036376953,1.0199298858642578,5.8135986328125,4.150390625,11.2457275390625
0.0887499,8.492233276367188,-5.3582234382629395,1.0295066833496094,5.584716796875,3.72314453125,11.1846923828125
0.0912499,8.480262756347656,-5.3582234382629395,1.0319008827209473,5.55419921875,3.509521484375,11.3372802734375
0.0937499,8.485051155090332,-5.370194435119629,1.0414776802062988,5.7220458984375,3.173828125,11.7950439453125
0.0962499,8.497021675109863,-5.406107425689697,1.0534487962722778,5.92041015625,2.8533935546875,11.8255615234375
0.0987499,8.518569946289062,-5.446808815002441,1.0606313943862915,6.2713623046875,2.6092529296875,11.8865966796875
0.1012499,8.556877136230469,-5.485116004943848,1.0821791887283325,6.2103271484375,2.8228759765625,11.90185546875
0.1037499,8.638279914855957,-5.509057998657227,1.1300631761550903,6.6070556640625,2.471923828125,11.993408203125
0.1062499,8.669404029846191,-5.504269599914551,1.1635819673538208,6.591796875,2.3956298828125,12.176513671875
0.1087499,8.678980827331543,-5.494692802429199,1.194706678390503,6.561279296875,2.044677734375,12.20703125
0.1112499,8.688557624816895,-5.499481201171875,1.2234370708465576,6.2713623046875,2.044677734375,12.3138427734375
0.1137499,8.695740699768066,-5.51624059677124,1.2545616626739502,6.77490234375,1.800537109375,12.4359130859375
0.1162499,8.71489429473877,-5.547365188598633,1.2832920551300049,7.0648193359375,1.77001953125,12.63427734375
0.1187499,8.738836288452148,-5.578489780426025,1.3072341680526733,7.26318359375,1.8768310546875,12.63427734375
0.1212499,8.760383605957031,-5.5976433753967285,1.3335703611373901,7.1563720703125,1.9073486328125,12.5274658203125
0.1237499,8.772355079650879,-5.592854976654053,1.3503297567367554,7.049560546875,1.6326904296875,12.5885009765625
0.1262499,8.769960403442383,-5.56173038482666,1.3623007535934448,6.7291259765625,1.3427734375,12.63427734375
0.1287499,8.755595207214355,-5.530605792999268,1.3623007535934448,6.4239501953125,0.9918212890625,12.725830078125
0.1312499,8.746018409729004,-5.5114521980285645,1.359906554222107,6.195068359375,1.1444091796875,12.7410888671875
0.1337499,8.736441612243652,-5.513846397399902,1.3503297567367554,6.16455078125,1.0223388671875,12.908935546875
0.1362499,8.731653213500977,-5.540182590484619,1.338358759880066,6.1492919921875,1.220703125,12.908935546875
0.1387499,8.731653213500977,-5.566518783569336,1.3215993642807007,5.7373046875,1.1444091796875,12.6190185546875
0.1412499,8.729259490966797,-5.585672378540039,1.3048399686813354,5.37109375,0.762939453125,12.786865234375
0.1437499,8.7268648147583,-5.590460777282715,1.2856862545013428,4.94384765625,0.8087158203125,12.6800537109375
0.1462499,8.722076416015625,-5.588066577911377,1.2665326595306396,4.7607421875,0.7476806640625,12.2222900390625
0.1487499,8.719682693481445,-5.580883979797363,1.2521674633026123,4.5318603515625,0.3204345703125,12.14599609375
0.1512499,8.705317497253418,-5.568912982940674,1.2401964664459229,4.2572021484375,0.335693359375,12.1612548828125
0.1537499,8.695740699768066,-5.559336185455322,1.2330138683319092,3.9215087890625,0.091552734375,11.7950439453125
0.1562499,8.695740699768066,-5.5545477867126465,1.237802267074585,3.509521484375,-0.18310546875,11.383056640625
0.1587499,8.69334602355957,-5.559336185455322,1.2401964664459229,3.3721923828125,-0.457763671875,11.23046875
0.1612499,8.702922821044922,-5.5760955810546875,1.256955862045288,3.0670166015625,-0.396728515625,10.8795166015625
0.1637499,8.719682693481445,-5.588066577911377,1.2641384601593018,2.8533935546875,-0.5950927734375,10.498046875
0.1662499,8.734047889709473,-5.609614372253418,1.280897855758667,2.3345947265625,-0.823974609375,10.162353515625
0.1687499,8.762778282165527,-5.616796970367432,1.2952631711959839,2.0294189453125,-0.91552734375,9.7503662109375
0.1712499,8.796297073364258,-5.628767967224121,1.316810965538025,2.349853515625,-0.9613037109375,9.490966796875
0.1737499,8.834604263305664,-5.640739440917969,1.3455413579940796,2.2430419921875,-1.068115234375,8.880615234375
0.17624990000000001,8.868123054504395,-5.65031623840332,1.381454348564148,2.3651123046875,-1.190185546875,8.4228515625
0.1787499,8.904036521911621,-5.657498836517334,1.4221558570861816,2.349853515625,-1.190185546875,8.0718994140625
0.1812499,8.939949035644531,-5.664681434631348,1.4628572463989258,2.4261474609375,-1.2969970703125,7.5836181640625
0.1837499,8.971074104309082,-5.674258232116699,1.5107412338256836,2.5177001953125,-1.251220703125,7.0343017578125
0.1862499,9.002198219299316,-5.702988624572754,1.558625340461731,3.0059814453125,-1.2969970703125,6.6070556640625
0.1887499,9.004592895507812,-5.710171222686768,1.601720929145813,3.2501220703125,-1.5869140625,6.2103271484375
0.1912499,9.006986618041992,-5.726930618286133,1.6352397203445435,2.86865234375,-1.5869140625,5.55419921875
0.1937499,8.99740982055664,-5.726930618286133,1.6663644313812256,2.8839111328125,-1.7242431640625,4.9591064453125
0.1962499,8.990227699279785,-5.7341132164001465,1.6903064250946045,3.204345703125,-1.89208984375,4.5318603515625
0.1987499,8.99740982055664,-5.765237808227539,1.7094600200653076,3.41796875,-1.983642578125,4.2877197265625
0.2012499,9.011775016784668,-5.817910194396973,1.7286136150360107,3.936767578125,-1.708984375,3.7994384765625
0.2037499,9.028534889221191,-5.884947776794434,1.7381904125213623,4.425048828125,-1.6937255859375,3.4637451171875
0.2062499,9.028534889221191,-5.935225963592529,1.7381904125213623,5.0506591796875,-1.5869140625,3.1890869140625
0.20874990000000002,9.016563415527344,-5.947196960449219,1.7334020137786865,5.0201416015625,-1.3580322265625,2.99072265625
0.2112499,8.987833023071289,-5.928043365478516,1.7118542194366455,4.94384765625,-1.89208984375,2.5482177734375
0.2137499,8.947132110595703,-5.880159378051758,1.6855180263519287,5.18798828125,-2.0294189453125,2.349853515625
0.2162499,8.901641845703125,-5.827486991882324,1.6543933153152466,5.1727294921875,-2.044677734375,1.9073486328125
0.2187499,8.863334655761719,-5.781997203826904,1.625662922859192,5.0048828125,-2.197265625,1.4190673828125
0.2212499,8.841787338256836,-5.746084213256836,1.6041151285171509,5.0811767578125,-2.5177001953125,0.946044921875
0.2237499,8.83939266204834,-5.726930618286133,1.5921441316604614,5.218505859375,-2.3956298828125,0.4119873046875
0.2262499,8.846575736999512,-5.714959621429443,1.5873557329177856,5.584716796875,-2.3193359375,0
0.2287499,8.858546257019043,-5.7125654220581055,1.5825673341751099,5.645751953125,-2.6092529296875,-0.4425048828125
0.2312499,8.846575736999512,-5.688623428344727,1.5753847360610962,5.7525634765625,-2.7618408203125,-0.946044921875
0.2337499,8.820239067077637,-5.66228723526001,1.5658079385757446,5.5999755859375,-2.7923583984375,-1.7547607421875
0.2362499,8.789113998413086,-5.623979568481445,1.5418659448623657,5.37109375,-2.960205078125,-2.197265625
0.23874990000000001,8.762778282165527,-5.588066577911377,1.525106430053711,5.462646484375,-3.0975341796875,-2.7923583984375
0.2412499,8.743624687194824,-5.549759387969971,1.5107412338256836,5.3253173828125,-3.1890869140625,-3.4637451171875
0.2437499,8.734047889709473,-5.509057998657227,1.4987702369689941,4.8980712890625,-3.4027099609375,-4.0435791015625
0.2462499,8.729259490966797,-5.47075080871582,1.4963760375976562,4.730224609375,-3.448486328125,-4.730224609375
0.2487499,8.729259490966797,-5.434837818145752,1.4963760375976562,4.608154296875,-3.692626953125,-5.462646484375
0.2512499,8.729259490966797,-5.406107425689697,1.4915876388549805,4.6539306640625,-3.8604736328125,-5.9051513671875
0.25374990000000003,8.731653213500977,-5.382165431976318,1.4915876388549805,4.5166015625,-3.84521484375,-6.53076171875
0.25624990000000003,8.736441612243652,-5.363011837005615,1.4867992401123047,3.8604736328125,-3.8909912109375,-7.4615478515625
0.25874990000000003,8.75080680847168,-5.353435039520264,1.482010841369629,3.5858154296875,-3.8909912109375,-8.2550048828125
0.26124990000000003,8.772355079650879,-5.3582234382629395,1.4867992401123047,3.72314453125,-3.5400390625,-8.7432861328125
0.26374990000000004,8.80587387084961,-5.384559631347656,1.4915876388549805,3.7689208984375,-3.6468505859375,-9.124755859375
0.26624990000000004,8.834604263305664,-5.415684223175049,1.501164436340332,3.6773681640625,-3.5858154296875,-9.796142578125
0.26874990000000004,8.846575736999512,-5.439626216888428,1.5083470344543457,3.6773681640625,-3.35693359375,-10.1470947265625
0.27124990000000004,8.841787338256836,-5.43723201751709,1.5083470344543457,3.3111572265625,-3.3111572265625,-10.6964111328125
0.27374990000000005,8.822632789611816,-5.4228668212890625,1.5131354331970215,2.8076171875,-3.509521484375,-11.29150390625
0.27624990000000005,8.813055992126465,-5.406107425689697,1.5107412338256836,2.6702880859375,-3.570556640625,-11.77978515625
0.27874990000000005,8.815450668334961,-5.398924827575684,1.5131354331970215,2.7618408203125,-3.3721923828125,-12.237548828125
0.28124990000000005,8.844181060791016,-5.413290023803711,1.5203180313110352,2.685546875,-3.204345703125,-12.6953125
0.28374990000000005,8.884882926940918,-5.432443618774414,1.53707754611969,2.86865234375,-3.0059814453125,-12.939453125
0.28624990000000006,8.93037223815918,-5.449203014373779,1.5610195398330688,2.9144287109375,-2.8533935546875,-13.2904052734375
0.28874990000000006,8.971074104309082,-5.453991413116455,1.5897499322891235,2.960205078125,-2.8076171875,-13.580322265625
0.2912499,9.002198219299316,-5.451597213745117,1.6184803247451782,3.204345703125,-2.5634765625,-14.22119140625
0.2937499,9.02135181427002,-5.4444146156311035,1.644816517829895,3.2196044921875,-2.4871826171875,-14.34326171875
0.2962499,9.030928611755371,-5.4444146156311035,1.6735470294952393,3.2501220703125,-2.410888671875,-14.7857666015625
0.2987499,9.035717010498047,-5.451597213745117,1.6974890232086182,3.3111572265625,-2.410888671875,-15.2130126953125
0.3012499,9.033323287963867,-5.468356609344482,1.7142484188079834,3.7689208984375,-2.166748046875,-15.533447265625
0.3037499,9.028534889221191,-5.494692802429199,1.7286136150360107,4.0283203125,-2.01416015625,-15.8843994140625
0.3062499,9.014169692993164,-5.513846397399902,1.7357962131500244,4.2724609375,-1.8768310546875,-16.2811279296875
0.3087499,8.992621421813965,-5.530605792999268,1.7477672100067139,4.791259765625,-1.7547607421875,-16.6015625
0.3112499,8.956708908081055,-5.525817394256592,1.7597382068634033,5.2032470703125,-1.5411376953125,-16.845703125
0.3137499,8.860940933227539,-5.509057998657227,1.7860745191574097,5.7220458984375,-1.5411376953125,-17.608642578125
0.31624990000000003,8.80587387084961,-5.499481201171875,1.7956513166427612,6.0272216796875,-1.6326904296875,-18.06640625
0.31874990000000003,8.760383605957031,-5.492298603057861,1.8124107122421265,6.5765380859375,-1.739501953125,-18.37158203125
0.32124990000000003,8.719682693481445,-5.489904403686523,1.8291701078414917,7.080078125,-1.8310546875,-18.829345703125
0.32374990000000003,8.681375503540039,-5.492298603057861,1.845929503440857,7.26318359375,-1.800537109375,-19.4091796875
0.32624990000000004,8.645462036132812,-5.499481201171875,1.8579005002975464,7.8887939453125,-1.8768310546875,-19.6533203125
0.32874990000000004,8.609549522399902,-5.5114521980285645,1.8722656965255737,8.514404296875,-2.0904541015625,-20.0042724609375
0.33124990000000004,8.578424453735352,-5.518634796142578,1.8770540952682495,9.124755859375,-2.105712890625,-20.4925537109375
0.33374990000000004,8.561665534973145,-5.518634796142578,1.8818424940109253,9.58251953125,-2.5787353515625,-20.721435546875
0.33624990000000005,8.549694061279297,-5.513846397399902,1.886630892753601,10.009765625,-2.655029296875,-21.3165283203125
0.33874990000000005,8.542511940002441,-5.509057998657227,1.8914192914962769,10.3302001953125,-2.7313232421875,-21.5301513671875
0.34124990000000005,8.537723541259766,-5.504269599914551,1.900996208190918,10.4217529296875,-2.9449462890625,-21.8658447265625
0.34374990000000005,8.53293514251709,-5.509057998657227,1.9129672050476074,11.138916015625,-3.0517578125,-22.1099853515625
0.34624990000000005,8.525752067565918,-5.51624059677124,1.9297266006469727,11.7340087890625,-3.1585693359375,-22.27783203125
0.34874990000000006,8.523358345031738,-5.525817394256592,1.9536685943603516,11.871337890625,-3.509521484375,-22.4761962890625
0.35124990000000006,8.520963668823242,-5.535394191741943,1.9704279899597168,12.0086669921875,-3.5552978515625,-22.369384765625
0.3537499,8.513781547546387,-5.540182590484619,1.9919757843017578,12.0849609375,-3.8604736328125,-22.5677490234375
0.3562499,8.501810073852539,-5.542576789855957,2.0015525817871094,12.0086669921875,-4.0435791015625,-22.6287841796875
0.3587499,8.480262756347656,-5.535394191741943,2.008735179901123,12.20703125,-3.8604736328125,-22.552490234375
0.3612499,8.451532363891602,-5.5114521980285645,2.013523578643799,12.20703125,-3.9825439453125,-22.64404296875
0.3637499,8.413225173950195,-5.477933406829834,2.013523578643799,11.962890625,-4.08935546875,-22.64404296875
0.3662499,8.374917984008789,-5.427655220031738,2.008735179901123,11.7950439453125,-4.150390625,-22.674560546875
0.3687499,8.339004516601562,-5.374982833862305,2.006340980529785,11.7034912109375,-4.1656494140625,-22.4151611328125
0.3712499,8.307879447937012,-5.324704647064209,2.0015525817871094,11.2152099609375,-4.4403076171875,-22.5830078125
0.3737499,8.283937454223633,-5.281609058380127,1.9991583824157715,10.7269287109375,-4.8675537109375,-22.613525390625
0.3762499,8.269572257995605,-5.252878665924072,1.9991583824157715,10.5743408203125,-4.9285888671875,-22.6593017578125
0.37874990000000003,8.269572257995605,-5.231330871582031,2.0015525817871094,9.979248046875,-5.1116943359375,-22.7508544921875
0.38124990000000003,8.279149055480957,-5.2265424728393555,2.011129379272461,9.7808837890625,-5.218505859375,-22.64404296875
0.38374990000000003,8.293514251708984,-5.216965675354004,2.027888774871826,9.46044921875,-5.4168701171875,-22.64404296875
0.38624990000000003,8.307879447937012,-5.22175407409668,2.0422539710998535,9.2010498046875,-5.6304931640625,-22.94921875
0.38874990000000004,8.312667846679688,-5.216965675354004,2.054224967956543,8.8653564453125,-5.8135986328125,-23.1781005859375
0.39124990000000004,8.305485725402832,-5.214571475982666,2.049436569213867,8.575439453125,-5.828857421875,-23.0865478515625
0.39374990000000004,8.283937454223633,-5.212177276611328,2.03507137298584,8.3465576171875,-6.28662109375,-23.3612060546875
0.39624990000000004,8.257601737976074,-5.207388877868652,2.006340980529785,8.0718994140625,-6.744384765625,-23.223876953125
0.39874990000000005,8.22887134552002,-5.202600479125977,1.9776105880737305,7.6904296875,-7.2021484375,-23.345947265625
0.40124990000000005,8.195352554321289,-5.197812080383301,1.941697597503662,7.2174072265625,-7.4310302734375,-23.3001708984375
0.40374990000000005,8.17141056060791,-5.195417881011963,1.900996208190918,7.0648193359375,-7.4615478515625,-23.2086181640625
0.40624990000000005,8.149862289428711,-5.188235282897949,1.8698714971542358,6.7291259765625,-7.9345703125,-23.223876953125
0.40874990000000005,8.125920295715332,-5.1810526847839355,1.8339585065841675,6.53076171875,-8.392333984375,-23.4222412109375
0.41124990000000006,8.1139497756958,-5.166687488555908,1.8100165128707886,6.1798095703125,-8.8958740234375,-23.1170654296875
0.41374990000000006,8.099584579467773,-5.152322292327881,1.7884687185287476,5.7830810546875,-8.941650390625,-22.88818359375
0.41624990000000006,8.090007781982422,-5.130774021148682,1.7741034030914307,5.3558349609375,-9.246826171875,-22.9034423828125
0.4187499,8.092401504516602,-5.1116204261779785,1.766920804977417,4.913330078125,-9.735107421875,-22.6898193359375
0.4212499,8.109161376953125,-5.0876784324646,1.7597382068634033,4.547119140625,-10.2081298828125,-22.5830078125
0.4237499,8.135497093200684,-5.0685248374938965,1.7621324062347412,4.1046142578125,-10.3607177734375,-22.4151611328125
0.4262499,8.17380428314209,-5.0469770431518555,1.764526605606079,3.6468505859375,-10.31494140625,-22.3388671875
0.4287499,8.212111473083496,-5.032611846923828,1.7717092037200928,3.173828125,-10.7269287109375,-22.1405029296875
0.4312499,8.257601737976074,-5.023035049438477,1.7812861204147339,2.7923583984375,-10.986328125,-21.942138671875
0.4337499,8.300697326660156,-5.0254292488098145,1.7836803197860718,2.5177001953125,-11.2762451171875,-21.8353271484375
0.4362499,8.341399192810059,-5.027823448181152,1.7908629179000854,1.89208984375,-11.566162109375,-21.54541015625
0.4387499,8.365341186523438,-5.035006046295166,1.7908629179000854,1.52587890625,-11.6729736328125,-21.4691162109375
0.44124990000000003,8.374917984008789,-5.04218864440918,1.7908629179000854,1.251220703125,-11.71875,-21.3165283203125
0.44374990000000003,8.360552787780762,-5.0469770431518555,1.7812861204147339,0.9002685546875,-12.054443359375,-20.9808349609375
0.44624990000000003,8.334216117858887,-5.051765441894531,1.766920804977417,0.6866455078125,-12.20703125,-20.8282470703125
0.44874990000000003,8.29830265045166,-5.0469770431518555,1.745373010635376,0.396728515625,-12.1612548828125,-20.32470703125
0.45124990000000004,8.257601737976074,-5.04218864440918,1.7262194156646729,0.091552734375,-12.5885009765625,-20.1263427734375
0.45374990000000004,8.214506149291992,-5.0254292488098145,1.6974890232086182,-0.0152587890625,-12.939453125,-19.71435546875
0.45624990000000004,8.17380428314209,-5.006275653839111,1.6639702320098877,-0.5645751953125,-12.908935546875,-19.5159912109375
0.45874990000000004,8.14028549194336,-4.9799394607543945,1.6160861253738403,-0.396728515625,-13.397216796875,-19.5465087890625
0.46124990000000005,8.106766700744629,-4.948814868927002,1.5658079385757446,-0.54931640625,-13.48876953125,-19.622802734375
0.46374990000000005,8.08282470703125,-4.9152960777282715,1.5083470344543457,-0.54931640625,-13.6871337890625,-19.6075439453125
0.46624990000000005,8.04930591583252,-4.879383087158203,1.4532804489135742,-0.1373291015625,-13.9617919921875,-19.47021484375
0.46874990000000005,8.020575523376465,-4.850652694702148,1.3838485479354858,-0.091552734375,-14.556884765625,-19.439697265625
0.47124990000000005,7.979874134063721,-4.824316501617432,1.314416766166687,-0.1068115234375,-15.167236328125,-19.3939208984375
0.47374990000000006,7.94635534286499,-4.800374507904053,1.237802267074585,0.4730224609375,-15.6707763671875,-19.744873046875
0.47624990000000006,7.908048152923584,-4.778826713562012,1.170764684677124,0.885009765625,-16.17431640625,-19.83642578125
0.47874990000000006,7.881711959838867,-4.759673118591309,1.1061211824417114,1.068115234375,-16.7236328125,-19.775390625
0.4812499,7.862558364868164,-4.73573112487793,1.0462661981582642,1.2664794921875,-17.181396484375,-19.95849609375
0.4837499,7.8529815673828125,-4.711789131164551,0.9864110946655273,1.7852783203125,-17.76123046875,-19.866943359375
0.4862499,7.8529815673828125,-4.675876140594482,0.9265560507774353,1.983642578125,-18.4326171875,-19.8822021484375
0.4887499,7.864952564239502,-4.632780075073242,0.8690952062606812,2.3193359375,-18.9971923828125,-19.7601318359375
0.4912499,7.8745293617248535,-4.577713489532471,0.8212111592292786,2.471923828125,-19.22607421875,-19.9127197265625
0.4937499,7.8960771560668945,-4.517858505249023,0.7805097699165344,2.9449462890625,-19.7906494140625,-19.6990966796875
0.4962499,7.9176249504089355,-4.460397720336914,0.7398083209991455,3.1280517578125,-20.1873779296875,-19.5159912109375
0.4987499,7.94635534286499,-4.4077253341674805,0.7086837291717529,3.0059814453125,-20.3704833984375,-19.4549560546875
0.5012499,7.979874134063721,-4.359841346740723,0.667982280254364,3.2196044921875,-20.9503173828125,-19.4549560546875
0.5037499000000001,8.015787124633789,-4.311957359313965,0.6248866319656372,3.204345703125,-21.240234375,-19.256591796875
0.5062499,8.056488990783691,-4.261679172515869,0.5746083855628967,3.23486328125,-21.6827392578125,-18.9056396484375
0.5087499000000001,8.090007781982422,-4.211400985717773,0.5267243981361389,3.3416748046875,-21.8963623046875,-18.829345703125
0.5112499,8.118738174438477,-4.1611223220825195,0.4836287498474121,3.2806396484375,-22.0794677734375,-18.4478759765625
0.5137499,8.147468566894531,-4.110844135284424,0.4572925269603729,2.99072265625,-22.0184326171875,-18.3258056640625
0.5162499,8.17141056060791,-4.07014274597168,0.4357447028160095,2.9296875,-22.2625732421875,-17.9595947265625
0.5187499,8.200140953063965,-4.022258758544922,0.4165911078453064,2.6397705078125,-22.3236083984375,-17.669677734375
0.5212499,8.221688270568848,-3.9863457679748535,0.3998316824436188,2.3193359375,-22.1405029296875,-17.303466796875
0.5237499,8.257601737976074,-3.9169139862060547,0.35913026332855225,1.77001953125,-22.4609375,-16.66259765625
0.5262499,8.271966934204102,-3.890577793121338,0.33997663855552673,1.434326171875,-22.2625732421875,-16.021728515625
0.5287499,8.279149055480957,-3.8762125968933105,0.3208230137825012,1.3275146484375,-22.1710205078125,-15.625
0.5312499,8.286332130432129,-3.866635799407959,0.2944868206977844,1.1444091796875,-21.942138671875,-15.3045654296875
0.5337499,8.291120529174805,-3.8546648025512695,0.2777273952960968,0.823974609375,-21.881103515625,-14.70947265625
0.5362499000000001,8.291120529174805,-3.8498764038085938,0.2537853717803955,0.4730224609375,-21.8505859375,-13.9923095703125
0.5387499,8.293514251708984,-3.84269380569458,0.2346317619085312,0.396728515625,-21.7742919921875,-13.6871337890625
0.5412499000000001,8.286332130432129,-3.8379054069519043,0.21547815203666687,0.1678466796875,-21.30126953125,-13.2598876953125
0.5437499,8.279149055480957,-3.8331170082092285,0.19393034279346466,0.1373291015625,-21.2860107421875,-12.3443603515625
0.5462499000000001,8.269572257995605,-3.8283286094665527,0.17956513166427612,0.213623046875,-21.1334228515625,-11.8408203125
0.5487499,8.257601737976074,-3.823540210723877,0.1604115068912506,0.457763671875,-20.7672119140625,-11.5203857421875
0.5512499000000001,8.248024940490723,-3.823540210723877,0.14365209639072418,0.5035400390625,-20.8740234375,-10.955810546875
0.5537499,8.236053466796875,-3.821146011352539,0.12210428714752197,0.518798828125,-20.5078125,-10.3912353515625
0.5562499000000001,8.219294548034668,-3.823540210723877,0.10055647045373917,0.5340576171875,-20.111083984375,-9.979248046875
0.5587499,8.200140953063965,-3.8283286094665527,0.07422025501728058,0.8697509765625,-19.6685791015625,-9.2620849609375
0.5612499000000001,8.17380428314209,-3.8355112075805664,0.043095629662275314,1.129150390625,-19.561767578125,-8.6517333984375
0.5637499,8.14028549194336,-3.84269380569458,0.014365210197865963,1.495361328125,-19.500732421875,-8.1024169921875
0.5662499000000001,8.111555099487305,-3.8522706031799316,-0.014365210197865963,1.7852783203125,-19.4549560546875,-7.6904296875
0.5687499,8.08043098449707,-3.861847400665283,-0.033518824726343155,2.227783203125,-19.22607421875,-7.080078125
0.5712499000000001,8.051700592041016,-3.8762125968933105,-0.0454898327589035,2.3651123046875,-19.012451171875,-6.103515625
0.5737499,8.02536392211914,-3.890577793121338,-0.05267243832349777,2.7008056640625,-18.5394287109375,-5.4931640625
0.5762499000000001,8.008605003356934,-3.907337188720703,-0.05027823522686958,3.204345703125,-18.310546875,-5.035400390625
0.5787499,7.996633529663086,-3.9169139862060547,-0.047884032130241394,3.6468505859375,-18.1427001953125,-4.5623779296875
0.5812499,7.989450931549072,-3.9169139862060547,-0.05027823522686958,3.96728515625,-17.8680419921875,-3.7994384765625
0.5837499,7.982268333435059,-3.914519786834717,-0.047884032130241394,4.3487548828125,-17.486572265625,-3.204345703125
0.5862499,7.967903137207031,-3.9049429893493652,-0.05267243832349777,4.638671875,-17.02880859375,-2.4566650390625
0.5887499,7.9631147384643555,-3.892971992492676,-0.05506663769483566,4.8828125,-16.7083740234375,-1.9683837890625
0.5912499,7.95832633972168,-3.8786067962646484,-0.05506663769483566,5.279541015625,-16.3116455078125,-1.1749267578125
0.5937499,7.9631147384643555,-3.864241600036621,-0.05746084079146385,5.4779052734375,-15.899658203125,-0.54931640625
0.5962499,7.987056732177734,-3.845088005065918,-0.05267243832349777,5.8441162109375,-15.533447265625,-0.0152587890625
0.5987499000000001,8.018181800842285,-3.8355112075805664,-0.040701430290937424,6.072998046875,-14.9993896484375,0.732421875
0.6012499,8.061277389526367,-3.825934410095215,-0.026336219161748886,6.439208984375,-14.7247314453125,1.3580322265625
0.6037499000000001,8.101978302001953,-3.821146011352539,-0.004788403399288654,6.378173828125,-14.2364501953125,1.8463134765625
0.6062499,8.145073890686035,-3.818751811981201,0.014365210197865963,6.5155029296875,-13.4735107421875,2.38037109375
0.6087499000000001,8.176198959350586,-3.8163576126098633,0.035913024097681046,7.0037841796875,-12.725830078125,3.1585693359375
0.6112499,8.202534675598145,-3.8163576126098633,0.05267243832349777,7.171630859375,-12.359619140625,3.6773681640625
0.6137499000000001,8.221688270568848,-3.8163576126098633,0.06703764945268631,7.1258544921875,-11.9171142578125,4.180908203125
0.6162499,8.233659744262695,-3.818751811981201,0.07900865375995636,7.0953369140625,-11.1846923828125,4.9285888671875
0.6187499000000001,8.24084186553955,-3.823540210723877,0.08619125932455063,7.0648193359375,-10.4217529296875,5.67626953125
0.6212499,8.250418663024902,-3.8331170082092285,0.0933738648891449,7.2784423828125,-9.918212890625,6.0272216796875
0.6237499000000001,8.259995460510254,-3.847482204437256,0.09576806426048279,7.3089599609375,-9.2926025390625,6.6375732421875
0.6262499,8.281543731689453,-3.864241600036621,0.10534487664699554,7.3089599609375,-8.575439453125,7.2174072265625
0.6287499000000001,8.300697326660156,-3.8786067962646484,0.1149216815829277,7.2479248046875,-7.904052734375,7.7667236328125
0.6312499,8.33182144165039,-3.8977603912353516,0.12210428714752197,7.1868896484375,-7.293701171875,8.4075927734375
0.6337499000000001,8.370129585266113,-3.914519786834717,0.12928688526153564,7.2021484375,-6.561279296875,8.8653564453125
0.6362499,8.413225173950195,-3.9408559799194336,0.13407529890537262,7.1258544921875,-5.8441162109375,9.6435546875
0.6387499000000001,8.458714485168457,-3.9671921730041504,0.14365209639072418,7.0953369140625,-5.157470703125,10.1470947265625
0.6412499,8.501810073852539,-4.000710964202881,0.1604115068912506,7.2174072265625,-4.669189453125,10.8795166015625
0.6437499,8.53293514251709,-4.034229755401611,0.181959331035614,7.3394775390625,-4.180908203125,11.4898681640625
0.6462499,8.556877136230469,-4.067748546600342,0.20350714027881622,7.75146484375,-3.509521484375,12.0697021484375
0.6487499,8.564059257507324,-4.10366153717041,0.22266076505184174,7.8887939453125,-3.0059814453125,12.451171875
0.6512499,8.559270858764648,-4.1395745277404785,0.24420857429504395,8.1634521484375,-2.6702880859375,13.092041015625
0.6537499,8.540117263793945,-4.173093795776367,0.26815059781074524,8.3770751953125,-2.0751953125,13.7176513671875
0.6562499,8.518569946289062,-4.211400985717773,0.29209262132644653,8.60595703125,-1.7547607421875,14.0838623046875
0.6587499,8.494627952575684,-4.247313976287842,0.31364041566848755,8.8348388671875,-1.3427734375,14.4195556640625
0.6612499000000001,8.47786808013916,-4.28322696685791,0.3280056416988373,9.3231201171875,-0.8544921875,15.07568359375
0.6637499,8.463502883911133,-4.316745758056641,0.33039984107017517,9.8114013671875,-0.42724609375,15.899658203125
0.6662499000000001,8.451532363891602,-4.350264549255371,0.33039984107017517,9.8876953125,-0.274658203125,16.357421875
0.6687499,8.44434928894043,-4.390965938568115,0.33039984107017517,10.1776123046875,-0.0457763671875,16.6778564453125
0.6712499000000001,8.432378768920898,-4.431667327880859,0.3280056416988373,10.80322265625,0.3662109375,17.1966552734375
0.6737499,8.42040729522705,-4.477157115936279,0.3256114423274994,10.9100341796875,0.4730224609375,17.5933837890625
0.6762499000000001,8.398859977722168,-4.522646903991699,0.3256114423274994,11.444091796875,0.6256103515625,18.1121826171875
0.6787499,8.370129585266113,-4.572925090789795,0.31842881441116333,11.9476318359375,0.79345703125,18.4326171875
0.6812499000000001,8.336610794067383,-4.618414878845215,0.31364041566848755,12.237548828125,0.8697509765625,19.1802978515625
0.6837499,8.29830265045166,-4.666299343109131,0.3064578175544739,12.51220703125,0.6561279296875,19.4549560546875
0.6862499000000001,8.255207061767578,-4.702212333679199,0.29209262132644653,12.9547119140625,0.8087158203125,19.7906494140625
0.6887499,8.214506149291992,-4.73573112487793,0.2849099934101105,13.214111328125,0.6256103515625,20.3704833984375
0.6912499000000001,8.176198959350586,-4.7620673179626465,0.2753331959247589,13.4429931640625,0.54931640625,20.5078125
0.6937499,8.13789176940918,-4.786009311676025,0.26336219906806946,13.5040283203125,0.3662109375,20.751953125
0.6962499000000001,8.109161376953125,-4.812345504760742,0.2585737705230713,13.4735107421875,0.2288818359375,20.93505859375
0.6987499,8.08043098449707,-4.841075897216797,0.24899697303771973,13.671875,-0.091552734375,21.392822265625
0.7012499000000001,8.063671112060547,-4.867412090301514,0.24181437492370605,13.671875,-0.244140625,21.697998046875
0.7037499,8.04691219329834,-4.8937482833862305,0.2346317619085312,13.641357421875,-0.4425048828125,21.9879150390625
0.7062499,8.030152320861816,-4.922478675842285,0.2322375625371933,13.336181640625,-0.5950927734375,21.9573974609375
0.7087499,8.015787124633789,-4.948814868927002,0.2322375625371933,12.939453125,-0.79345703125,22.03369140625
0.7112499,8.001421928405762,-4.975151062011719,0.2322375625371933,12.603759765625,-1.007080078125,22.186279296875
0.7137499,7.989450931549072,-4.999093055725098,0.2322375625371933,12.2222900390625,-1.40380859375,22.3236083984375
0.7162499,7.975085735321045,-5.020640850067139,0.22505496442317963,11.53564453125,-1.434326171875,22.2930908203125
0.7187499,7.967903137207031,-5.044582843780518,0.22026655077934265,11.1083984375,-1.6937255859375,22.4761962890625
0.7212499,7.9631147384643555,-5.066130638122559,0.21787235140800476,10.6353759765625,-1.922607421875,22.2625732421875
0.7237499000000001,7.95832633972168,-5.097255229949951,0.21787235140800476,9.765625,-2.13623046875,22.2625732421875
0.7262499,7.953537940979004,-5.128379821777344,0.22266076505184174,9.2010498046875,-2.4261474609375,22.4761962890625
0.7287499000000001,7.94635534286499,-5.166687488555908,0.22266076505184174,8.3465576171875,-2.655029296875,22.2320556640625
0.7312499,7.931990146636963,-5.202600479125977,0.22505496442317963,7.3089599609375,-2.777099609375,22.0794677734375
0.7337499000000001,7.90086555480957,-5.2696380615234375,0.22026655077934265,5.43212890625,-2.7008056640625,22.0489501953125
0.7362499,7.886500358581543,-5.303156852722168,0.21547815203666687,4.547119140625,-3.143310546875,21.881103515625
0.7387499000000001,7.872135162353516,-5.339069843292236,0.21308395266532898,3.448486328125,-3.0975341796875,21.6217041015625
0.7412499,7.85537576675415,-5.382165431976318,0.2059013396501541,2.471923828125,-3.1585693359375,21.636962890625
0.7437499000000001,7.838616371154785,-5.427655220031738,0.19153612852096558,1.5106201171875,-3.3111572265625,21.575927734375
0.7462499,7.82185697555542,-5.477933406829834,0.16519992053508759,0.6866455078125,-3.2806396484375,21.4080810546875
0.7487499000000001,7.802703380584717,-5.518634796142578,0.1364694982767105,-0.4425048828125,-3.326416015625,21.1029052734375
0.7512499,7.7883381843566895,-5.549759387969971,0.11013327538967133,-1.3580322265625,-3.5400390625,20.9197998046875
0.7537499000000001,7.766790390014648,-5.571307182312012,0.08619125932455063,-2.349853515625,-3.509521484375,20.9197998046875
0.7562499,7.747636795043945,-5.592854976654053,0.0694318488240242,-3.3416748046875,-3.570556640625,20.8282470703125
0.7587499000000001,7.728483200073242,-5.612008571624756,0.05746084079146385,-4.119873046875,-3.6773681640625,20.93505859375
0.7612499,7.709329605102539,-5.635950565338135,0.040701430290937424,-5.31005859375,-3.6468505859375,20.4315185546875
0.7637499000000001,7.687781810760498,-5.664681434631348,0.033518824726343155,-6.0272216796875,-3.5400390625,20.2178955078125
0.7662499,7.666234016418457,-5.6910176277160645,0.014365210197865963,-6.683349609375,-3.6773681640625,20.2484130859375
0.7687499000000001,7.642292022705078,-5.710171222686768,-0.002394201699644327,-7.598876953125,-3.60107421875,20.1568603515625
0.7712499,7.620744228363037,-5.729324817657471,-0.028730420395731926,-8.2855224609375,-3.6468505859375,19.95849609375
0.7737499,7.601590633392334,-5.74129581451416,-0.05985504388809204,-8.819580078125,-3.47900390625,19.9432373046875
0.7762499,7.582436561584473,-5.7556610107421875,-0.0933738648891449,-9.6435546875,-3.5400390625,20.1568603515625
0.7787499,7.560888767242432,-5.767632007598877,-0.1364694982767105,-10.25390625,-3.5247802734375,20.1568603515625
0.7812499,7.5417351722717285,-5.770026206970215,-0.17956513166427612,-11.0015869140625,-3.47900390625,20.111083984375
0.7837499,7.522581577301025,-5.7772088050842285,-0.22266076505184174,-11.7340087890625,-3.265380859375,19.9737548828125
0.7862499000000001,7.4986395835876465,-5.779603004455566,-0.26815059781074524,-12.4969482421875,-3.23486328125,20.20263671875
0.7887499,7.474697589874268,-5.793968200683594,-0.31124621629714966,-13.1378173828125,-2.8839111328125,20.3857421875
0.7912499000000001,7.445967197418213,-5.8203043937683105,-0.35673606395721436,-13.5040283203125,-2.5787353515625,20.233154296875
0.7937499,7.417236804962158,-5.846640586853027,-0.395043283700943,-13.8092041015625,-2.5177001953125,20.2484130859375
0.7962499000000001,7.383718013763428,-5.872976779937744,-0.4357447028160095,-14.3585205078125,-2.3040771484375,20.751953125
0.7987499,7.357381820678711,-5.899312973022461,-0.47165772318840027,-14.6026611328125,-2.227783203125,21.026611328125
0.8012499000000001,7.326257228851318,-5.92325496673584,-0.507570743560791,-15.289306640625,-1.8768310546875,21.1181640625
0.8037499,7.304709434509277,-5.944802761077881,-0.545877993106842,-15.4266357421875,-1.6021728515625,21.270751953125
0.8062499000000001,7.283161640167236,-5.966350555419922,-0.5817909836769104,-15.68603515625,-1.2969970703125,21.453857421875
0.8087499,7.266402244567871,-5.987898349761963,-0.6153098344802856,-15.9759521484375,-1.03759765625,21.8963623046875
0.8112499000000001,7.247248649597168,-5.999869346618652,-0.6560112833976746,-16.143798828125,-0.5035400390625,22.2625732421875
0.8137499,7.225700855255127,-6.01423454284668,-0.6943184733390808,-16.4337158203125,-0.06103515625,22.5677490234375
0.8162499000000001,7.19936466217041,-6.021417140960693,-0.7422025203704834,-16.357421875,0.3662109375,22.857666015625
0.8187499,7.163451671600342,-6.023811340332031,-0.7924807667732239,-16.6473388671875,0.8697509765625,23.345947265625
0.8212499000000001,7.1251444816589355,-6.028599739074707,-0.8427590131759644,-17.15087890625,1.2664794921875,23.834228515625
0.8237499,7.082048416137695,-6.030993938446045,-0.8930372595787048,-17.364501953125,1.739501953125,24.322509765625
0.8262499000000001,7.038952827453613,-6.035782337188721,-0.9481038451194763,-17.63916015625,2.5482177734375,24.7955322265625
0.8287499,6.9910688400268555,-6.0405707359313965,-1.0031704902648926,-17.913818359375,3.1585693359375,25.2227783203125
0.8312499000000001,6.943184852600098,-6.038176536560059,-1.0678139925003052,-18.00537109375,3.814697265625,25.9552001953125
0.8337499,6.890512466430664,-6.033388137817383,-1.1276689767837524,-18.402099609375,4.4708251953125,26.6571044921875
0.8362499,6.833051681518555,-6.0190229415893555,-1.1851298809051514,-19.012451171875,5.2337646484375,27.1148681640625
0.8387499,6.777985095977783,-5.999869346618652,-1.2425906658172607,-19.378662109375,6.1187744140625,27.52685546875
0.8412499,6.71334171295166,-5.978321552276611,-1.290474772453308,-19.5770263671875,6.7138671875,28.4271240234375
0.8437499,6.643909931182861,-5.9519853591918945,-1.3455413579940796,-20.1568603515625,7.5836181640625,29.2205810546875
0.8462499,6.564900875091553,-5.925649166107178,-1.403002142906189,-20.8282470703125,8.1939697265625,29.96826171875
0.8487499000000001,6.476315498352051,-5.904101371765137,-1.4652514457702637,-21.4996337890625,9.1705322265625,30.57861328125
0.8512499,6.378153324127197,-5.882553577423096,-1.5394717454910278,-22.15576171875,10.1470947265625,31.219482421875
0.8537499000000001,6.270414352416992,-5.861005783081055,-1.6160861253738403,-22.979736328125,10.772705078125,32.318115234375
0.8562499,6.150704383850098,-5.837063789367676,-1.699883222579956,-24.0631103515625,11.627197265625,33.355712890625
0.8587499000000001,6.030993938446045,-5.815515995025635,-1.7812861204147339,-24.8565673828125,12.5732421875,34.1949462890625
0.8612499,5.901707172393799,-5.791574001312256,-1.8579005002975464,-26.153564453125,13.336181640625,34.97314453125
0.8637499000000001,5.7772088050842285,-5.7772088050842285,-1.9321208000183105,-27.2064208984375,14.2822265625,36.1175537109375
0.8662499,5.647922039031982,-5.7556610107421875,-1.9967641830444336,-28.13720703125,15.0909423828125,37.2772216796875
0.8687499000000001,5.518634796142578,-5.736507415771484,-2.049436569213867,-29.4952392578125,16.2811279296875,38.5589599609375
0.8712499,5.384559631347656,-5.70777702331543,-2.099714994430542,-30.5023193359375,17.1051025390625,39.61181640625
0.8737499000000001,5.238513469696045,-5.674258232116699,-2.1380221843719482,-31.8450927734375,17.8985595703125,40.740966796875
0.8762499,5.085284233093262,-5.640739440917969,-2.1787235736846924,-33.294677734375,18.890380859375,42.144775390625
0.8787499000000001,4.910507678985596,-5.60722017288208,-2.2242133617401123,-34.6527099609375,19.7296142578125,43.731689453125
0.8812499,4.728548526763916,-5.583278179168701,-2.2816741466522217,-35.7208251953125,20.4620361328125,45.1812744140625
0.8837499000000001,4.529829502105713,-5.568912982940674,-2.3535003662109375,-37.200927734375,21.514892578125,46.69189453125
0.8862499,4.321534156799316,-5.559336185455322,-2.432508945465088,-38.4063720703125,22.5830078125,48.4466552734375
0.8887499000000001,4.1156325340271,-5.552153587341309,-2.5067291259765625,-39.581298828125,23.5595703125,50.048828125
0.8912499,3.914519786834717,-5.537788391113281,-2.5761611461639404,-40.8782958984375,24.658203125,51.94091796875
0.8937499000000001,3.7277719974517822,-5.5114521980285645,-2.6384103298187256,-42.2515869140625,25.5889892578125,53.89404296875
0.8962499,3.555389642715454,-5.47075080871582,-2.695871114730835,-43.731689453125,26.67236328125,56.0455322265625
0.8987499,3.3949780464172363,-5.418078422546387,-2.75812029838562,-45.3033447265625,27.5421142578125,58.074951171875
0.9012499,3.2417490482330322,-5.353435039520264,-2.8227639198303223,-46.722412109375,28.4423828125,60.36376953125
0.9037499,3.0885202884674072,-5.288791656494141,-2.894589900970459,-48.40087890625,29.84619140625,62.6068115234375
0.9062499,2.9305028915405273,-5.22175407409668,-2.956839084625244,-50.079345703125,30.7769775390625,64.788818359375
0.9087499,2.765302896499634,-5.152322292327881,-3.0142998695373535,-51.605224609375,31.73828125,67.169189453125
0.9112499000000001,2.6001031398773193,-5.085284233093262,-3.0573954582214355,-53.03955078125,33.0657958984375,69.671630859375
0.9137499,2.427720546722412,-5.0014872550964355,-3.093308687210083,-54.7943115234375,33.9202880859375,72.0367431640625
0.9162499000000001,2.252943754196167,-4.90571928024292,-3.1268274784088135,-56.640625,35.09521484375,74.4476318359375
0.9187499,2.0877439975738525,-4.797980308532715,-3.160346269607544,-58.6090087890625,36.1328125,76.9500732421875
0.9212499000000001,1.9177556037902832,-4.666299343109131,-3.1914708614349365,-60.6689453125,37.384033203125,79.5135498046875
0.9237499,1.7717092037200928,-4.532223701477051,-3.2297780513763428,-62.835693359375,38.8031005859375,82.000732421875
0.9262499000000001,1.6328455209732056,-4.402936935424805,-3.268085241317749,-64.9261474609375,40.1763916015625,84.5947265625
0.9287499,1.50355863571167,-4.266467571258545,-3.31118106842041,-66.6961669921875,41.595458984375,87.1429443359375
0.9312499000000001,1.3718775510787964,-4.1395745277404785,-3.3470940589904785,-68.9239501953125,42.9534912109375,89.4927978515625
0.9337499,1.2234370708465576,-4.0078935623168945,-3.3686418533325195,-71.2127685546875,44.342041015625,92.041015625
0.9362499000000001,1.0654197931289673,-3.885789394378662,-3.375824451446533,-72.8912353515625,45.623779296875,94.54345703125
0.9387499,0.8858546018600464,-3.758896589279175,-3.378218650817871,-74.188232421875,47.2564697265625,97.198486328125
0.9412499000000001,0.7086837291717529,-3.648763418197632,-3.3710360527038574,-75.836181640625,49.0875244140625,99.822998046875
0.9437499,0.33997663855552673,-3.421314239501953,-3.3686418533325195,-78.4149169921875,52.215576171875,105.2703857421875
0.9462499000000001,0.16759411990642548,-3.2968156337738037,-3.3710360527038574,-79.77294921875,53.8330078125,108.245849609375
0.9487499,-0.0071826050989329815,-3.162740468978882,-3.3662476539611816,-81.4208984375,55.4962158203125,111.02294921875
0.9512499000000001,-0.17238251864910126,-3.0382418632507324,-3.35667085647583,-82.763671875,57.2052001953125,114.31884765625
0.9537499,-0.3495534360408783,-2.9065608978271484,-3.332728862762451,-83.55712890625,58.990478515625,117.889404296875
0.9562499000000001,-0.5315127968788147,-2.808398485183716,-3.292027235031128,-84.625244140625,61.1419677734375,121.2615966796875
0.9587499,-0.7326257228851318,-2.7222073078155518,-3.24414324760437,-85.3729248046875,63.232421875,125.18310546875
0.9612499,-0.9481038451194763,-2.6575639247894287,-3.1866824626922607,-85.3271484375,65.643310546875,129.2572021484375
0.9637499,-1.1683704853057861,-2.609679937362671,-3.1292216777801514,-85.38818359375,67.8558349609375,133.3770751953125
0.9662499,-1.3766659498214722,-2.5785553455352783,-3.066972494125366,-85.0067138671875,70.1904296875,137.87841796875
0.9687499,-1.5897499322891235,-2.537853717803955,-3.002328872680664,-84.3658447265625,72.418212890625,142.852783203125
0.9712499,-1.7573440074920654,-2.5091233253479004,-2.9305028915405273,-84.2437744140625,75.13427734375,147.979736328125
0.9737499000000001,-1.9177556037902832,-2.456450939178467,-2.846705913543701,-83.2061767578125,77.6519775390625,153.411865234375
0.9762499,-2.0470423698425293,-2.3798365592956543,-2.7700912952423096,-82.183837890625,80.1239013671875,158.7677001953125
0.9787499000000001,-2.1499931812286377,-2.296039342880249,-2.669534921646118,-81.207275390625,82.8399658203125,164.3829345703125
0.9812499,-2.233790159225464,-2.183511972427368,-2.5737667083740234,-79.7119140625,85.6170654296875,170.5474853515625
0.9837499000000001,-2.300827741622925,-2.0829553604125977,-2.454056739807129,-78.5369873046875,88.775634765625,176.7730712890625
0.9862499,-2.3558945655822754,-1.9776105880737305,-2.322375535964966,-76.72119140625,91.9647216796875,182.8155517578125
0.9887499000000001,-2.406172752380371,-1.886630892753601,-2.1739351749420166,-74.4781494140625,95.0927734375,189.0716552734375
0.9912499,-2.4660277366638184,-1.7980455160140991,-2.0183119773864746,-71.868896484375,98.114013671875,195.5108642578125
0.9937499000000001,-2.5258827209472656,-1.7142484188079834,-1.8579005002975464,-68.7408447265625,101.5777587890625,201.7822265625
0.9962499,-2.6024973392486572,-1.5921441316604614,-1.7166426181793213,-65.97900390625,105.2398681640625,208.6639404296875
0.9987499000000001,-2.695871114730835,-1.4748282432556152,-1.5729905366897583,-64.483642578125,108.70361328125,215.606689453125
1.0012499,-2.806004285812378,-1.3215993642807007,-1.4437036514282227,-62.3016357421875,112.0452880859375,222.1221923828125
1.0037498999999999,-2.940079689025879,-1.1851298809051514,-1.3120225667953491,-59.814453125,115.3717041015625,228.851318359375
1.0062499,-3.090914487838745,-1.0582371950149536,-1.1755530834197998,-57.18994140625,118.95751953125,235.809326171875
1.0087499,-3.2561142444610596,-0.9552865028381348,-1.036689281463623,-54.3975830078125,122.406005859375,242.85888671875
1.0112499,-3.423708438873291,-0.8858546018600464,-0.8978256583213806,-51.666259765625,125.9613037109375,249.847412109375
1.0137498999999999,-3.581725835800171,-0.8451532125473022,-0.7637503147125244,-48.431396484375,129.5318603515625,256.9580078125
1.0162499,-3.7181951999664307,-0.8451532125473022,-0.6320692300796509,-45.2423095703125,133.4228515625,264.1143798828125
1.0187499,-3.8283286094665527,-0.871489405632019,-0.5027823448181152,-41.6717529296875,136.932373046875,271.1944580078125
1.0212499,-3.909731388092041,-0.9289502501487732,-0.3758896589279175,-38.1317138671875,140.6097412109375,278.4881591796875
1.0237498999999999,-3.976768970489502,-0.9911994934082031,-0.24660277366638184,-34.8663330078125,144.47021484375,285.888671875
1.0262498999999998,-4.02465295791626,-1.048660397529602,-0.1149216815829277,-32.0892333984375,148.1475830078125,293.212890625
1.0287499,-4.065354347229004,-1.1061211824417114,0.014365210197865963,-29.2816162109375,151.6571044921875,300.750732421875
1.0312499,-4.108449935913086,-1.1492167711257935,0.14604631066322327,-26.2298583984375,155.242919921875,308.3038330078125
1.0337498999999999,-4.151545524597168,-1.1971008777618408,0.2777273952960968,-23.4222412109375,158.69140625,315.7501220703125
1.0362498999999998,-4.206612586975098,-1.2497732639312744,0.4118026793003082,-20.6298828125,162.1246337890625,323.211669921875
1.0387499,-4.266467571258545,-1.3072341680526733,0.5554547905921936,-17.6849365234375,165.6036376953125,330.7037353515625
1.0412499,-4.338293552398682,-1.3862427473068237,0.7086837291717529,-14.46533203125,168.5943603515625,338.2110595703125
1.0437499,-4.414907932281494,-1.482010841369629,0.8810662031173706,-12.0697021484375,172.0428466796875,345.64208984375
1.0462498999999998,-4.4939165115356445,-1.6041151285171509,1.0749965906143188,-9.9334716796875,175.3997802734375,353.179931640625
1.0487499,-4.575319290161133,-1.7381904125213623,1.2856862545013428,-7.598876953125,178.5736083984375,360.53466796875
1.0512499,-4.654327869415283,-1.8938134908676147,1.5131354331970215,-5.7830810546875,181.9000244140625,367.9046630859375
1.0537499,-4.72376012802124,-2.056619167327881,1.7357962131500244,-4.302978515625,185.24169921875,375.091552734375
1.0562498999999999,-4.790797710418701,-2.233790159225464,1.9536685943603516,-2.9296875,188.1561279296875,382.2174072265625
1.0587499,-4.8482584953308105,-2.4229321479797363,2.1595699787139893,-1.617431640625,190.9637451171875,389.2669677734375
1.0612499,-4.908113479614258,-2.604891538619995,2.3511061668395996,-0.213623046875,193.84765625,396.026611328125
1.0637499,-4.982333660125732,-2.7916390895843506,2.537853717803955,0.640869140625,196.71630859375,402.587890625
1.0662498999999999,-5.066130638122559,-2.959233283996582,2.715024709701538,1.28173828125,199.27978515625,408.9202880859375
1.0687499,-5.16429328918457,-3.1100680828094482,2.9017724990844727,1.5869140625,201.5838623046875,414.85595703125
1.0712499,-5.262455463409424,-3.246537446975708,3.098097085952759,1.9073486328125,203.7811279296875,420.5780029296875
1.0737499,-5.360617637634277,-3.3710360527038574,3.313575267791748,1.9378662109375,205.718994140625,426.0406494140625
1.0762498999999999,-5.458779811859131,-3.5027170181274414,3.557783842086792,1.3885498046875,207.8704833984375,431.21337890625
1.0787499,-5.559336185455322,-3.665522813796997,3.8379054069519043,0.6103515625,209.716796875,436.0809326171875
1.0812499,-5.659893035888672,-3.885789394378662,4.146757125854492,-0.1220703125,210.99853515625,440.8721923828125
1.0837499,-5.772420406341553,-4.182670593261719,4.508281707763672,-0.762939453125,212.3565673828125,445.3125
1.0862498999999999,-5.892130374908447,-4.570530891418457,4.90571928024292,-1.7242431640625,213.653564453125,449.5849609375
1.0887499,-6.01423454284668,-5.056553840637207,5.353435039520264,-2.86865234375,214.4622802734375,453.8421630859375
1.0912499,-6.138733386993408,-5.6191911697387695,5.841852188110352,-3.5400390625,214.935302734375,457.855224609375
1.0937499,-6.2632317543029785,-6.260837554931641,6.368576526641846,-4.241943359375,215.27099609375,461.6241455078125
1.0962498999999999,-6.368576526641846,-6.947973251342773,6.907271862030029,-4.913330078125,215.4541015625,465.179443359375
1.0987498999999998,-6.476315498352051,-7.654263019561768,7.433996200561523,-5.4931640625,215.606689453125,468.8873291015625
1.1012499,-6.574477672576904,-8.374917984008789,7.936778545379639,-6.3018798828125,215.4998779296875,471.98486328125
1.1037499,-6.677428722381592,-9.090784072875977,8.406042098999023,-6.9427490234375,214.9505615234375,474.8687744140625
1.1062499,-6.794744491577148,-9.813833236694336,8.844181060791016,-7.7056884765625,213.9739990234375,477.447509765625
1.1087498999999998,-6.9240312576293945,-10.558429718017578,9.260771751403809,-8.087158203125,212.738037109375,479.6295166015625
1.1112499,-7.053318023681641,-11.329362869262695,9.660603523254395,-8.2550048828125,210.87646484375,481.5826416015625
1.1137499,-7.204153060913086,-12.160150527954102,10.156203269958496,-8.1939697265625,208.80126953125,483.184814453125
1.1162499,-7.347805023193359,-13.019668579101562,10.620678901672363,-7.2174072265625,206.2530517578125,484.2529296875
1.1187498999999999,-7.5201873779296875,-13.986926078796387,11.259930610656738,-6.317138671875,203.2318115234375,485.260009765625
1.1212499,-7.716512203216553,-14.966155052185059,11.925518989562988,-5.06591796875,199.3560791015625,485.2752685546875
1.1237499,-7.9415669441223145,-16.05072784423828,12.72757625579834,-5.4168701171875,195.3887939453125,485.2142333984375
1.1262499,-8.180987358093262,-17.154455184936523,13.594277381896973,-4.9896240234375,190.5975341796875,484.466552734375
1.1287498999999999,-8.415618896484375,-18.296489715576172,14.504074096679688,-4.364013671875,185.5926513671875,483.1695556640625
1.1312499,-8.614337921142578,-19.44091796875,15.382745742797852,-4.3182373046875,180.60302734375,480.987548828125
1.1337499,-8.769960403442383,-20.544645309448242,16.16086196899414,-3.631591796875,175.506591796875,477.783203125
1.1362499,-8.904036521911621,-21.605276107788086,16.84320831298828,-2.9754638671875,170.013427734375,473.8922119140625
1.1387498999999999,-9.01895809173584,-22.574928283691406,17.417818069458008,-0.8544921875,164.24560546875,469.4671630859375
1.1412499,-9.107542991638184,-23.45599365234375,17.942148208618164,1.495361328125,157.71484375,464.41650390625
1.1437499,-9.136273384094238,-24.23171615600586,18.461688995361328,4.852294921875,150.909423828125,458.3740234375
1.1462499,-9.040505409240723,-24.921245574951172,19.048269271850586,8.36181640625,143.37158203125,451.690673828125
1.1487498999999999,-8.793902397155762,-25.601198196411133,19.761741638183594,11.749267578125,135.2691650390625,444.5343017578125
1.1512499,-8.362946510314941,-26.295516967773438,20.645200729370117,17.2576904296875,127.1514892578125,436.8133544921875
1.1537499,-7.0341644287109375,-28.093563079833984,22.969970703125,28.564453125,108.245849609375,418.5638427734375
1.1562499,-6.150704383850098,-29.147010803222656,24.274810791015625,38.2537841796875,97.900390625,409.5916748046875
1.1587498999999999,-5.142745018005371,-30.279468536376953,25.5700740814209,47.54638671875,87.3870849609375,399.9786376953125
1.1612498999999998,-4.005499362945557,-31.376012802124023,26.714502334594727,56.1981201171875,76.84326171875,389.923095703125
1.1637499,-2.7892448902130127,-32.46058654785156,27.70330810546875,67.5048828125,65.521240234375,379.8370361328125
1.1662499,-1.4939818382263184,-33.51642990112305,28.48381805419922,80.7952880859375,52.764892578125,368.927001953125
1.1687499,-0.09576806426048279,-34.543540954589844,29.03927230834961,95.062255859375,39.154052734375,358.001708984375
1.1712498999999998,1.3670891523361206,-35.470096588134766,29.4151611328125,110.2752685546875,25.8941650390625,347.59521484375
1.1737499,2.9496564865112305,-36.20272445678711,29.568391799926758,127.0599365234375,12.1612548828125,338.0126953125
1.1762499,4.58968448638916,-36.8132438659668,29.63542938232422,143.4173583984375,-0.91552734375,328.857421875
1.1787499,6.27280855178833,-37.36870193481445,29.695283889770508,158.4625244140625,-16.4947509765625,318.3746337890625
1.1812498999999999,7.999027729034424,-38.010345458984375,29.82696533203125,170.1812744140625,-33.0657958984375,306.6864013671875
1.1837499,9.72285270690918,-38.82197952270508,30.035261154174805,181.9610595703125,-48.4466552734375,295.5780029296875
1.1862499,11.403582572937012,-39.631221771240234,30.19327735900879,195.7244873046875,-63.9801025390625,284.9273681640625
1.1887499,12.97657299041748,-40.303993225097656,30.2507381439209,209.8236083984375,-79.0252685546875,274.1546630859375
1.1912498999999999,14.381969451904297,-40.58171844482422,30.099903106689453,221.0540771484375,-95.4437255859375,262.481689453125
1.1937499,15.595829963684082,-40.361454010009766,29.755138397216797,230.0262451171875,-112.5030517578125,250.213623046875
1.1962499,16.59660530090332,-39.67671203613281,29.261932373046875,235.3973388671875,-128.96728515625,236.9537353515625
1.1987499,17.405845642089844,-38.55622482299805,28.68732452392578,239.2120361328125,-145.843505859375,222.5494384765625
1.2012498999999999,18.030733108520508,-37.17477035522461,28.141447067260742,240.1275634765625,-163.8641357421875,207.061767578125
1.2037499,18.47844886779785,-35.628116607666016,27.751192092895508,237.24365234375,-181.7474365234375,190.4144287109375
1.2062499,18.744205474853516,-34.03836441040039,27.564443588256836,230.3314208984375,-200.347900390625,172.637939453125
1.2087499,18.84236717224121,-32.496498107910156,27.600357055664062,219.940185546875,-219.7265625,153.6407470703125
1.2112498999999999,18.77532958984375,-31.16053581237793,27.856536865234375,206.0394287109375,-239.3035888671875,133.30078125
1.2137499,18.511966705322266,-30.044837951660156,28.263551712036133,190.826416015625,-258.3770751953125,112.060546875
1.2162499,18.16241455078125,-29.199684143066406,28.716054916381836,174.9725341796875,-279.72412109375,89.752197265625
1.2187499,17.712305068969727,-28.68971824645996,29.237991333007812,153.350830078125,-297.4853515625,65.5059814453125
1.2212498999999999,17.240646362304688,-28.419174194335938,29.726408004760742,134.765625,-315.399169921875,41.3665771484375
1.2237498999999998,16.730682373046875,-28.443117141723633,30.231584548950195,113.58642578125,-333.9691162109375,15.80810546875
1.2262499,16.21592903137207,-28.716054916381836,30.74155044555664,91.5679931640625,-352.23388671875,-9.7503662109375
1.2287499,15.672444343566895,-29.237991333007812,31.277851104736328,70.1141357421875,-370.330810546875,-35.5377197265625
1.2312499,15.105018615722656,-30.030471801757812,31.852458953857422,48.858642578125,-386.8255615234375,-61.1724853515625
1.2337498999999998,14.528016090393066,-31.124622344970703,32.51804733276367,28.9459228515625,-402.6947021484375,-86.3189697265625
1.2362499,13.919888496398926,-32.532413482666016,33.29376983642578,11.0321044921875,-417.8924560546875,-111.572265625
1.2387499,13.259089469909668,-34.2203254699707,34.16046905517578,-3.47900390625,-431.3201904296875,-136.8560791015625
1.2412499,12.492944717407227,-36.15005111694336,35.098995208740234,-15.0146484375,-443.7713623046875,-162.53662109375
1.2437498999999999,11.590330123901367,-38.27610397338867,36.0399169921875,-25.1007080078125,-456.6802978515625,-188.8427734375
1.2462499,10.47942066192627,-40.51707458496094,36.985626220703125,-32.867431640625,-469.573974609375,-215.88134765625
1.2487499,9.181763648986816,-42.85620880126953,37.871482849121094,-37.445068359375,-482.23876953125,-243.0572509765625
1.2512499,7.659051418304443,-45.26716995239258,38.716636657714844,-40.0390625,-493.1488037109375,-270.99609375
1.2537498999999999,5.966350555419922,-47.726016998291016,39.48996353149414,-38.482666015625,-500,-299.102783203125
1.2562499,4.07014274597168,-50.187255859375,40.17230987548828,-30.7464599609375,-500,-326.7974853515625
1.2587499,1.9967641830444336,-52.643707275390625,40.80198669433594,-22.0489501953125,-500,-355.0567626953125
1.2612499,-0.22266076505184174,-54.92777633666992,41.244911193847656,-10.6353759765625,-500,-382.62939453125
1.2637498999999999,-2.561795711517334,-56.895809173583984,41.54658126831055,3.41796875,-500,-409.271240234375
1.2662499,-4.929661273956299,-58.51428985595703,41.618408203125,15.2435302734375,-500,-435.8978271484375
1.2687499,-7.309497833251953,-59.74490737915039,41.57770538330078,25.299072265625,-500,-462.6617431640625
1.2712499,-9.651026725769043,-60.894126892089844,41.20181655883789,35.64453125,-500,-490.0665283203125
1.2737498999999999,-11.856086730957031,-62.136714935302734,40.51947021484375,50.567626953125,-500,-500
1.2762499,-13.91510009765625,-63.80786895751953,39.42292404174805,72.723388671875,-500,-500
1.2787499,-15.773000717163086,-65.86448669433594,37.91936492919922,102.294921875,-500,-500
1.2812499,-17.56625747680664,-68.14137268066406,36.257789611816406,135.284423828125,-500,-500
1.2837498999999999,-19.515138626098633,-70.0256118774414,34.63691711425781,169.4793701171875,-500,-500
1.2862498999999998,-21.830331802368164,-70.91385650634766,33.04716491699219,197.296142578125,-500,-500
1.2887499,-24.53817367553711,-70.36798095703125,31.569944381713867,213.2720947265625,-500,-500
1.2912499,-27.502195358276367,-68.28742218017578,29.855695724487305,219.5281982421875,-500,-500
1.2937499,-30.43748664855957,-65.13186645507812,27.988218307495117,218.93310546875,-500,-500
1.2962498999999998,-33.11659622192383,-61.46394729614258,25.852590560913086,214.630126953125,-500,-500
1.2987499,-35.42461013793945,-57.8391227722168,23.6259822845459,207.8094482421875,-500,-500
1.3012499,-37.37109375,-54.58540344238281,21.38979721069336,198.974609375,-500,-500
1.3037499,-39.051822662353516,-51.788978576660156,19.218257904052734,186.9659423828125,-500,-500
1.3062498999999999,-40.567352294921875,-49.373226165771484,17.085023880004883,171.8597412109375,-500,-500
1.3087499,-42.02781677246094,-47.16098403930664,15.002067565917969,154.754638671875,-500,-500
1.3112499,-43.48828125,-44.88649368286133,12.88559341430664,135.80322265625,-500,-500
1.3137499,-44.91043472290039,-42.38216018676758,10.704475402832031,113.128662109375,-500,-500
1.3162498999999999,-46.19612121582031,-39.4205322265625,8.425195693969727,87.9974365234375,-500,-500
1.3187499,-47.20647430419922,-35.92020797729492,6.016628742218018,61.309814453125,-500,-500
1.3212499,-47.78587341308594,-31.821334838867188,3.711012601852417,34.24072265625,-500,-500
1.3237499,-47.893611907958984,-27.061662673950195,1.4508862495422363,5.55419921875,-500,-500
1.3262498999999999,-47.60630798339844,-21.667526245117188,-0.28969839215278625,-27.618408203125,-500,-500
1.3287499,-47.232810974121094,-16.024391174316406,-1.3551181554794312,-69.061279296875,-500,-500
1.3312499,-47.256752014160156,-10.685321807861328,-1.625662922859192,-111.297607421875,-500,-500
1.3337499,-48.080360412597656,-6.382941722869873,-1.137245774269104,-146.2860107421875,-474.2431640625,-500
1.3362498999999999,-49.80657958984375,-3.6727054119110107,-0.26336219906806946,-169.12841796875,-451.1871337890625,-500
1.3387499,-52.16486740112305,-2.612074136734009,0.4596867263317108,-179.718017578125,-430.145263671875,-500
1.3412499,-54.65483474731445,-2.9041666984558105,0.7134721279144287,-180.5877685546875,-408.843994140625,-500
1.3437499,-56.73539733886719,-3.9815573692321777,0.08858546614646912,-173.52294921875,-387.14599609375,-486.6790771484375
1.3462498999999999,-58.01629638671875,-5.193023681640625,-1.3551181554794312,-159.088134765625,-367.2637939453125,-460.418701171875
1.3487498999999998,-58.3036003112793,-6.090848922729492,-3.603273630142212,-140.9454345703125,-348.3123779296875,-428.924560546875
1.3512499,-57.566184997558594,-6.354211330413818,-6.287173748016357,-121.7498779296875,-329.9713134765625,-393.218994140625
1.3537499,-55.99080276489258,-5.796362400054932,-9.174580574035645,-100.9521484375,-314.6209716796875,-355.7891845703125
1.3562499,-53.795318603515625,-4.522646903991699,-11.942277908325195,-83.9080810546875,-302.0172119140625,-316.192626953125
1.3587498999999998,-51.29816436767578,-2.6384103298187256,-14.255077362060547,-69.854736328125,-292.1600341796875,-277.2216796875
1.3612499,-46.081199645996094,2.47560453414917,-17.07305145263672,-46.966552734375,-280.0445556640625,-203.9337158203125
1.3637499,-43.473915100097656,5.389348030090332,-17.30529022216797,-43.15185546875,-275.1617431640625,-171.5240478515625
1.3662499,-40.85465621948242,8.317456245422363,-16.735469818115234,-36.8804931640625,-267.8985595703125,-143.6309814453125
1.3687498999999999,-38.242584228515625,11.17852783203125,-15.502455711364746,-32.8826904296875,-257.5225830078125,-119.598388671875
1.3712499,-35.702335357666016,13.816938400268555,-13.833697319030762,-31.6314697265625,-244.598388671875,-99.1363525390625
1.3737499,-33.377567291259766,16.10100555419922,-11.927912712097168,-32.318115234375,-230.0872802734375,-81.9854736328125
1.3762499,-31.373619079589844,17.853561401367188,-9.952696800231934,-35.1409912109375,-214.630126953125,-67.4285888671875
1.3787498999999999,-29.767108917236328,18.9453182220459,-8.063671112060547,-40.0848388671875,-200.592041015625,-54.0313720703125
1.3812499,-28.514942169189453,19.31402587890625,-6.375759124755859,-46.4324951171875,-187.5,-40.8935546875
1.3837499,-27.5333194732666,18.9644718170166,-5.0014872550964355,-53.3599853515625,-174.86572265625,-27.2369384765625
1.3862499,-26.66422462463379,18.002002716064453,-4.010287761688232,-59.87548828125,-162.7197265625,-12.9547119140625
1.3887498999999999,-25.809494018554688,16.572664260864258,-3.383007049560547,-65.948486328125,-150.604248046875,2.2125244140625
1.3912499,-24.91166877746582,14.877569198608398,-3.026270866394043,-71.9757080078125,-138.3209228515625,17.730712890625
1.3937499,-23.9851131439209,13.136984825134277,-2.786850690841675,-78.155517578125,-127.2430419921875,32.989501953125
1.3962499,-23.072921752929688,11.532869338989258,-2.542642116546631,-83.8775634765625,-117.034912109375,47.05810546875
1.3987498999999999,-22.213403701782227,10.170568466186523,-2.185906171798706,-89.4012451171875,-108.1085205078125,59.4635009765625
1.4012499,-21.39458656311035,9.090784072875977,-1.7142484188079834,-94.66552734375,-100.738525390625,69.5037841796875
1.4037499,-20.585346221923828,8.24084186553955,-1.1348515748977661,-98.69384765625,-94.29931640625,77.239990234375
1.4062499,-19.74258804321289,7.544129371643066,-0.5099649429321289,-102.1270751953125,-88.531494140625,82.6416015625
1.4087498999999999,-18.804059982299805,6.909666061401367,0.10534487664699554,-104.8431396484375,-83.67919921875,85.723876953125
1.4112498999999998,-17.753005981445312,6.275202751159668,0.6727706789970398,-107.1319580078125,-79.4677734375,86.7919921875
1.4137499,-16.563087463378906,5.592854976654053,1.161187767982483,-109.2071533203125,-75.5157470703125,86.7919921875
1.4162499,-15.229516983032227,4.821922302246094,1.5658079385757446,-111.1907958984375,-71.7926025390625,86.090087890625
1.4187499,-13.771448135375977,3.9624037742614746,1.8818424940109253,-113.1439208984375,-68.145751953125,84.5489501953125
1.4212498999999998,-12.236764907836914,2.999934673309326,2.1116859912872314,-114.92919921875,-64.3157958984375,82.305908203125
1.4237499,-10.6709566116333,1.9560627937316895,2.2649147510528564,-116.729736328125,-60.8062744140625,80.2154541015625
1.4262499,-9.117119789123535,0.8810662031173706,2.3343467712402344,-118.0572509765625,-57.6324462890625,78.0181884765625
1.4287499,-7.6111674308776855,-0.16759411990642548,2.3582887649536133,-118.682861328125,-54.962158203125,75.6378173828125
1.4312498999999999,-6.112396717071533,-1.1300631761550903,2.3535003662109375,-119.4915771484375,-52.5054931640625,73.028564453125
1.4337499,-4.623203277587891,-1.941697597503662,2.3511061668395996,-119.81201171875,-50.4302978515625,69.976806640625
1.4362499,-3.093308687210083,-2.612074136734009,2.3558945655822754,-119.9951171875,-48.3551025390625,66.95556640625
1.4387499,-1.5490485429763794,-3.1316158771514893,2.3702597618103027,-119.8577880859375,-45.7763671875,63.5223388671875
1.4412498999999999,0.009576806798577309,-3.5625722408294678,2.3726539611816406,-118.377685546875,-43.365478515625,59.8907470703125
1.4437499,1.5466543436050415,-3.957615375518799,2.346317768096924,-116.69921875,-41.168212890625,56.21337890625
1.4462499,3.021482467651367,-4.376600742340088,2.2912509441375732,-114.31884765625,-38.51318359375,52.215576171875
1.4487499,4.400542736053467,-4.876988887786865,2.1954829692840576,-111.114501953125,-36.0107421875,48.187255859375
1.4512498999999999,5.6455278396606445,-5.477933406829834,2.0925323963165283,-106.4910888671875,-33.1878662109375,44.036865234375
1.4537499,6.737283706665039,-6.18182897567749,2.0015525817871094,-100.89111328125,-30.6243896484375,40.130615234375
1.4562499,7.687781810760498,-6.9455790519714355,1.9488801956176758,-94.6502685546875,-28.0609130859375,36.4990234375
1.4587499,8.518569946289062,-7.735665798187256,1.941697597503662,-87.70751953125,-25.69580078125,32.7911376953125
1.4612498999999999,9.27034854888916,-8.51138687133789,1.965639591217041,-80.3375244140625,-23.101806640625,28.900146484375
1.4637499,9.962273597717285,-9.222464561462402,2.0039467811584473,-72.32666015625,-20.56884765625,25.5126953125
1.4662499,10.608707427978516,-9.86650562286377,2.0422539710998535,-63.9190673828125,-17.7154541015625,22.7203369140625
1.4687499,11.226411819458008,-10.405200958251953,2.073378562927246,-54.7943115234375,-14.7247314453125,19.7601318359375
1.4712498999999999,11.798625946044922,-10.852916717529297,2.0925323963165283,-45.34912109375,-11.41357421875,17.08984375
1.4737498999999998,12.313379287719727,-11.200075149536133,2.1140801906585693,-36.2091064453125,-7.6904296875,14.4805908203125
1.4762499,12.749124526977539,-11.473014831542969,2.126051187515259,-27.03857421875,-4.0740966796875,11.688232421875
1.4787499,13.074735641479492,-11.669339179992676,2.140416383743286,-18.1121826171875,0.152587890625,8.7127685546875
1.4812499,13.297396659851074,-11.81299114227295,2.164358377456665,-9.185791015625,3.753662109375,5.9967041015625
1.4837498999999998,13.421895027160645,-11.88002872467041,2.1978771686553955,-0.6561279296875,7.476806640625,3.1280517578125
1.4862499,13.48414421081543,-11.87763500213623,2.2601263523101807,6.9122314453125,11.3067626953125,0.152587890625
1.4887499,13.522451400756836,-11.801020622253418,2.3535003662109375,13.916015625,15.106201171875,-2.9449462890625
1.4912499,13.55118179321289,-11.66694450378418,2.4803929328918457,20.843505859375,18.829345703125,-6.0577392578125
1.4937498999999999,13.57751750946045,-11.499350547790527,2.631227731704712,27.191162109375,22.5830078125,-9.58251953125
1.4962499,13.591882705688477,-11.3269681930542,2.7940332889556885,33.5540771484375,26.5045166015625,-13.4124755859375
1.4987499,13.594277381896973,-11.168951034545898,2.942473888397217,39.5965576171875,30.120849609375,-17.39501953125
1.5012499,13.57512378692627,-11.037269592285156,3.0597896575927734,45.501708984375,33.4625244140625,-21.1944580078125
1.5037498999999999,13.55357551574707,-10.936713218688965,3.138798475265503,51.1322021484375,36.92626953125,-25.0091552734375
1.5062499,13.527239799499512,-10.869675636291504,3.177105665206909,56.5643310546875,40.130615234375,-28.594970703125
1.5087499,13.498509407043457,-10.81700325012207,3.1962592601776123,61.6912841796875,43.51806640625,-32.379150390625
1.5112499,13.46020221710205,-10.766724586486816,3.2082302570343018,66.2841796875,46.2646484375,-35.8428955078125
1.5137498999999999,13.409923553466797,-10.685321807861328,3.2321722507476807,70.4803466796875,48.2940673828125,-38.9556884765625
1.5162499,13.33570384979248,-10.54406452178955,3.2537200450897217,74.1424560546875,50.4608154296875,-42.29736328125
1.5187499,13.242329597473145,-10.335768699645996,3.2776620388031006,77.3468017578125,52.2918701171875,-45.34912109375
1.5212499,13.134590148925781,-10.065223693847656,3.2800562381744385,80.078125,53.7109375,-47.9278564453125
1.5237498999999999,13.002909660339355,-9.737217903137207,3.2537200450897217,81.6650390625,54.6417236328125,-50.8880615234375
1.5262499,12.854469299316406,-9.399636268615723,3.1914708614349365,82.4432373046875,54.9774169921875,-53.8177490234375
1.5287499,12.69405746459961,-9.066842079162598,3.093308687210083,83.160400390625,54.8858642578125,-56.1981201171875
1.5312499,12.543222427368164,-8.777143478393555,2.959233283996582,84.0301513671875,54.290771484375,-58.3343505859375
1.5337498999999999,12.418724060058594,-8.53293514251709,2.7892448902130127,84.8846435546875,53.3294677734375,-60.638427734375
1.5362499,12.337321281433105,-8.33182144165039,2.6024973392486572,85.26611328125,52.2918701171875,-62.43896484375
1.5387499,12.291831970214844,-8.145073890686035,2.408566951751709,85.7391357421875,50.4608154296875,-63.90380859375
1.5412499,12.277466773986816,-7.9631147384643555,2.22660756111145,85.2203369140625,48.7213134765625,-65.7501220703125
1.5437499,12.265495300292969,-7.7763671875,2.070984363555908,84.197998046875,46.7376708984375,-67.3065185546875
1.5462498999999998,12.248735427856445,-7.572859764099121,1.941697597503662,82.6416015625,44.5098876953125,-68.7103271484375
1.5487499,12.22000503540039,-7.362170219421387,1.8507179021835327,80.474853515625,42.327880859375,-70.1751708984375
1.5512499,12.160150527954102,-7.146692276000977,1.7884687185287476,77.8350830078125,39.825439453125,-70.892333984375
1.5537499,12.085929870605469,-6.919242858886719,1.7597382068634033,74.7528076171875,37.41455078125,-71.4874267578125
1.5562498999999999,11.985373497009277,-6.689399719238281,1.7477672100067139,70.6939697265625,34.8052978515625,-72.3876953125
1.5587499,11.872846603393555,-6.466738700866699,1.7501614093780518,66.46728515625,32.2723388671875,-73.4710693359375
1.5612499,11.743558883666992,-6.2416839599609375,1.764526605606079,62.3626708984375,29.9530029296875,-74.0966796875
1.5637499,11.604695320129395,-6.042964935302734,1.800439715385437,57.373046875,27.8167724609375,-74.8443603515625
1.5662498999999999,11.444284439086914,-5.861005783081055,1.8507179021835327,52.0172119140625,25.634765625,-75.439453125
1.5687499,11.259930610656738,-5.7125654220581055,1.9297266006469727,46.539306640625,23.74267578125,-76.1260986328125
1.5712499,10.81700325012207,-5.499481201171875,2.1332337856292725,35.8123779296875,19.866943359375,-77.3773193359375
1.5737499,10.575188636779785,-5.430049419403076,2.233790159225464,29.6173095703125,17.7459716796875,-78.155517578125
1.5762498999999999,10.323798179626465,-5.367800235748291,2.3104045391082764,23.6053466796875,16.1590576171875,-78.765869140625
1.5787499,10.091560363769531,-5.30076265335083,2.3511061668395996,18.06640625,14.617919921875,-79.4677734375
1.5812499,9.890447616577148,-5.233725070953369,2.3535003662109375,12.0697021484375,13.2598876953125,-79.9713134765625
1.5837499,9.718064308166504,-5.1595048904418945,2.3319525718688965,6.3018798828125,11.8865966796875,-80.322265625
1.5862498999999999,9.579200744628906,-5.085284233093262,2.298433542251587,0.6561279296875,10.7421875,-80.9326171875
1.5887499,9.466673851013184,-5.020640850067139,2.2673089504241943,-4.7760009765625,10.009765625,-81.2530517578125
1.5912499,9.366117477416992,-4.975151062011719,2.255337953567505,-9.857177734375,9.09423828125,-81.7718505859375
1.5937499,9.275136947631836,-4.95120906829834,2.27209734916687,-14.5111083984375,8.4228515625,-82.2296142578125
1.5962498999999999,9.184157371520996,-4.955997467041016,2.3104045391082764,-18.9056396484375,7.568359375,-82.21435546875
1.5987499,9.097966194152832,-4.9799394607543945,2.3558945655822754,-22.9339599609375,6.8206787109375,-82.70263671875
1.6012499,9.016563415527344,-5.018246650695801,2.408566951751709,-26.5045166015625,6.500244140625,-83.2366943359375
1.6037499,8.937555313110352,-5.056553840637207,2.4396915435791016,-29.7393798828125,5.9661865234375,-83.2672119140625
1.6062499,8.868123054504395,-5.094861030578613,2.454056739807129,-32.4859619140625,5.31005859375,-83.3587646484375
1.6087498999999998,8.798690795898438,-5.135562419891357,2.451662540435791,-34.5916748046875,4.57763671875,-83.6334228515625
1.6112499,8.722076416015625,-5.183446884155273,2.434903144836426,-36.346435546875,4.0740966796875,-83.67919921875
1.6137499,8.635885238647461,-5.240907669067383,2.4133553504943848,-37.200927734375,3.47900390625,-83.6181640625
1.6162499,8.537723541259766,-5.3127336502075195,2.3942017555236816,-38.055419921875,2.62451171875,-83.6334228515625
1.6187498999999999,8.434772491455078,-5.396530628204346,2.3798365592956543,-38.1622314453125,1.617431640625,-83.5723876953125
1.6212499,8.343792915344238,-5.4875102043151855,2.363077163696289,-37.9638671875,0.579833984375,-83.19091796875
1.6237499,8.271966934204102,-5.571307182312012,2.343923568725586,-37.139892578125,-0.4425048828125,-82.7789306640625
1.6262499,8.219294548034668,-5.635950565338135,2.3104045391082764,-35.82763671875,-1.6632080078125,-82.03125
1.6287498999999999,8.188169479370117,-5.6670756340026855,2.2673089504241943,-34.149169921875,-2.960205078125,-81.5887451171875
1.6312499,8.17380428314209,-5.657498836517334,2.207453966140747,-32.196044921875,-4.21142578125,-80.5206298828125
1.6337499,8.176198959350586,-5.612008571624756,2.1356279850006104,-29.876708984375,-5.401611328125,-79.4830322265625
1.6362499,8.190564155578613,-5.537788391113281,2.056619167327881,-27.618408203125,-6.8359375,-78.43017578125
1.6387498999999999,8.219294548034668,-5.4444146156311035,1.9776105880737305,-24.7802734375,-8.544921875,-77.3468017578125
1.6412499,8.24084186553955,-5.336675643920898,1.9057846069335938,-22.0489501953125,-10.101318359375,-75.86669921875
1.6437499,8.259995460510254,-5.219359874725342,1.843535304069519,-18.8446044921875,-11.90185546875,-74.1424560546875
1.6462499,8.271966934204102,-5.0900726318359375,1.7884687185287476,-16.0369873046875,-13.48876953125,-72.845458984375
1.6487498999999999,8.274360656738281,-4.955997467041016,1.7357962131500244,-13.00048828125,-15.3350830078125,-71.10595703125
1.6512499,8.276755332946777,-4.809951305389404,1.6759412288665771,-10.3302001953125,-17.120361328125,-69.3359375
1.6537499,8.267178535461426,-4.654327869415283,1.6112977266311646,-7.6446533203125,-18.829345703125,-67.6422119140625
1.6562499,8.252813339233398,-4.479551315307617,1.53707754611969,-5.1422119140625,-20.3704833984375,-65.8111572265625
1.6587498999999999,8.22887134552002,-4.285621166229248,1.4508862495422363,-2.899169921875,-22.003173828125,-63.7054443359375
1.6612499,8.192957878112793,-4.062960147857666,1.3527239561080933,-0.9918212890625,-23.37646484375,-61.6607666015625
1.6637499,8.154650688171387,-3.8067808151245117,1.2473790645599365,0.640869140625,-24.5208740234375,-59.7381591796875
1.6662499,8.111555099487305,-3.529053211212158,1.137245774269104,1.6632080078125,-25.848388671875,-57.92236328125
1.6687499,8.073247909545898,-3.2345664501190186,1.0414776802062988,2.6397705078125,-27.03857421875,-55.84716796875
1.6712498999999998,8.042123794555664,-2.9328970909118652,0.9528923034667969,2.960205078125,-27.7862548828125,-53.8787841796875
1.6737499,8.018181800842285,-2.6408045291900635,0.8906430602073669,2.5787353515625,-28.4423828125,-52.490234375
1.6762499,8.027758598327637,-2.389413356781006,0.8259995579719543,2.166748046875,-29.2510986328125,-50.6744384765625
1.6787499,8.068459510803223,-2.183511972427368,0.8020575642585754,1.8310546875,-29.7393798828125,-48.76708984375
1.6812498999999999,8.078036308288574,-1.9728221893310547,0.7541735172271729,1.40380859375,-29.2510986328125,-47.18017578125
1.6837499,8.111555099487305,-1.7094600200653076,0.7374141216278076,-0.06103515625,-29.5257568359375,-45.3338623046875
1.6862499,8.063671112060547,-1.4173674583435059,0.7158663272857666,-3.0517578125,-29.2205810546875,-44.464111328125
1.6887499,8.044517517089844,-1.1420341730117798,0.6512228846549988,-5.6915283203125,-29.3426513671875,-43.1060791015625
1.6912498999999999,8.022970199584961,-0.9433154463768005,0.5722141861915588,-6.103515625,-29.60205078125,-41.107177734375
1.6937499,8.063671112060547,-0.8355764150619507,0.5027823448181152,-8.209228515625,-28.9154052734375,-39.9627685546875
1.6962499,8.135497093200684,-0.7493851184844971,0.4381389021873474,-11.04736328125,-27.2979736328125,-39.276123046875
1.6987499,8.20732307434082,-0.6320692300796509,0.4429273009300232,-14.46533203125,-25.787353515625,-38.3148193359375
1.7012498999999999,8.255207061767578,-0.48602294921875,0.47644615173339844,-17.7764892578125,-24.688720703125,-37.322998046875
1.7037499,8.257601737976074,-0.3495534360408783,0.5219359993934631,-21.0723876953125,-23.773193359375,-36.285400390625
1.7062499,8.233659744262695,-0.2561795711517334,0.5602431893348694,-24.10888671875,-22.4456787109375,-35.614013671875
1.7087499,8.212111473083496,-0.19632454216480255,0.5913678407669067,-26.7486572265625,-21.331787109375,-34.60693359375
1.7112498999999999,8.20732307434082,-0.17717093229293823,0.6200982332229614,-29.205322265625,-19.8974609375,-33.50830078125
1.7137499,8.245630264282227,-0.16998831927776337,0.6488286852836609,-31.9366455078125,-18.280029296875,-32.8826904296875
1.7162499,8.307879447937012,-0.16759411990642548,0.6727706789970398,-34.60693359375,-16.448974609375,-32.135009765625
1.7187499,8.391676902770996,-0.17477671802043915,0.6967126727104187,-36.8194580078125,-14.7857666015625,-31.219482421875
1.7212498999999999,8.465897560119629,-0.19871874153614044,0.7110779285430908,-39.093017578125,-13.18359375,-30.57861328125
1.7237499,8.516175270080566,-0.23702596127986908,0.7230489253997803,-40.802001953125,-11.7950439453125,-29.7393798828125
1.7262499,8.530540466308594,-0.3016694188117981,0.7206547260284424,-42.4957275390625,-10.43701171875,-28.99169921875
1.7287499,8.49941635131836,-0.3758896589279175,0.7134721279144287,-43.914794921875,-8.9111328125,-28.3660888671875
1.7312499,8.437167167663574,-0.4692635238170624,0.6967126727104187,-44.952392578125,-7.476806640625,-27.28271484375
1.7337498999999998,8.341399192810059,-0.569819986820221,0.6847416758537292,-45.928955078125,-6.2255859375,-26.1077880859375
1.7362499,8.226476669311523,-0.6775590777397156,0.667982280254364,-46.69189453125,-5.0811767578125,-25.115966796875
1.7387499,8.10437297821045,-0.7829039692878723,0.6560112833976746,-47.1343994140625,-3.692626953125,-23.98681640625
1.7412499,7.972691535949707,-0.8762778043746948,0.6416460275650024,-47.66845703125,-2.5634765625,-22.735595703125
1.7437498999999999,7.836222171783447,-0.950498104095459,0.6200982332229614,-47.9736328125,-1.3885498046875,-21.331787109375
1.7462499,7.69735860824585,-1.0055646896362305,0.586579442024231,-48.40087890625,-0.3509521484375,-20.2178955078125
1.7487499,7.546523571014404,-1.0414776802062988,0.5410895943641663,-48.919677734375,0.8544921875,-18.829345703125
1.7512499,7.400477409362793,-1.048660397529602,0.48602294921875,-49.3011474609375,1.7547607421875,-17.303466796875
1.7537498999999999,7.24485445022583,-1.039083480834961,0.42616790533065796,-49.74365234375,2.86865234375,-16.05224609375
1.7562499,7.091625213623047,-1.01753568649292,0.363918662071228,-50.3082275390625,3.7689208984375,-14.95361328125
1.7587499,6.94079065322876,-0.993593692779541,0.2944868206977844,-50.72021484375,4.6844482421875,-13.580322265625
1.7612499,6.794744491577148,-0.9792284965515137,0.22266076505184174,-51.26953125,5.401611328125,-12.3291015625
1.7637498999999999,6.660669326782227,-0.9840168952941895,0.15562310814857483,-52.032470703125,6.134033203125,-11.5203857421875
1.7662499,6.540958881378174,-1.0079588890075684,0.10295066982507706,-52.7191162109375,6.7901611328125,-10.3302001953125
1.7687499,6.4380083084106445,-1.0606313943862915,0.07182604819536209,-53.0853271484375,7.38525390625,-8.9874267578125
1.7712499,6.337451934814453,-1.137245774269104,0.05985504388809204,-53.7872314453125,7.6751708984375,-7.7362060546875
1.7737498999999999,6.251260757446289,-1.2401964664459229,0.06224924325942993,-54.2144775390625,8.392333984375,-6.77490234375
1.7762499,6.167463779449463,-1.3718775510787964,0.07182604819536209,-54.6112060546875,8.97216796875,-5.5389404296875
1.7787499,6.095637321472168,-1.5155296325683594,0.07422025501728058,-54.840087890625,9.2926025390625,-4.302978515625
1.7812499,5.995080947875977,-1.8339585065841675,0.06224924325942993,-54.50439453125,10.0860595703125,-2.01416015625
1.7837498999999999,5.961562156677246,-1.9991583824157715,0.05746084079146385,-54.50439453125,10.5743408203125,-0.6103515625
1.7862499,5.935225963592529,-2.161964178085327,0.06224924325942993,-53.9703369140625,10.986328125,0.7171630859375
1.7887499,5.920860767364502,-2.3247697353363037,0.0933738648891449,-53.3599853515625,11.016845703125,1.9378662109375
1.7912499,5.916072368621826,-2.4875755310058594,0.15322890877723694,-52.6580810546875,11.444091796875,3.41796875
1.7937499,5.932831764221191,-2.6455929279327393,0.24420857429504395,-51.8341064453125,11.3983154296875,4.5928955078125
1.7962498999999998,5.971138954162598,-2.80361008644104,0.35434186458587646,-51.1016845703125,11.566162109375,5.67626953125
1.7987499,6.021417140960693,-2.964021682739258,0.4812345504760742,-49.98779296875,11.8865966796875,6.89697265625
1.8012499,6.0836663246154785,-3.1244332790374756,0.6153098344802856,-48.6297607421875,12.1002197265625,8.1024169921875
1.8037499,6.150704383850098,-3.2800562381744385,0.7422025203704834,-47.4090576171875,12.2833251953125,9.185791015625
1.8062498999999999,6.215347766876221,-3.4332852363586426,0.8523358106613159,-45.928955078125,12.6800537109375,9.9945068359375
1.8087499,6.282385349273682,-3.5721490383148193,0.9409212470054626,-44.61669921875,12.8631591796875,10.80322265625
1.8112499,6.339846134185791,-3.706224203109741,0.9959878921508789,-42.6025390625,13.0157470703125,11.77978515625
1.8137499,6.387730121612549,-3.825934410095215,1.0271124839782715,-40.5731201171875,13.3056640625,12.51220703125
1.8162498999999999,6.426037311553955,-3.93367338180542,1.0342950820922852,-38.4979248046875,13.427734375,12.9852294921875
1.8187499,6.457161903381348,-4.019864559173584,1.0247182846069336,-36.4227294921875,13.580322265625,13.61083984375
1.8212499,6.493074893951416,-4.091690540313721,1.0079588890075684,-34.5001220703125,13.580322265625,14.129638671875
1.8237499,6.536170482635498,-4.144362926483154,0.9816226959228516,-32.1807861328125,13.7176513671875,14.5111083984375
1.8262498999999999,6.5912370681762695,-4.182670593261719,0.9528923034667969,-29.9835205078125,13.6871337890625,15.0146484375
1.8287499,6.655880928039551,-4.220977783203125,0.9193734526634216,-27.9541015625,13.580322265625,15.5029296875
1.8312499,6.730101108551025,-4.252102375030518,0.8858546018600464,-25.5889892578125,13.61083984375,15.7012939453125
1.8337499,6.809109687805176,-4.28322696685791,0.8475474119186401,-23.49853515625,13.3514404296875,15.6707763671875
1.8362498999999999,6.897695064544678,-4.304774761199951,0.8259995579719543,-21.484375,13.031005859375,16.1590576171875
1.8387499,6.983886241912842,-4.321534156799316,0.7996633648872375,-19.7296142578125,12.908935546875,16.29638671875
1.8412499,7.072471618652344,-4.331110954284668,0.7852981686592102,-17.8070068359375,12.8021240234375,16.2811279296875
1.8437499,7.161057472229004,-4.338293552398682,0.7661445140838623,-16.021728515625,12.542724609375,16.6168212890625
1.8462498999999999,7.242460250854492,-4.343081951141357,0.7469909191131592,-14.70947265625,12.3748779296875,16.6473388671875
1.8487499,7.3238630294799805,-4.343081951141357,0.7254431247711182,-13.336181640625,12.14599609375,16.510009765625
1.8512499,7.398083209991455,-4.345476150512695,0.7038952708244324,-11.932373046875,11.90185546875,16.7388916015625
1.8537499,7.467514991760254,-4.350264549255371,0.6823474764823914,-10.833740234375,11.53564453125,16.5863037109375
1.8562499,7.536946773529053,-4.3622355461120605,0.6631938815116882,-9.796142578125,10.955810546875,16.7694091796875
1.8587498999999998,7.608773231506348,-4.371812343597412,0.6440402865409851,-8.6517333984375,10.6964111328125,16.7694091796875
1.8612499,7.682993412017822,-4.381389141082764,0.6344634294509888,-8.0413818359375,10.4522705078125,16.6778564453125
1.8637499,7.771578788757324,-4.378994941711426,0.6320692300796509,-7.354736328125,9.5672607421875,16.5863037109375
1.8662499,7.872135162353516,-4.376600742340088,0.6392518281936646,-6.8511962890625,8.9569091796875,16.4337158203125
1.8687498999999999,7.979874134063721,-4.364629745483398,0.6488286852836609,-6.500244140625,8.758544921875,16.5557861328125
1.8712499,8.099584579467773,-4.352658748626709,0.6560112833976746,-6.256103515625,8.270263671875,16.54052734375
1.8737499,8.224082946777344,-4.333505153656006,0.6560112833976746,-6.561279296875,7.8125,16.6168212890625
1.8762499,8.346187591552734,-4.304774761199951,0.6488286852836609,-6.927490234375,7.4615478515625,16.7999267578125
1.8787498999999999,8.47547435760498,-4.264073371887207,0.6392518281936646,-7.3699951171875,7.0648193359375,16.54052734375
1.8812499,8.592789649963379,-4.206612586975098,0.6344634294509888,-7.8277587890625,6.866455078125,16.571044921875
1.8837499,8.710105895996094,-4.1395745277404785,0.629675030708313,-8.8043212890625,6.6986083984375,16.571044921875
1.8862499,8.81784439086914,-4.065354347229004,0.6344634294509888,-10.0860595703125,6.40869140625,16.4337158203125
1.8887498999999999,8.925583839416504,-3.9911341667175293,0.6368576288223267,-11.3677978515625,6.0882568359375,16.357421875
1.8912499,9.033323287963867,-3.9217023849487305,0.6416460275650024,-12.7410888671875,5.9356689453125,16.143798828125
1.8937499,9.14585018157959,-3.8594532012939453,0.6368576288223267,-14.190673828125,5.7220458984375,15.7928466796875
1.8962499,9.258378028869629,-3.8139634132385254,0.6344634294509888,-15.5792236328125,5.4168701171875,15.5792236328125
1.8987498999999999,9.373299598693848,-3.780444383621216,0.6320692300796509,-17.1661376953125,5.4931640625,15.0909423828125
1.9012499,9.485827445983887,-3.754108190536499,0.6392518281936646,-18.9666748046875,5.340576171875,14.46533203125
1.9037499,9.591172218322754,-3.7397429943084717,0.6512228846549988,-20.69091796875,5.1116943359375,14.007568359375
1.9062499,9.68933391571045,-3.7277719974517822,0.6703764796257019,-22.3388671875,5.035400390625,13.336181640625
1.9087498999999999,9.775525093078613,-3.7229835987091064,0.6847416758537292,-23.92578125,4.9591064453125,12.5274658203125
1.9112499,9.847352027893066,-3.7277719974517822,0.6991068720817566,-25.5126953125,5.2337646484375,11.749267578125
1.9137499,9.907206535339355,-3.737348794937134,0.7086837291717529,-27.4200439453125,5.5084228515625,11.0015869140625
1.9162499,9.950302124023438,-3.758896589279175,0.7110779285430908,-29.205322265625,5.4168701171875,10.4217529296875
1.9187499,9.979032516479492,-3.7876269817352295,0.7182605266571045,-30.517578125,5.706787109375,9.5977783203125
1.9212498999999998,9.988609313964844,-3.825934410095215,0.7182605266571045,-31.768798828125,5.859375,8.7127685546875
1.9237499,9.988609313964844,-3.866635799407959,0.7206547260284424,-33.203125,5.7830810546875,7.965087890625
1.9262499,9.986215591430664,-3.9193081855773926,0.7182605266571045,-34.4696044921875,5.9051513671875,7.0343017578125
1.9287499,9.981427192687988,-3.9815573692321777,0.7230489253997803,-35.7208251953125,5.9356689453125,6.134033203125
1.9312498999999999,9.981427192687988,-4.055777549743652,0.7374141216278076,-36.865234375,5.9814453125,5.401611328125
1.9337499,9.981427192687988,-4.141968727111816,0.7589619159698486,-37.4908447265625,6.0882568359375,4.5928955078125
1.9362499,9.988609313964844,-4.235342979431152,0.7876923680305481,-38.1317138671875,6.2255859375,4.1046142578125
1.9387499,9.998186111450195,-4.331110954284668,0.8140285611152649,-38.970947265625,6.2255859375,3.4027099609375
1.9412498999999999,10.014945983886719,-4.41969633102417,0.8331822156906128,-39.2608642578125,6.378173828125,2.532958984375
1.9437499,10.02691650390625,-4.49870491027832,0.8475474119186401,-39.306640625,6.3934326171875,1.739501953125
1.9462499,10.031704902648926,-4.570530891418457,0.849941611289978,-39.520263671875,6.6680908203125,1.068115234375
1.9487499,10.022128105163574,-4.63517427444458,0.8475474119186401,-39.306640625,6.866455078125,0.518798828125
1.9512498999999999,9.995792388916016,-4.697423934936523,0.8427590131759644,-38.9404296875,6.927490234375,-0.2593994140625
1.9537499,9.967061996459961,-4.7620673179626465,0.8451532125473022,-38.4521484375,7.0343017578125,-0.9765625
1.9562499,9.93354320526123,-4.8267107009887695,0.8690952062606812,-37.811279296875,6.8206787109375,-1.2969970703125
1.9587499,9.911994934082031,-4.888959884643555,0.912190854549408,-36.8804931640625,6.7596435546875,-1.8463134765625
1.9612498999999999,9.890447616577148,-4.960785865783691,0.9720458984375,-35.980224609375,6.6070556640625,-2.4261474609375
1.9637499,9.880870819091797,-5.027823448181152,1.048660397529602,-34.698486328125,6.6375732421875,-2.8228759765625
1.9662499,9.880870819091797,-5.092466831207275,1.1324573755264282,-33.7677001953125,6.5765380859375,-3.4332275390625
1.9687499,9.885659217834473,-5.157110691070557,1.216254472732544,-32.4859619140625,6.34765625,-3.7841796875
1.9712498999999999,9.892841339111328,-5.207388877868652,1.2976573705673218,-31.0211181640625,6.2713623046875,-3.9825439453125
1.9737499,9.9000244140625,-5.240907669067383,1.3670891523361206,-29.754638671875,6.4697265625,-4.3792724609375
1.9762499,9.897629737854004,-5.264849662780762,1.4317326545715332,-28.3203125,6.4239501953125,-4.6539306640625
1.9787499,9.890447616577148,-5.2696380615234375,1.482010841369629,-26.91650390625,6.317138671875,-5.1422119140625
1.9812499,9.876082420349121,-5.264849662780762,1.5155296325683594,-25.787353515625,6.5155029296875,-5.6915283203125
1.9837499,9.854534149169922,-5.252878665924072,1.53707754611969,-24.444580078125,6.6680908203125,-5.859375
1.9862499,9.825803756713867,-5.231330871582031,1.5538369417190552,-23.1781005859375,6.500244140625,-6.16455078125
1.9887499,9.794678688049316,-5.20978307723999,1.556231141090393,-21.8353271484375,6.4697265625,-6.4239501953125
1.9912499,9.732429504394531,-5.157110691070557,1.577778935432434,-19.1650390625,6.500244140625,-7.3394775390625
1.9937498999999999,9.706093788146973,-5.118803024291992,1.5921441316604614,-17.6849365234375,6.2408447265625,-7.5836181640625
1.9962499,9.674968719482422,-5.066130638122559,1.5945383310317993,-16.54052734375,6.5155029296875,-7.6751708984375
1.9987499,9.646238327026367,-5.006275653839111,1.5945383310317993,-15.4571533203125,6.256103515625,-7.9193115234375
2.0012499,9.610325813293457,-4.934449672698975,1.5849615335464478,-14.58740234375,6.04248046875,-8.331298828125
2.0037499,9.576807022094727,-4.867412090301514,1.5705963373184204,-13.6260986328125,6.0272216796875,-8.514404296875
2.0062499,9.5408935546875,-4.800374507904053,1.556231141090393,-12.8631591796875,5.706787109375,-8.697509765625
2.0087498999999998,9.50737476348877,-4.73573112487793,1.5466543436050415,-11.993408203125,5.462646484375,-8.7890625
2.0112499,9.47146224975586,-4.6734819412231445,1.53707754611969,-11.3525390625,5.43212890625,-9.1552734375
2.0137499,9.428366661071777,-4.611232280731201,1.5298948287963867,-10.8795166015625,5.1422119140625,-9.2010498046875
2.0162499,9.378087997436523,-4.546588897705078,1.5155296325683594,-10.498046875,4.852294921875,-9.307861328125
2.0187499,9.32302188873291,-4.479551315307617,1.4915876388549805,-9.8419189453125,4.608154296875,-9.490966796875
2.0212499,9.258378028869629,-4.4077253341674805,1.460463047027588,-9.5062255859375,4.2724609375,-9.7198486328125
2.0237499,9.191340446472168,-4.333505153656006,1.4221558570861816,-9.3536376953125,4.0435791015625,-9.9639892578125
2.0262499,9.129091262817383,-4.259284973144531,1.381454348564148,-9.3231201171875,3.5400390625,-10.07080078125
2.0287498999999998,9.074024200439453,-4.189853191375732,1.335964560508728,-8.819580078125,3.23486328125,-10.19287109375
2.0312499,9.026140213012695,-4.122815132141113,1.3048399686813354,-8.7127685546875,2.899169921875,-10.6048583984375
2.0337499,8.983044624328613,-4.060565948486328,1.278503656387329,-8.8958740234375,2.50244140625,-10.68115234375
2.0362499,8.942343711853027,-4.0078935623168945,1.2689268589019775,-9.002685546875,2.25830078125,-11.138916015625
2.0387499,8.904036521911621,-3.9624037742614746,1.2713210582733154,-9.033203125,1.89208984375,-11.3677978515625
2.0412499,8.865729331970215,-3.9169139862060547,1.2761094570159912,-9.1705322265625,1.708984375,-11.474609375
2.0437499,8.834604263305664,-3.8762125968933105,1.2761094570159912,-9.58251953125,1.5106201171875,-11.6729736328125
2.0462499,8.80587387084961,-3.8283286094665527,1.2617442607879639,-10.040283203125,1.373291015625,-11.749267578125
2.0487499,8.779537200927734,-3.773261785507202,1.2425906658172607,-10.55908203125,1.251220703125,-12.1917724609375
2.0512498999999997,8.753201484680176,-3.713406801223755,1.2234370708465576,-10.833740234375,0.946044921875,-12.176513671875
2.0537499,8.7268648147583,-3.648763418197632,1.2042834758758545,-11.3372802734375,0.9307861328125,-12.2833251953125
2.0562499,8.700529098510742,-3.5889084339141846,1.1875240802764893,-11.962890625,0.7171630859375,-12.6495361328125
2.0587499,8.671798706054688,-3.531447410583496,1.170764684677124,-12.847900390625,0.5035400390625,-12.87841796875
2.0612499,8.645462036132812,-3.49314022064209,1.161187767982483,-13.580322265625,0.3204345703125,-12.8936767578125
2.0637499,8.62391471862793,-3.464409828186035,1.1516109704971313,-14.3280029296875,0.213623046875,-12.9547119140625
2.0662499,8.595184326171875,-3.4572272300720215,1.1516109704971313,-14.9993896484375,-0.30517578125,-12.939453125
2.0687499,8.573636054992676,-3.464409828186035,1.1444283723831177,-15.7623291015625,-0.5340576171875,-12.8631591796875
2.0712498999999998,8.549694061279297,-3.4811692237854004,1.1420341730117798,-16.8304443359375,-0.5645751953125,-12.8173828125
2.0737499,8.523358345031738,-3.5003228187561035,1.139639973640442,-17.486572265625,-0.8697509765625,-12.451171875
2.0762499,8.506598472595215,-3.5194764137268066,1.1420341730117798,-17.9595947265625,-1.2054443359375,-12.2222900390625
2.0787499,8.482656478881836,-3.529053211212158,1.1492167711257935,-19.1497802734375,-1.15966796875,-11.8560791015625
2.0812499,8.468291282653809,-3.533841609954834,1.158793568611145,-19.7601318359375,-1.15966796875,-11.444091796875
2.0837499,8.44195556640625,-3.5386300086975098,1.1779472827911377,-20.263671875,-1.373291015625,-10.7421875
2.0862499,8.42040729522705,-3.550601005554199,1.2018892765045166,-20.965576171875,-1.1444091796875,-10.2081298828125
2.0887499,8.396465301513672,-3.579331636428833,1.2306196689605713,-21.66748046875,-1.3580322265625,-9.521484375
2.0912498999999998,8.382100105285645,-3.627215623855591,1.2617442607879639,-21.9268798828125,-1.40380859375,-8.60595703125
2.0937499,8.374917984008789,-3.689464807510376,1.290474772453308,-22.3541259765625,-1.46484375,-7.659912109375
2.0962499,8.379706382751465,-3.7660791873931885,1.3192051649093628,-22.491455078125,-1.708984375,-6.6375732421875
2.0987499,8.391676902770996,-3.8355112075805664,1.3479355573654175,-22.3388671875,-1.40380859375,-5.6304931640625
2.1012499,8.415618896484375,-3.9049429893493652,1.3670891523361206,-22.2625732421875,-0.9918212890625,-4.638671875
2.1037499,8.437167167663574,-3.950432777404785,1.3766659498214722,-22.308349609375,-0.885009765625,-3.143310546875
2.1062499,8.458714485168457,-3.974374771118164,1.3694833517074585,-22.64404296875,-0.48828125,-1.77001953125
2.1087499,8.468291282653809,-3.9624037742614746,1.3455413579940796,-22.7813720703125,-0.0152587890625,-0.335693359375
2.1112499,8.465897560119629,-3.9193081855773926,1.3072341680526733,-22.8271484375,0.244140625,1.495361328125
2.1137498999999997,8.437167167663574,-3.8594532012939453,1.256955862045288,-23.162841796875,0.5950927734375,2.716064453125
2.1162499,8.38688850402832,-3.801992416381836,1.1994950771331787,-23.223876953125,0.6866455078125,4.0435791015625
2.1187499,8.329427719116211,-3.7684733867645264,1.139639973640442,-23.3917236328125,0.54931640625,5.4168701171875
2.1212499,8.269572257995605,-3.7397429943084717,1.091755986213684,-22.9949951171875,0.54931640625,6.4849853515625
2.1237499,8.20732307434082,-3.732560396194458,1.0630255937576294,-22.6287841796875,0.9918212890625,7.2784423828125
2.1262499,8.17380428314209,-3.7277719974517822,1.05105459690094,-22.64404296875,0.8544921875,7.9345703125
2.1287499,8.14028549194336,-3.7277719974517822,1.0534487962722778,-21.820068359375,0.54931640625,8.819580078125
2.1312499,8.133103370666504,-3.7612907886505127,1.0606313943862915,-21.2554931640625,0.3509521484375,9.9945068359375
2.1337498999999998,8.154650688171387,-3.797203779220581,1.0534487962722778,-20.7672119140625,0.2593994140625,10.711669921875
2.1362499,8.190564155578613,-3.8498764038085938,1.039083480834961,-19.95849609375,0.2593994140625,11.5814208984375
2.1387499,8.243236541748047,-3.907337188720703,1.015141487121582,-19.53125,0.4119873046875,12.725830078125
2.1412499,8.286332130432129,-3.9624037742614746,0.9888052940368652,-19.04296875,0.640869140625,13.4735107421875
2.1437499,8.31985092163086,-4.031835556030273,0.9672574996948242,-18.5394287109375,0.732421875,14.4805908203125
2.1462499,8.33182144165039,-4.110844135284424,0.9600749015808105,-17.913818359375,0.7476806640625,15.31982421875
2.1487499,8.334216117858887,-4.206612586975098,0.9576807022094727,-16.90673828125,1.2664794921875,15.9759521484375
2.1512499,8.324639320373535,-4.314351558685303,0.9768342971801758,-15.655517578125,1.5106201171875,16.6168212890625
2.1537498999999998,8.317456245422363,-4.424484729766846,0.9959878921508789,-14.34326171875,1.6021728515625,17.1661376953125
2.1562499,8.303091049194336,-4.522646903991699,1.0247182846069336,-12.75634765625,1.9378662109375,17.6849365234375
2.1587499,8.291120529174805,-4.60165548324585,1.0558429956436157,-11.0931396484375,2.166748046875,17.63916015625
2.1612499,8.281543731689453,-4.6471452713012695,1.0869675874710083,-9.613037109375,2.13623046875,18.00537109375
2.1637499,8.291120529174805,-4.6734819412231445,1.1324573755264282,-8.0413818359375,1.953125,18.0511474609375
2.1662499,8.324639320373535,-4.671087741851807,1.1779472827911377,-6.561279296875,2.0294189453125,17.88330078125
2.1687499,8.403648376464844,-4.666299343109131,1.2401964664459229,-4.913330078125,2.13623046875,17.6849365234375
2.1712499,8.504204750061035,-4.654327869415283,1.3072341680526733,-3.4027099609375,2.3651123046875,17.6239013671875
2.1737499,8.619126319885254,-4.663905143737793,1.3838485479354858,-1.6326904296875,2.5177001953125,17.181396484375
2.1762499,8.734047889709473,-4.668693542480469,1.4484920501708984,-0.06103515625,2.74658203125,16.7694091796875
2.1787499,8.834604263305664,-4.711789131164551,1.5059528350830078,1.495361328125,2.74658203125,16.4947509765625
2.1812499,8.916007041931152,-4.745307922363281,1.5298948287963867,3.2501220703125,2.8533935546875,16.0369873046875
2.1837499,8.93037223815918,-4.7836151123046875,1.5394717454910278,4.8828125,3.0517578125,15.5029296875
2.1862499,8.935160636901855,-4.841075897216797,1.5179238319396973,6.134033203125,2.5634765625,15.0909423828125
2.1887499,8.913613319396973,-4.845864295959473,1.4772224426269531,7.965087890625,2.0751953125,14.6026611328125
2.1912499,8.947132110595703,-4.869806289672852,1.4221558570861816,8.48388671875,2.86865234375,13.824462890625
2.1937499,9.016563415527344,-4.8482584953308105,1.3527239561080933,9.3994140625,3.7994384765625,13.092041015625
2.1962498999999998,9.093177795410156,-4.8267107009887695,1.2976573705673218,10.7269287109375,4.364013671875,12.8021240234375
2.1987499,9.124302864074707,-4.802768707275391,1.2401964664459229,11.962890625,4.4708251953125,12.3748779296875
2.2012499,8.987833023071289,-4.738125324249268,1.137245774269104,13.0462646484375,3.4332275390625,11.2152099609375
2.2037499,8.875306129455566,-4.683058738708496,1.0797849893569946,13.1072998046875,2.99072265625,10.5743408203125
2.2062499,8.78432559967041,-4.608838081359863,1.015141487121582,12.75634765625,2.50244140625,10.1165771484375
2.2087499,8.743624687194824,-4.529829502105713,0.9528923034667969,12.3748779296875,2.3193359375,9.552001953125
2.2112499,8.755595207214355,-4.441244125366211,0.8906430602073669,11.65771484375,2.44140625,8.85009765625
2.2137499,8.810662269592285,-4.3622355461120605,0.8427590131759644,10.833740234375,2.7313232421875,8.30078125
2.2162498999999998,8.882488250732422,-4.28322696685791,0.8068459630012512,10.223388671875,2.6092529296875,7.659912109375
2.2187499,8.954314231872559,-4.206612586975098,0.7757213711738586,9.2315673828125,2.685546875,6.9427490234375
2.2212499,9.016563415527344,-4.132391929626465,0.7613561153411865,8.056640625,2.716064453125,6.072998046875
2.2237499,9.062053680419922,-4.0533833503723145,0.751779317855835,6.53076171875,2.6702880859375,5.2490234375
2.2262499,9.097966194152832,-3.9695863723754883,0.7493851184844971,4.7760009765625,2.8076171875,4.4708251953125
2.2287499,9.136273384094238,-3.890577793121338,0.751779317855835,2.7923583984375,2.899169921875,3.570556640625
2.2312499,9.169792175292969,-3.821146011352539,0.751779317855835,0.8544921875,3.143310546875,2.6397705078125
2.2337499,9.21288776397705,-3.773261785507202,0.7565677165985107,-1.190185546875,3.265380859375,1.5869140625
2.2362499,9.241618156433105,-3.751713991165161,0.7589619159698486,-3.1890869140625,3.6773681640625,0.640869140625
2.2387499,9.265560150146484,-3.7493197917938232,0.7661445140838623,-5.2947998046875,4.058837890625,-0.152587890625
2.2412499,9.26795482635498,-3.754108190536499,0.7757213711738586,-7.3394775390625,4.21142578125,-0.9765625
2.2437499,9.27034854888916,-3.7684733867645264,0.7781155705451965,-9.429931640625,4.241943359375,-1.6937255859375
2.2462499,9.272743225097656,-3.7852327823638916,0.7829039692878723,-11.3372802734375,4.6234130859375,-2.410888671875
2.2487499,9.272743225097656,-3.801992416381836,0.7829039692878723,-13.214111328125,5.035400390625,-2.9449462890625
2.2512499,9.275136947631836,-3.8355112075805664,0.7829039692878723,-15.1824951171875,5.5694580078125,-3.8299560546875
2.2537499,9.277531623840332,-3.866635799407959,0.7757213711738586,-16.8304443359375,5.8441162109375,-4.2266845703125
2.2562499,9.26795482635498,-3.9025487899780273,0.7733271718025208,-18.6004638671875,5.859375,-4.57763671875
2.2587498999999998,9.255983352661133,-3.9480385780334473,0.7613561153411865,-20.4315185546875,6.2103271484375,-5.0811767578125
2.2612499,9.239224433898926,-3.976768970489502,0.7493851184844971,-21.697998046875,6.4239501953125,-5.31005859375
2.2637499,9.222464561462402,-4.015076160430908,0.7398083209991455,-23.0712890625,6.805419921875,-5.401611328125
2.2662499,9.191340446472168,-4.034229755401611,0.7182605266571045,-24.10888671875,7.080078125,-5.4779052734375
2.2687499,9.160215377807617,-4.060565948486328,0.706289529800415,-24.96337890625,7.0953369140625,-5.79833984375
2.2712499,9.124302864074707,-4.079719543457031,0.6943184733390808,-25.7110595703125,7.3089599609375,-6.103515625
2.2737499,9.08838939666748,-4.108449935913086,0.6967126727104187,-26.275634765625,7.4920654296875,-5.9967041015625
2.2762499,9.064447402954102,-4.156333923339844,0.6943184733390808,-26.7333984375,7.6751708984375,-5.828857421875
2.2787498999999998,9.042900085449219,-4.206612586975098,0.6991068720817566,-27.0538330078125,7.7667236328125,-6.1492919921875
2.2812499,9.026140213012695,-4.2760443687438965,0.7038952708244324,-27.0233154296875,7.8887939453125,-5.9661865234375
2.2837499,9.014169692993164,-4.345476150512695,0.7182605266571045,-26.7333984375,7.843017578125,-5.8441162109375
2.2862499,9.002198219299316,-4.414907932281494,0.7398083209991455,-26.519775390625,7.7667236328125,-5.79833984375
2.2887499,8.995016098022461,-4.474762916564941,0.7733271718025208,-26.123046875,7.9345703125,-5.584716796875
2.2912499,8.992621421813965,-4.522646903991699,0.8140285611152649,-25.3753662109375,8.087158203125,-5.4168701171875
2.2937499,8.98543930053711,-4.563348293304443,0.849941611289978,-24.6124267578125,7.9803466796875,-5.1116943359375
2.2962499,8.98543930053711,-4.594472885131836,0.8858546018600464,-24.0936279296875,7.9498291015625,-4.8828125
2.2987499,8.98543930053711,-4.618414878845215,0.9217676520347595,-22.9339599609375,8.0413818359375,-4.4708251953125
2.3012499,8.98543930053711,-4.644751071929932,0.9528923034667969,-21.759033203125,8.087158203125,-4.1046142578125
2.3037499,8.992621421813965,-4.661510944366455,0.9768342971801758,-20.7061767578125,8.2244873046875,-3.8299560546875
2.3062499,8.995016098022461,-4.666299343109131,0.9983820915222168,-19.8211669921875,8.1329345703125,-3.448486328125
2.3087499,8.992621421813965,-4.668693542480469,1.015141487121582,-18.5089111328125,8.1024169921875,-2.960205078125
2.3112499,8.99740982055664,-4.666299343109131,1.036689281463623,-17.4713134765625,8.1939697265625,-2.7008056640625
2.3137499,8.992621421813965,-4.666299343109131,1.072602391242981,-16.3726806640625,7.965087890625,-2.227783203125
2.3162499,9.01895809173584,-4.697423934936523,1.0965443849563599,-15.3045654296875,7.6904296875,-1.7852783203125
2.3187499,9.006986618041992,-4.687847137451172,1.192312479019165,-13.5498046875,7.904052734375,-1.6021728515625
2.3212498999999998,9.035717010498047,-4.733336925506592,1.216254472732544,-12.603759765625,7.843017578125,-0.9002685546875
2.3237499,9.033323287963867,-4.72376012802124,1.2832920551300049,-11.3372802734375,7.904052734375,-0.2593994140625
2.3262499,9.01895809173584,-4.738125324249268,1.3335703611373901,-9.7198486328125,7.9345703125,0.1220703125
2.3287499,8.980650901794434,-4.73573112487793,1.3263877630233765,-8.9263916015625,7.9803466796875,0.335693359375
2.3312499,8.9064302444458,-4.726154327392578,1.3455413579940796,-8.087158203125,7.415771484375,0.8087158203125
2.3337499,8.815450668334961,-4.702212333679199,1.3527239561080933,-7.354736328125,7.14111328125,1.129150390625
2.3362499,8.71728801727295,-4.6734819412231445,1.3239935636520386,-6.561279296875,6.7901611328125,1.6021728515625
2.3387499,8.65982723236084,-4.649539470672607,1.3192051649093628,-5.828857421875,6.53076171875,2.1514892578125
2.3412498999999998,8.647856712341309,-4.639962673187256,1.3072341680526733,-4.9591064453125,6.500244140625,2.5482177734375
2.3437499,8.678980827331543,-4.654327869415283,1.3192051649093628,-3.84521484375,6.927490234375,2.9754638671875
2.3462499,8.722076416015625,-4.666299343109131,1.3335703611373901,-2.8839111328125,7.4462890625,3.2196044921875
2.3487499,8.753201484680176,-4.675876140594482,1.3551181554794312,-2.197265625,7.50732421875,3.4942626953125
2.3512499,8.7268648147583,-4.644751071929932,1.3646949529647827,-1.708984375,7.2479248046875,3.8299560546875
2.3537499,8.669404029846191,-4.596867084503174,1.3623007535934448,-1.77001953125,6.805419921875,3.90625
2.3562499,8.573636054992676,-4.520252704620361,1.3455413579940796,-1.861572265625,6.2713623046875,3.997802734375
2.3587499,8.482656478881836,-4.438849925994873,1.3215993642807007,-2.1820068359375,5.67626953125,4.1656494140625
2.3612499,8.40843677520752,-4.376600742340088,1.3024457693099976,-2.3345947265625,5.279541015625,4.21142578125
2.3637499,8.360552787780762,-4.338293552398682,1.2665326595306396,-2.655029296875,5.096435546875,4.39453125
2.3662499,8.362946510314941,-4.333505153656006,1.2545616626739502,-2.777099609375,4.94384765625,4.4097900390625
2.3687499,8.394071578979492,-4.350264549255371,1.2521674633026123,-2.349853515625,4.9896240234375,4.547119140625
2.3712499,8.437167167663574,-4.364629745483398,1.2617442607879639,-2.4261474609375,5.1422119140625,4.669189453125
2.3737499,8.463502883911133,-4.367023944854736,1.278503656387329,-2.8533935546875,4.8980712890625,4.45556640625
2.3762499,8.468291282653809,-4.347870349884033,1.3096283674240112,-3.3416748046875,4.7454833984375,4.5318603515625
2.3787499,8.446743965148926,-4.314351558685303,1.338358759880066,-3.662109375,4.21142578125,4.608154296875
2.3812499,8.413225173950195,-4.28322696685791,1.3694833517074585,-4.2877197265625,3.8299560546875,4.82177734375
2.3837498999999998,8.38449478149414,-4.266467571258545,1.3958195447921753,-4.9285888671875,3.1585693359375,4.852294921875
2.3862499,8.360552787780762,-4.268861770629883,1.414973258972168,-5.5084228515625,2.410888671875,4.791259765625
2.3887499,8.35336971282959,-4.290409564971924,1.4293384552001953,-6.1798095703125,2.13623046875,4.7760009765625
2.3912499,8.367734909057617,-4.323928356170654,1.436521053314209,-6.6680908203125,1.9378662109375,4.9591064453125
2.3937499,8.394071578979492,-4.355052947998047,1.4413094520568848,-7.2021484375,1.708984375,4.9285888671875
2.3962499,8.425195693969727,-4.3861775398254395,1.436521053314209,-7.7667236328125,1.4801025390625,4.8980712890625
2.3987499,8.449137687683105,-4.402936935424805,1.4269442558288574,-8.2244873046875,1.312255859375,4.94384765625
2.4012499,8.453926086425781,-4.414907932281494,1.4245500564575195,-8.8653564453125,1.2054443359375,4.7760009765625
2.4037498999999998,8.446743965148926,-4.412513732910156,1.4197616577148438,-9.5062255859375,0.7476806640625,5.035400390625
2.4062499,8.429984092712402,-4.417302131652832,1.4197616577148438,-10.2081298828125,0.5340576171875,4.9285888671875
2.4087499,8.42040729522705,-4.431667327880859,1.4197616577148438,-10.80322265625,0.3814697265625,4.852294921875
2.4112499,8.427590370178223,-4.49870491027832,1.4221558570861816,-11.5814208984375,-0.2593994140625,4.6234130859375
2.4137499,8.432378768920898,-4.541800498962402,1.4221558570861816,-12.115478515625,-0.3814697265625,4.4097900390625
2.4162499,8.439560890197754,-4.580107688903809,1.4245500564575195,-12.3748779296875,-0.4730224609375,4.2877197265625
2.4187499,8.44195556640625,-4.613626480102539,1.4221558570861816,-12.4053955078125,-0.9307861328125,4.21142578125
2.4212499,8.44195556640625,-4.63517427444458,1.41257905960083,-12.664794921875,-0.9765625,4.0130615234375
2.4237499,8.44434928894043,-4.649539470672607,1.3934253454208374,-12.87841796875,-1.3427734375,4.058837890625
2.4262499,8.449137687683105,-4.651933670043945,1.3646949529647827,-13.1072998046875,-1.3885498046875,3.72314453125
2.4287499,8.453926086425781,-4.656722068786621,1.335964560508728,-13.24462890625,-1.46484375,3.7994384765625
2.4312499,8.463502883911133,-4.654327869415283,1.3048399686813354,-13.092041015625,-1.922607421875,3.7384033203125
2.4337499,8.468291282653809,-4.663905143737793,1.2832920551300049,-13.00048828125,-2.13623046875,3.7689208984375
2.4362499,8.47786808013916,-4.671087741851807,1.259350061416626,-13.0615234375,-2.13623046875,3.4027099609375
2.4387499,8.489839553833008,-4.67827033996582,1.2401964664459229,-13.0615234375,-2.288818359375,3.47900390625
2.4412499,8.501810073852539,-4.680664539337158,1.2186486721038818,-13.0767822265625,-2.3345947265625,3.4637451171875
2.4437499,8.513781547546387,-4.675876140594482,1.1971008777618408,-12.9241943359375,-2.4871826171875,3.3721923828125
2.4462498999999998,8.516175270080566,-4.668693542480469,1.1779472827911377,-12.7410888671875,-2.593994140625,3.1890869140625
2.4487499,8.508993148803711,-4.656722068786621,1.161187767982483,-12.9852294921875,-2.3956298828125,3.265380859375
2.4512499,8.489839553833008,-4.63517427444458,1.1468225717544556,-12.8326416015625,-2.4261474609375,3.3111572265625
2.4537499,8.465897560119629,-4.616020679473877,1.1300631761550903,-13.0157470703125,-2.5634765625,3.4332275390625
2.4562499,8.432378768920898,-4.587290287017822,1.113303780555725,-13.2904052734375,-2.8076171875,3.570556640625
2.4587499,8.406042098999023,-4.565742492675781,1.0821791887283325,-12.8936767578125,-2.9296875,3.5552978515625
2.4612499,8.377311706542969,-4.551377296447754,1.05105459690094,-13.0157470703125,-2.685546875,3.5247802734375
2.4637499,8.358158111572266,-4.546588897705078,1.0079588890075684,-12.9547119140625,-2.5177001953125,3.5247802734375
2.4662498999999998,8.346187591552734,-4.548983097076416,0.9600749015808105,-12.939453125,-2.716064453125,3.7689208984375
2.4687499,8.343792915344238,-4.563348293304443,0.912190854549408,-13.0767822265625,-2.655029296875,4.425048828125
2.4712499,8.343792915344238,-4.5825018882751465,0.8595184087753296,-13.0615234375,-2.44140625,4.45556640625
2.4737499,8.35336971282959,-4.608838081359863,0.811634361743927,-13.18359375,-2.3956298828125,4.730224609375
2.4762499,8.367734909057617,-4.637568473815918,0.768538773059845,-13.1378173828125,-2.44140625,4.974365234375
2.4787499,8.38688850402832,-4.661510944366455,0.7326257228851318,-13.1683349609375,-2.3956298828125,5.615234375
2.4812499,8.401253700256348,-4.69024133682251,0.6967126727104187,-13.00048828125,-2.3193359375,6.256103515625
2.4837499,8.406042098999023,-4.711789131164551,0.6703764796257019,-12.7410888671875,-2.2430419921875,6.805419921875
2.4862499,8.403648376464844,-4.733336925506592,0.6440402865409851,-12.5885009765625,-2.3345947265625,7.110595703125
2.4887499,8.38449478149414,-4.757278919219971,0.6224924325942993,-12.4664306640625,-2.38037109375,7.781982421875
2.4912499,8.360552787780762,-4.764461517333984,0.5937620401382446,-12.481689453125,-2.0599365234375,8.11767578125
2.4937499,8.329427719116211,-4.778826713562012,0.5650315880775452,-12.4969482421875,-2.3040771484375,8.514404296875
2.4962499,8.291120529174805,-4.78122091293335,0.5363011956214905,-12.3443603515625,-2.3956298828125,9.21630859375
2.4987499,8.252813339233398,-4.788403511047363,0.5027823448181152,-12.2528076171875,-2.105712890625,9.857177734375
2.5012499,8.216899871826172,-4.795586109161377,0.47405192255973816,-12.115478515625,-2.1820068359375,10.0555419921875
2.5037499,8.188169479370117,-4.812345504760742,0.4405331015586853,-11.993408203125,-2.3956298828125,10.43701171875
2.5062499,8.161833763122559,-4.824316501617432,0.40462008118629456,-12.02392578125,-2.0294189453125,11.16943359375
2.5087498999999998,8.14028549194336,-4.845864295959473,0.35913026332855225,-11.8865966796875,-2.2125244140625,11.474609375
2.5112499,8.121131896972656,-4.8602294921875,0.31603461503982544,-11.8865966796875,-2.0904541015625,11.871337890625
2.5137499,8.099584579467773,-4.8722004890441895,0.26575639843940735,-11.8865966796875,-1.922607421875,12.359619140625
2.5162499,8.078036308288574,-4.879383087158203,0.21308395266532898,-11.871337890625,-1.7547607421875,12.847900390625
2.5187499,8.054094314575195,-4.881777286529541,0.1628057211637497,-11.871337890625,-1.6326904296875,13.3209228515625
2.5212499,8.02536392211914,-4.879383087158203,0.1149216815829277,-11.77978515625,-1.373291015625,13.7939453125
2.5237499,7.989450931549072,-4.884171485900879,0.08140286058187485,-11.749267578125,-0.9002685546875,14.190673828125
2.5262499,7.943961143493652,-4.879383087158203,0.047884032130241394,-11.8865966796875,-1.03759765625,14.6942138671875
2.5287498999999998,7.90086555480957,-4.879383087158203,0.021547814831137657,-12.1917724609375,-0.885009765625,14.9688720703125
2.5312499,7.8529815673828125,-4.874594688415527,0.002394201699644327,-12.6190185546875,-0.3814697265625,15.56396484375
2.5337499,7.812280178070068,-4.867412090301514,-0.021547814831137657,-12.9241943359375,0.030517578125,16.143798828125
2.5362499,7.773972988128662,-4.865017890930176,-0.043095629662275314,-13.458251953125,0.30517578125,16.693115234375
2.5387499,7.735665798187256,-4.862623691558838,-0.06703764945268631,-13.946533203125,0.762939453125,17.059326171875
2.5412499,7.692570209503174,-4.867412090301514,-0.090979665517807,-14.3280029296875,1.1749267578125,17.7764892578125
2.5437499,7.647080421447754,-4.879383087158203,-0.1173158809542656,-14.83154296875,1.800537109375,18.12744140625
2.5462499,7.594407558441162,-4.888959884643555,-0.14844051003456116,-15.5792236328125,2.3193359375,18.524169921875
2.5487499,7.536946773529053,-4.903325080871582,-0.181959331035614,-16.448974609375,2.777099609375,19.0887451171875
2.5512499,7.474697589874268,-4.920084476470947,-0.21547815203666687,-17.0745849609375,3.4942626953125,20.01953125
2.5537499,7.407660007476807,-4.929661273956299,-0.2537853717803955,-17.9290771484375,4.180908203125,20.4925537109375
2.5562499,7.33583402633667,-4.93923807144165,-0.2849099934101105,-18.646240234375,4.852294921875,21.1944580078125
2.5587499,7.264008045196533,-4.944026470184326,-0.31364041566848755,-19.6685791015625,5.3863525390625,21.7132568359375
2.5612499,7.184999465942383,-4.946420669555664,-0.33997663855552673,-20.660400390625,6.103515625,22.247314453125
2.5637499,7.096413612365723,-4.948814868927002,-0.36152446269989014,-21.5606689453125,6.8817138671875,22.9339599609375
2.5662499,7.005434036254883,-4.95120906829834,-0.3878606855869293,-22.4761962890625,7.781982421875,23.406982421875
