# Time (seconds),Accel_X,Accel_Y,Accel_Z,Gyro_X,Gyro_Y,Gyro_Z
0.0012499,9.227252960205078,1.6950948238372803,-2.6671407222747803,1.15966796875,-5.645751953125,6.2408447265625
0.0037499,9.239224433898926,1.7094600200653076,-2.6384103298187256,0.9613037109375,-5.645751953125,6.3018798828125
0.0062499,9.277531623840332,1.7549498081207275,-2.6001031398773193,0.946044921875,-5.7220458984375,6.256103515625
0.0087499,9.277531623840332,1.7549498081207275,-2.6001031398773193,0.946044921875,-5.7220458984375,6.256103515625
0.0112499,9.32302188873291,1.802833914756775,-2.5689783096313477,0.9307861328125,-5.4168701171875,6.2408447265625
0.0137499,9.32302188873291,1.802833914756775,-2.5689783096313477,0.9307861328125,-5.4168701171875,6.2408447265625
0.016249899999999998,9.354146003723145,1.8076223134994507,-2.537853717803955,1.2054443359375,-5.2947998046875,6.256103515625
0.0187499,9.354146003723145,1.8076223134994507,-2.537853717803955,1.2054443359375,-5.2947998046875,6.256103515625
0.021249900000000002,9.373299598693848,1.778891921043396,-2.52109432220459,1.2969970703125,-5.2337646484375,6.4697265625
0.023749899999999997,9.373299598693848,1.778891921043396,-2.52109432220459,1.2969970703125,-5.2337646484375,6.4697265625
0.0262499,9.38048267364502,1.7357962131500244,-2.5306711196899414,1.434326171875,-4.913330078125,6.2408447265625
0.028749900000000002,9.38048267364502,1.7357962131500244,-2.5306711196899414,1.434326171875,-4.913330078125,6.2408447265625
0.031249899999999997,9.3828763961792,1.6950948238372803,-2.559401512145996,1.6632080078125,-4.730224609375,5.950927734375
0.0337499,9.3828763961792,1.6950948238372803,-2.559401512145996,1.6632080078125,-4.730224609375,5.950927734375
0.0362499,9.394847869873047,1.656787633895874,-2.585737943649292,1.8768310546875,-4.4403076171875,5.767822265625
0.0387499,9.394847869873047,1.656787633895874,-2.585737943649292,1.8768310546875,-4.4403076171875,5.767822265625
0.0412499,9.411606788635254,1.6112977266311646,-2.6168625354766846,2.105712890625,-4.058837890625,5.67626953125
0.0437499,9.411606788635254,1.6112977266311646,-2.6168625354766846,2.105712890625,-4.058837890625,5.67626953125
0.0462499,9.411606788635254,1.5682021379470825,-2.6575639247894287,2.38037109375,-4.08935546875,5.5084228515625
0.0487499,9.411606788635254,1.5682021379470825,-2.6575639247894287,2.38037109375,-4.08935546875,5.5084228515625
0.0512499,9.375694274902344,1.5442601442337036,-2.7054479122161865,2.288818359375,-3.662109375,5.43212890625
0.053749899999999996,9.375694274902344,1.5442601442337036,-2.7054479122161865,2.288818359375,-3.662109375,5.43212890625
0.0562499,9.311050415039062,1.5275006294250488,-2.75812029838562,2.4566650390625,-3.570556640625,5.2337646484375
0.0587499,9.311050415039062,1.5275006294250488,-2.75812029838562,2.4566650390625,-3.570556640625,5.2337646484375
0.061249899999999996,9.27034854888916,1.525106430053711,-2.7940332889556885,2.044677734375,-3.3721923828125,5.157470703125
0.0637499,9.27034854888916,1.525106430053711,-2.7940332889556885,2.044677734375,-3.3721923828125,5.157470703125
0.0662499,9.275136947631836,1.53707754611969,-2.7940332889556885,1.708984375,-3.35693359375,5.06591796875
0.0687499,9.275136947631836,1.53707754611969,-2.7940332889556885,1.708984375,-3.35693359375,5.06591796875
0.0712499,9.279925346374512,1.556231141090393,-2.782062292098999,1.251220703125,-3.0975341796875,4.7607421875
0.0737499,9.279925346374512,1.556231141090393,-2.782062292098999,1.251220703125,-3.0975341796875,4.7607421875
0.0762499,9.248801231384277,1.5753847360610962,-2.760514497756958,0.8697509765625,-2.7618408203125,4.6539306640625
0.0787499,9.248801231384277,1.5753847360610962,-2.760514497756958,0.8697509765625,-2.7618408203125,4.6539306640625
0.0812499,9.2033109664917,1.601720929145813,-2.7246015071868896,0.8087158203125,-2.9296875,4.669189453125
0.0837499,9.2033109664917,1.601720929145813,-2.7246015071868896,0.8087158203125,-2.9296875,4.669189453125
0.0862499,9.186552047729492,1.6424223184585571,-2.676717519760132,0.5340576171875,-3.11279296875,4.7760009765625
0.0887499,9.196128845214844,1.6615760326385498,-2.6575639247894287,0.518798828125,-2.9144287109375,4.7454833984375
0.0912499,9.21288776397705,1.6759412288665771,-2.6408045291900635,0.5645751953125,-2.838134765625,4.7149658203125
0.0937499,9.23443603515625,1.6927006244659424,-2.63362193107605,0.42724609375,-2.9754638671875,4.6539306640625
0.0962499,9.251194953918457,1.7070658206939697,-2.6216509342193604,0.4730224609375,-3.143310546875,4.6539306640625
0.0987499,9.265560150146484,1.7262194156646729,-2.607285737991333,0.3814697265625,-3.143310546875,4.7454833984375
0.1012499,9.275136947631836,1.7381904125213623,-2.5929205417633057,0.3509521484375,-2.99072265625,4.6234130859375
0.1037499,9.277531623840332,1.742978811264038,-2.5761611461639404,0.5035400390625,-2.8076171875,4.82177734375
0.1062499,9.284713745117188,1.7405846118927002,-2.5665841102600098,0.579833984375,-3.173828125,4.94384765625
0.1087499,9.29189682006836,1.7286136150360107,-2.5689783096313477,0.5645751953125,-3.143310546875,4.791259765625
0.1112499,9.30386734008789,1.7142484188079834,-2.5785553455352783,0.885009765625,-2.7313232421875,4.8980712890625
0.1137499,9.311050415039062,1.699883222579956,-2.5977089405059814,0.8087158203125,-2.9296875,4.8065185546875
0.1162499,9.315838813781738,1.6831238269805908,-2.609679937362671,0.6561279296875,-3.0364990234375,4.7760009765625
0.1187499,9.313444137573242,1.6735470294952393,-2.6192567348480225,0.4730224609375,-2.99072265625,4.669189453125
0.1212499,9.313444137573242,1.659181833267212,-2.6192567348480225,0.6561279296875,-2.838134765625,4.5013427734375
0.1237499,9.313444137573242,1.647210717201233,-2.6144683361053467,0.6866455078125,-2.685546875,4.5166015625
0.1262499,9.318233489990234,1.6328455209732056,-2.612074136734009,0.79345703125,-2.5482177734375,4.5318603515625
0.1287499,9.32541561126709,1.6136919260025024,-2.612074136734009,0.6256103515625,-2.655029296875,4.6234130859375
0.1312499,9.320627212524414,1.5897499322891235,-2.6168625354766846,0.6103515625,-2.62451171875,4.638671875
0.1337499,9.308655738830566,1.5682021379470825,-2.631227731704712,0.9307861328125,-2.44140625,4.486083984375
0.1362499,9.279925346374512,1.5418659448623657,-2.655169725418091,0.9002685546875,-2.3651123046875,4.5928955078125
0.1387499,9.239224433898926,1.525106430053711,-2.6839001178741455,0.8392333984375,-2.532958984375,4.5928955078125
0.1412499,9.198522567749023,1.5083470344543457,-2.7126305103302,0.885009765625,-2.593994140625,4.730224609375
0.1437499,9.157821655273438,1.50355863571167,-2.734178304672241,1.0528564453125,-2.6702880859375,4.7149658203125
0.1462499,9.126696586608887,1.5107412338256836,-2.7437551021575928,0.6561279296875,-2.471923828125,4.6844482421875
0.1487499,9.10993766784668,1.5298948287963867,-2.738966703414917,0.5950927734375,-2.5787353515625,4.669189453125
0.1512499,9.102754592895508,1.5658079385757446,-2.7269957065582275,0.5950927734375,-2.532958984375,4.6844482421875
0.1537499,9.107542991638184,1.6089035272598267,-2.7078421115875244,0.396728515625,-2.6092529296875,4.638671875
0.1562499,9.124302864074707,1.647210717201233,-2.6862943172454834,0.5645751953125,-2.899169921875,4.8370361328125
0.1587499,9.14345645904541,1.6879122257232666,-2.6647465229034424,0.4119873046875,-2.7618408203125,4.94384765625
0.1612499,9.160215377807617,1.7142484188079834,-2.647987127304077,0.396728515625,-2.593994140625,4.8370361328125
0.1637499,9.169792175292969,1.7381904125213623,-2.6360161304473877,0.5950927734375,-2.899169921875,5.0201416015625
0.1662499,9.169792175292969,1.7549498081207275,-2.6360161304473877,0.4730224609375,-3.082275390625,5.035400390625
0.1687499,9.165003776550293,1.766920804977417,-2.6431987285614014,0.54931640625,-3.1280517578125,5.2337646484375
0.1712499,9.160215377807617,1.766920804977417,-2.647987127304077,0.457763671875,-3.0975341796875,5.2032470703125
0.1737499,9.157821655273438,1.7573440074920654,-2.647987127304077,0.274658203125,-3.2501220703125,5.279541015625
0.17624990000000001,9.165003776550293,1.7405846118927002,-2.6384103298187256,0.3662109375,-3.2501220703125,5.340576171875
0.1787499,9.184157371520996,1.721431016921997,-2.6192567348480225,0.4119873046875,-3.1890869140625,5.462646484375
0.1812499,9.215282440185547,1.7070658206939697,-2.5977089405059814,0.48828125,-3.1890869140625,5.31005859375
0.1837499,9.260771751403809,1.6974890232086182,-2.5785553455352783,0.6103515625,-3.23486328125,5.340576171875
0.1862499,9.308655738830566,1.6879122257232666,-2.559401512145996,0.3814697265625,-3.0670166015625,5.1116943359375
0.1887499,9.361329078674316,1.6759412288665771,-2.5522189140319824,0.579833984375,-3.1280517578125,5.279541015625
0.1912499,9.404424667358398,1.656787633895874,-2.5474305152893066,0.67138671875,-3.0975341796875,5.2490234375
0.1937499,9.437943458557129,1.625662922859192,-2.5498247146606445,0.7171630859375,-2.9754638671875,5.1727294921875
0.1962499,9.457097053527832,1.5945383310317993,-2.559401512145996,0.9613037109375,-3.0059814453125,5.096435546875
0.1987499,9.466673851013184,1.556231141090393,-2.5713725090026855,1.1444091796875,-2.9296875,4.974365234375
0.2012499,9.464279174804688,1.5155296325683594,-2.5929205417633057,1.28173828125,-2.8839111328125,4.8980712890625
0.2037499,9.452308654785156,1.479616641998291,-2.6144683361053467,1.312255859375,-2.9754638671875,5.0201416015625
0.2062499,9.440337181091309,1.4484920501708984,-2.628833532333374,1.4495849609375,-2.8228759765625,4.974365234375
0.20874990000000002,9.428366661071777,1.4197616577148438,-2.6455929279327393,1.556396484375,-2.777099609375,4.8065185546875
0.2112499,9.421183586120605,1.4053963422775269,-2.6599581241607666,1.4495849609375,-2.471923828125,4.6844482421875
0.2137499,9.421183586120605,1.3934253454208374,-2.674323320388794,1.52587890625,-2.4871826171875,4.638671875
0.2162499,9.425971984863281,1.3886369466781616,-2.6839001178741455,1.2969970703125,-2.38037109375,4.638671875
0.2187499,9.421183586120605,1.3838485479354858,-2.6886885166168213,1.4495849609375,-2.44140625,4.364013671875
0.2212499,9.409213066101074,1.3838485479354858,-2.693476915359497,1.2969970703125,-2.349853515625,4.33349609375
0.2237499,9.39245319366455,1.37906014919281,-2.693476915359497,1.312255859375,-2.105712890625,4.364013671875
0.2262499,9.368511199951172,1.3766659498214722,-2.691082715988159,1.1444091796875,-2.0904541015625,4.45556640625
0.2287499,9.351752281188965,1.3670891523361206,-2.695871114730835,1.2359619140625,-1.922607421875,4.2877197265625
0.2312499,9.339780807495117,1.357512354850769,-2.691082715988159,1.251220703125,-1.9989013671875,4.119873046875
0.2337499,9.337387084960938,1.3527239561080933,-2.695871114730835,1.1138916015625,-1.800537109375,4.1351318359375
0.2362499,9.339780807495117,1.3527239561080933,-2.7030537128448486,1.190185546875,-1.6326904296875,3.997802734375
0.23874990000000001,9.337387084960938,1.3670891523361206,-2.717418909072876,1.4495849609375,-1.617431640625,3.7689208984375
0.2412499,9.330204010009766,1.381454348564148,-2.736572504043579,1.373291015625,-1.4801025390625,3.8909912109375
0.2437499,9.306262016296387,1.403002142906189,-2.7557260990142822,0.885009765625,-1.434326171875,3.7689208984375
0.2462499,9.287108421325684,1.414973258972168,-2.765302896499634,0.885009765625,-1.495361328125,3.570556640625
0.2487499,9.263166427612305,1.4221558570861816,-2.7748796939849854,1.0833740234375,-1.5869140625,3.6163330078125
0.2512499,9.246406555175781,1.4269442558288574,-2.7724854946136475,0.9613037109375,-1.434326171875,3.3721923828125
0.25374990000000003,9.23443603515625,1.4317326545715332,-2.7724854946136475,0.8544921875,-1.2664794921875,3.509521484375
0.25624990000000003,9.224859237670898,1.4484920501708984,-2.779668092727661,0.9613037109375,-1.373291015625,3.387451171875
0.25874990000000003,9.210494041442871,1.4748282432556152,-2.784456491470337,0.79345703125,-1.373291015625,3.3721923828125
0.26124990000000003,9.198522567749023,1.50355863571167,-2.7964274883270264,0.5645751953125,-1.3275146484375,3.326416015625
0.26374990000000004,9.17697525024414,1.5322890281677246,-2.7988216876983643,0.48828125,-1.434326171875,3.387451171875
0.26624990000000004,9.169792175292969,1.556231141090393,-2.7940332889556885,0.3509521484375,-1.40380859375,3.3416748046875
0.26874990000000004,9.167398452758789,1.5729905366897583,-2.782062292098999,0.244140625,-1.3885498046875,3.47900390625
0.27124990000000004,9.188945770263672,1.580173134803772,-2.7700912952423096,0.396728515625,-1.4801025390625,3.1585693359375
0.27374990000000005,9.21288776397705,1.5897499322891235,-2.760514497756958,0.244140625,-1.5106201171875,3.2806396484375
0.27624990000000005,9.23443603515625,1.5945383310317993,-2.7533318996429443,0.18310546875,-1.3580322265625,3.1280517578125
0.27874990000000005,9.239224433898926,1.5969325304031372,-2.75812029838562,0.396728515625,-1.3580322265625,3.173828125
0.28124990000000005,9.227252960205078,1.5969325304031372,-2.760514497756958,0.1678466796875,-1.434326171875,3.2196044921875
0.28374990000000005,9.193734169006348,1.5873557329177856,-2.7724854946136475,-0.0762939453125,-1.28173828125,3.3111572265625
0.28624990000000006,9.157821655273438,1.580173134803772,-2.7772738933563232,-0.0762939453125,-1.5716552734375,3.2958984375
0.28874990000000006,9.126696586608887,1.5658079385757446,-2.7772738933563232,0.091552734375,-1.8310546875,3.204345703125
0.2912499,9.114726066589355,1.5610195398330688,-2.7724854946136475,0.091552734375,-1.77001953125,3.1890869140625
0.2937499,9.117119789123535,1.5658079385757446,-2.7676970958709717,0.1220703125,-1.77001953125,3.3721923828125
0.2962499,9.133879661560059,1.577778935432434,-2.75812029838562,0.1068115234375,-1.953125,3.4942626953125
0.2987499,9.155426979064941,1.601720929145813,-2.741360902786255,0.2288818359375,-1.9378662109375,3.5400390625
0.3012499,9.17697525024414,1.625662922859192,-2.7222073078155518,0.42724609375,-1.8310546875,3.4942626953125
0.3037499,9.2033109664917,1.644816517829895,-2.698265314102173,0.274658203125,-1.7547607421875,3.570556640625
0.3062499,9.229647636413574,1.656787633895874,-2.674323320388794,0.2899169921875,-1.9989013671875,3.5858154296875
0.3087499,9.258378028869629,1.6543933153152466,-2.655169725418091,0.2899169921875,-1.9073486328125,3.631591796875
0.3112499,9.287108421325684,1.6400281190872192,-2.6431987285614014,0.3204345703125,-1.678466796875,3.753662109375
0.3137499,9.311050415039062,1.6136919260025024,-2.6408045291900635,0.2593994140625,-1.617431640625,3.90625
0.31624990000000003,9.330204010009766,1.5873557329177856,-2.6455929279327393,0.2899169921875,-1.64794921875,3.997802734375
0.31874990000000003,9.344569206237793,1.5610195398330688,-2.6599581241607666,0.42724609375,-1.739501953125,3.96728515625
0.32124990000000003,9.349357604980469,1.534683346748352,-2.674323320388794,0.3814697265625,-1.6937255859375,3.875732421875
0.32374990000000003,9.35893440246582,1.5083470344543457,-2.6862943172454834,0.457763671875,-1.6021728515625,3.753662109375
0.32624990000000004,9.361329078674316,1.4891934394836426,-2.693476915359497,0.579833984375,-1.495361328125,3.8299560546875
0.32874990000000004,9.363722801208496,1.4676456451416016,-2.693476915359497,0.762939453125,-1.4801025390625,3.7994384765625
0.33124990000000004,9.366117477416992,1.45806884765625,-2.6886885166168213,0.5340576171875,-1.40380859375,3.7689208984375
0.33374990000000004,9.366117477416992,1.4484920501708984,-2.6839001178741455,0.396728515625,-1.251220703125,3.6163330078125
0.33624990000000005,9.370905876159668,1.4484920501708984,-2.674323320388794,0.54931640625,-1.2359619140625,3.5858154296875
0.33874990000000005,9.375694274902344,1.4508862495422363,-2.6599581241607666,0.5950927734375,-1.1749267578125,3.753662109375
0.34124990000000005,9.387664794921875,1.45806884765625,-2.652775526046753,0.701904296875,-1.1749267578125,3.84521484375
0.34374990000000005,9.404424667358398,1.460463047027588,-2.6384103298187256,0.732421875,-1.3427734375,3.662109375
0.34624990000000005,9.425971984863281,1.455674648284912,-2.631227731704712,0.79345703125,-1.129150390625,3.6468505859375
0.34874990000000006,9.44752025604248,1.4317326545715332,-2.63362193107605,0.8087158203125,-1.03759765625,3.5858154296875
0.35124990000000006,9.454702377319336,1.403002142906189,-2.647987127304077,0.762939453125,-1.03759765625,3.47900390625
0.3537499,9.445125579833984,1.3742717504501343,-2.6671407222747803,0.8392333984375,-0.9002685546875,3.509521484375
0.3562499,9.418789863586426,1.3503297567367554,-2.695871114730835,0.701904296875,-0.9918212890625,3.631591796875
0.3587499,9.378087997436523,1.335964560508728,-2.7222073078155518,0.6866455078125,-1.129150390625,3.5552978515625
0.3612499,9.334992408752441,1.3335703611373901,-2.741360902786255,0.7781982421875,-1.220703125,3.6468505859375
0.3637499,9.306262016296387,1.335964560508728,-2.7533318996429443,0.6866455078125,-0.8697509765625,3.4637451171875
0.3662499,9.289502143859863,1.3407529592514038,-2.7509377002716064,0.4730224609375,-0.8392333984375,3.4027099609375
0.3687499,9.29189682006836,1.3503297567367554,-2.741360902786255,0.54931640625,-0.9002685546875,3.448486328125
0.3712499,9.306262016296387,1.3646949529647827,-2.7222073078155518,0.396728515625,-1.068115234375,3.204345703125
0.3737499,9.32302188873291,1.3838485479354858,-2.7030537128448486,0.2288818359375,-0.823974609375,3.0670166015625
0.3762499,9.339780807495117,1.4053963422775269,-2.6839001178741455,0.1983642578125,-0.701904296875,3.0975341796875
0.37874990000000003,9.349357604980469,1.4317326545715332,-2.671929121017456,0.579833984375,-0.9002685546875,3.23486328125
0.38124990000000003,9.354146003723145,1.4460978507995605,-2.6599581241607666,0.396728515625,-0.7476806640625,3.2501220703125
0.38374990000000003,9.354146003723145,1.455674648284912,-2.652775526046753,0.274658203125,-0.823974609375,3.1585693359375
0.38624990000000003,9.344569206237793,1.455674648284912,-2.652775526046753,0.42724609375,-0.91552734375,3.082275390625
0.38874990000000004,9.32541561126709,1.4484920501708984,-2.650381326675415,0.6103515625,-0.8697509765625,3.23486328125
0.39124990000000004,9.308655738830566,1.4413094520568848,-2.6575639247894287,0.4425048828125,-0.6256103515625,3.0517578125
0.39374990000000004,9.29189682006836,1.4269442558288574,-2.6575639247894287,0.18310546875,-0.6866455078125,3.0975341796875
0.39624990000000004,9.282320022583008,1.4221558570861816,-2.6623523235321045,0.518798828125,-0.9307861328125,3.0517578125
0.39874990000000005,9.282320022583008,1.414973258972168,-2.6671407222747803,0.5340576171875,-0.762939453125,2.8533935546875
0.40124990000000005,9.287108421325684,1.4197616577148438,-2.674323320388794,0.274658203125,-0.640869140625,3.0670166015625
0.40374990000000005,9.29189682006836,1.4245500564575195,-2.6862943172454834,0.5035400390625,-0.7781982421875,2.9296875
0.40624990000000005,9.29189682006836,1.434126853942871,-2.695871114730835,0.7171630859375,-0.6103515625,2.7923583984375
0.40874990000000005,9.284713745117188,1.4460978507995605,-2.7054479122161865,0.6561279296875,-0.5340576171875,2.8839111328125
0.41124990000000006,9.277531623840332,1.455674648284912,-2.7102363109588623,0.6561279296875,-0.7781982421875,2.86865234375
0.41374990000000006,9.26795482635498,1.460463047027588,-2.7102363109588623,0.6561279296875,-0.79345703125,2.685546875
0.41624990000000006,9.255983352661133,1.455674648284912,-2.7126305103302,0.7171630859375,-0.6561279296875,2.838134765625
0.4187499,9.248801231384277,1.4460978507995605,-2.7246015071868896,0.5950927734375,-0.762939453125,2.7923583984375
0.4212499,9.227252960205078,1.4269442558288574,-2.7461493015289307,0.579833984375,-0.732421875,2.8076171875
0.4237499,9.205705642700195,1.4101848602294922,-2.7724854946136475,0.7476806640625,-0.9307861328125,2.74658203125
0.4262499,9.17936897277832,1.3910311460494995,-2.7988216876983643,0.79345703125,-0.9765625,2.8228759765625
0.4287499,9.157821655273438,1.381454348564148,-2.8155810832977295,0.5950927734375,-0.91552734375,2.8076171875
0.4312499,9.155426979064941,1.381454348564148,-2.8203697204589844,0.67138671875,-0.9918212890625,2.6397705078125
0.4337499,9.165003776550293,1.3862427473068237,-2.8155810832977295,0.457763671875,-0.8544921875,2.5787353515625
0.4362499,9.191340446472168,1.400607943534851,-2.808398485183716,0.3662109375,-0.6561279296875,2.74658203125
0.4387499,9.217676162719727,1.41257905960083,-2.7964274883270264,0.1678466796875,-0.9002685546875,2.62451171875
0.44124990000000003,9.23682975769043,1.4317326545715332,-2.7772738933563232,0.2899169921875,-0.701904296875,2.50244140625
0.44374990000000003,9.246406555175781,1.4508862495422363,-2.7533318996429443,0.335693359375,-0.79345703125,2.5634765625
0.44624990000000003,9.244012832641602,1.4772224426269531,-2.7269957065582275,0.18310546875,-1.007080078125,2.6397705078125
0.44874990000000003,9.23443603515625,1.5083470344543457,-2.7006595134735107,0.2288818359375,-0.9613037109375,2.74658203125
0.45124990000000004,9.224859237670898,1.534683346748352,-2.6862943172454834,-0.1373291015625,-1.068115234375,2.86865234375
0.45374990000000004,9.220070838928223,1.5538369417190552,-2.6815059185028076,-0.457763671875,-1.3275146484375,2.777099609375
0.45624990000000004,9.21288776397705,1.556231141090393,-2.6862943172454834,-0.4425048828125,-1.4190673828125,2.9449462890625
0.45874990000000004,9.215282440185547,1.5442601442337036,-2.698265314102173,-0.244140625,-1.4801025390625,2.99072265625
0.46124990000000005,9.217676162719727,1.5179238319396973,-2.7126305103302,-0.091552734375,-1.2969970703125,2.86865234375
0.46374990000000005,9.227252960205078,1.4939818382263184,-2.719813108444214,-0.1068115234375,-1.4190673828125,2.7923583984375
0.46624990000000005,9.244012832641602,1.4628572463989258,-2.719813108444214,-0.1068115234375,-1.2969970703125,2.8228759765625
0.46874990000000005,9.265560150146484,1.4437036514282227,-2.717418909072876,0.0152587890625,-0.9918212890625,2.6702880859375
0.47124990000000005,9.287108421325684,1.4269442558288574,-2.7126305103302,0.152587890625,-1.0833740234375,2.838134765625
0.47374990000000006,9.306262016296387,1.41257905960083,-2.7054479122161865,0.244140625,-1.0986328125,2.8228759765625
0.47624990000000006,9.315838813781738,1.414973258972168,-2.698265314102173,0.3662109375,-1.2359619140625,2.8228759765625
0.47874990000000006,9.32541561126709,1.41257905960083,-2.6862943172454834,0.3814697265625,-1.190185546875,2.8533935546875
0.4812499,9.327810287475586,1.414973258972168,-2.6791117191314697,0.3662109375,-1.0833740234375,2.8228759765625
0.4837499,9.330204010009766,1.4053963422775269,-2.669534921646118,0.518798828125,-1.03759765625,3.0364990234375
0.4862499,9.327810287475586,1.3910311460494995,-2.6671407222747803,0.5340576171875,-0.9613037109375,2.8228759765625
0.4887499,9.32302188873291,1.3718775510787964,-2.676717519760132,0.3814697265625,-0.9307861328125,2.74658203125
0.4912499,9.320627212524414,1.359906554222107,-2.6886885166168213,0.6561279296875,-0.9765625,2.6397705078125
0.4937499,9.318233489990234,1.3551181554794312,-2.7102363109588623,0.8544921875,-0.9307861328125,2.777099609375
0.4962499,9.32302188873291,1.357512354850769,-2.734178304672241,0.640869140625,-0.8544921875,2.7618408203125
0.4987499,9.327810287475586,1.359906554222107,-2.7557260990142822,0.5950927734375,-0.6561279296875,2.5482177734375
0.5012499,9.334992408752441,1.3646949529647827,-2.7676970958709717,0.4425048828125,-0.457763671875,2.6092529296875
0.5037499000000001,9.337387084960938,1.3718775510787964,-2.7772738933563232,0.18310546875,-0.579833984375,2.532958984375
0.5062499,9.330204010009766,1.381454348564148,-2.782062292098999,-0.091552734375,-0.79345703125,2.6092529296875
0.5087499000000001,9.320627212524414,1.3886369466781616,-2.7940332889556885,0.152587890625,-0.6256103515625,2.6397705078125
0.5112499,9.301473617553711,1.3958195447921753,-2.801215887069702,0.1373291015625,-0.640869140625,2.6092529296875
0.5137499,9.282320022583008,1.400607943534851,-2.8107926845550537,0.1373291015625,-0.7171630859375,2.655029296875
0.5162499,9.260771751403809,1.4053963422775269,-2.8131868839263916,0.0152587890625,-0.6866455078125,2.655029296875
0.5187499,9.23682975769043,1.41257905960083,-2.808398485183716,-0.2288818359375,-0.823974609375,2.7008056640625
0.5212499,9.217676162719727,1.4077905416488647,-2.7988216876983643,-0.2593994140625,-0.7171630859375,2.6397705078125
0.5237499,9.198522567749023,1.3982137441635132,-2.786850690841675,-0.30517578125,-0.8087158203125,2.44140625
0.5262499,9.191340446472168,1.381454348564148,-2.779668092727661,-0.3814697265625,-0.9918212890625,2.5482177734375
0.5287499,9.198522567749023,1.3646949529647827,-2.7724854946136475,-0.3662109375,-0.9613037109375,2.4871826171875
0.5312499,9.210494041442871,1.3479355573654175,-2.765302896499634,-0.5035400390625,-1.2054443359375,2.471923828125
0.5337499,9.224859237670898,1.335964560508728,-2.7533318996429443,-0.213623046875,-0.9307861328125,2.349853515625
0.5362499000000001,9.23443603515625,1.335964560508728,-2.738966703414917,-0.1983642578125,-0.79345703125,2.2430419921875
0.5387499,9.239224433898926,1.3455413579940796,-2.7293899059295654,-0.1983642578125,-1.1138916015625,2.2430419921875
0.5412499000000001,9.239224433898926,1.3646949529647827,-2.715024709701538,-0.1678466796875,-0.9765625,2.2430419921875
0.5437499,9.241618156433105,1.381454348564148,-2.7054479122161865,-0.18310546875,-0.9307861328125,2.1209716796875
0.5462499000000001,9.248801231384277,1.3958195447921753,-2.695871114730835,-0.3509521484375,-1.2664794921875,2.044677734375
0.5487499,9.255983352661133,1.3982137441635132,-2.691082715988159,-0.518798828125,-1.2664794921875,2.0294189453125
0.5512499000000001,9.275136947631836,1.3934253454208374,-2.6815059185028076,-0.4425048828125,-1.1749267578125,1.7547607421875
0.5537499,9.294290542602539,1.3742717504501343,-2.676717519760132,-0.30517578125,-1.220703125,1.8768310546875
0.5562499000000001,9.318233489990234,1.3527239561080933,-2.6647465229034424,-0.1068115234375,-1.03759765625,1.953125
0.5587499,9.339780807495117,1.3192051649093628,-2.652775526046753,0.0152587890625,-0.885009765625,1.953125
0.5612499000000001,9.354146003723145,1.290474772453308,-2.650381326675415,-0.030517578125,-0.640869140625,1.617431640625
0.5637499,9.361329078674316,1.2641384601593018,-2.6455929279327393,0.18310546875,-0.823974609375,1.678466796875
0.5662499000000001,9.35654067993164,1.2521674633026123,-2.6599581241607666,0.5035400390625,-0.885009765625,1.7242431640625
0.5687499,9.344569206237793,1.259350061416626,-2.671929121017456,0.3662109375,-0.8697509765625,1.617431640625
0.5712499000000001,9.334992408752441,1.280897855758667,-2.698265314102173,0.1678466796875,-0.8697509765625,1.6937255859375
0.5737499,9.334992408752441,1.3024457693099976,-2.717418909072876,0.0457763671875,-0.6561279296875,1.556396484375
0.5762499000000001,9.344569206237793,1.316810965538025,-2.7317841053009033,-0.06103515625,-0.8087158203125,1.5411376953125
0.5787499,9.35893440246582,1.3072341680526733,-2.738966703414917,0.244140625,-0.732421875,1.556396484375
0.5812499,9.366117477416992,1.290474772453308,-2.741360902786255,0.3509521484375,-0.579833984375,1.6326904296875
0.5837499,9.361329078674316,1.2689268589019775,-2.741360902786255,0.1983642578125,-0.48828125,1.5869140625
0.5862499,9.354146003723145,1.2617442607879639,-2.7461493015289307,-0.06103515625,-0.5035400390625,1.373291015625
0.5887499,9.351752281188965,1.2641384601593018,-2.7485435009002686,0.091552734375,-0.3509521484375,1.495361328125
0.5912499,9.361329078674316,1.2761094570159912,-2.7557260990142822,0.3204345703125,-0.213623046875,1.52587890625
0.5937499,9.373299598693848,1.2880805730819702,-2.762908697128296,0.1983642578125,-0.1373291015625,1.373291015625
0.5962499,9.387664794921875,1.2952631711959839,-2.762908697128296,0.1220703125,-0.1220703125,1.2054443359375
0.5987499000000001,9.39245319366455,1.2952631711959839,-2.7724854946136475,0.244140625,-0.0152587890625,1.129150390625
0.6012499,9.385271072387695,1.2976573705673218,-2.7748796939849854,0.335693359375,0.152587890625,1.068115234375
0.6037499000000001,9.373299598693848,1.3000515699386597,-2.7748796939849854,0.30517578125,0,1.1138916015625
0.6062499,9.351752281188965,1.314416766166687,-2.779668092727661,0.030517578125,0.213623046875,1.007080078125
0.6087499000000001,9.344569206237793,1.3407529592514038,-2.782062292098999,0.0762939453125,0.396728515625,1.1444091796875
0.6112499,9.337387084960938,1.3670891523361206,-2.782062292098999,0.213623046875,0.42724609375,1.0223388671875
0.6137499000000001,9.344569206237793,1.3982137441635132,-2.786850690841675,0.1678466796875,0.3662109375,1.1749267578125
0.6162499,9.351752281188965,1.414973258972168,-2.7892448902130127,0.1220703125,0.5035400390625,1.1749267578125
0.6187499000000001,9.35893440246582,1.4293384552001953,-2.7940332889556885,0.0152587890625,0.457763671875,1.2054443359375
0.6212499,9.363722801208496,1.4317326545715332,-2.7964274883270264,-0.1068115234375,0.3204345703125,1.3885498046875
0.6237499000000001,9.35893440246582,1.4293384552001953,-2.808398485183716,-0.2593994140625,0.18310546875,1.4190673828125
0.6262499,9.354146003723145,1.4197616577148438,-2.8179752826690674,-0.30517578125,0.3662109375,1.4495849609375
0.6287499000000001,9.346963882446289,1.4077905416488647,-2.832340717315674,-0.0457763671875,0.244140625,1.4801025390625
0.6312499,9.344569206237793,1.3886369466781616,-2.849100112915039,-0.091552734375,0.2593994140625,1.6021728515625
0.6337499000000001,9.349357604980469,1.3766659498214722,-2.8586769104003906,-0.4425048828125,0.5035400390625,1.3580322265625
0.6362499,9.35893440246582,1.3718775510787964,-2.851494312286377,-0.3662109375,0.48828125,1.251220703125
0.6387499000000001,9.368511199951172,1.3718775510787964,-2.82515811920166,-0.396728515625,0.5035400390625,1.4190673828125
0.6412499,9.378087997436523,1.37906014919281,-2.784456491470337,-0.3662109375,0.54931640625,1.251220703125
0.6437499,9.39245319366455,1.381454348564148,-2.738966703414917,-0.274658203125,0.518798828125,1.2359619140625
0.6462499,9.404424667358398,1.3766659498214722,-2.7054479122161865,-0.4425048828125,0.762939453125,1.251220703125
0.6487499,9.418789863586426,1.3551181554794312,-2.6815059185028076,-0.48828125,0.885009765625,1.2664794921875
0.6512499,9.423578262329102,1.3215993642807007,-2.6862943172454834,-0.2593994140625,0.885009765625,1.220703125
0.6537499,9.41639518737793,1.2856862545013428,-2.693476915359497,-0.06103515625,0.91552734375,1.3275146484375
0.6562499,9.397241592407227,1.2497732639312744,-2.7078421115875244,-0.18310546875,0.9613037109375,1.2359619140625
0.6587499,9.368511199951172,1.2258312702178955,-2.717418909072876,-0.1373291015625,1.1749267578125,1.129150390625
0.6612499000000001,9.334992408752441,1.216254472732544,-2.717418909072876,-0.1678466796875,1.1138916015625,1.068115234375
0.6637499,9.313444137573242,1.2186486721038818,-2.7078421115875244,-0.1220703125,1.129150390625,1.190185546875
0.6662499000000001,9.301473617553711,1.2306196689605713,-2.7006595134735107,-0.0457763671875,1.0528564453125,0.9918212890625
0.6687499,9.308655738830566,1.2497732639312744,-2.6862943172454834,-0.152587890625,1.1444091796875,0.8697509765625
0.6712499000000001,9.32541561126709,1.2689268589019775,-2.6815059185028076,-0.0152587890625,1.0833740234375,0.8544921875
0.6737499,9.339780807495117,1.2832920551300049,-2.674323320388794,-0.06103515625,1.1444091796875,0.946044921875
0.6762499000000001,9.351752281188965,1.2952631711959839,-2.674323320388794,-0.030517578125,1.251220703125,0.885009765625
0.6787499,9.351752281188965,1.2976573705673218,-2.674323320388794,-0.0762939453125,1.3427734375,0.946044921875
0.6812499000000001,9.342175483703613,1.292868971824646,-2.674323320388794,-0.1068115234375,1.1444091796875,0.823974609375
0.6837499,9.339780807495117,1.2880805730819702,-2.6839001178741455,-0.0152587890625,0.9765625,0.7781982421875
0.6862499000000001,9.342175483703613,1.280897855758667,-2.6791117191314697,0.152587890625,1.1444091796875,0.7476806640625
0.6887499,9.351752281188965,1.2832920551300049,-2.6791117191314697,0.1220703125,1.0833740234375,0.6256103515625
0.6912499000000001,9.373299598693848,1.280897855758667,-2.674323320388794,0.213623046875,1.068115234375,0.6103515625
0.6937499,9.38048267364502,1.2856862545013428,-2.669534921646118,0.4119873046875,1.3580322265625,0.5950927734375
0.6962499000000001,9.385271072387695,1.2856862545013428,-2.6671407222747803,0.3509521484375,1.556396484375,0.3509521484375
0.6987499,9.375694274902344,1.2880805730819702,-2.676717519760132,0.213623046875,1.617431640625,0.30517578125
0.7012499000000001,9.361329078674316,1.2856862545013428,-2.6886885166168213,0.091552734375,1.40380859375,0.518798828125
0.7037499,9.339780807495117,1.280897855758667,-2.7078421115875244,0.30517578125,1.4801025390625,0.4119873046875
0.7062499,9.32541561126709,1.2737152576446533,-2.7222073078155518,0.3814697265625,1.4495849609375,0.3662109375
0.7087499,9.313444137573242,1.2689268589019775,-2.7293899059295654,0.2899169921875,1.312255859375,0.396728515625
0.7112499,9.308655738830566,1.2689268589019775,-2.7222073078155518,0.3204345703125,1.2969970703125,0.1983642578125
0.7137499,9.313444137573242,1.280897855758667,-2.7126305103302,0.4119873046875,1.373291015625,0.0152587890625
0.7162499,9.320627212524414,1.2976573705673218,-2.7006595134735107,0.4425048828125,1.46484375,0.0457763671875
0.7187499,9.32541561126709,1.3287819623947144,-2.693476915359497,0.1373291015625,1.3885498046875,0.2899169921875
0.7212499,9.332598686218262,1.357512354850769,-2.693476915359497,0.152587890625,1.312255859375,0.1983642578125
0.7237499000000001,9.337387084960938,1.381454348564148,-2.695871114730835,0.0762939453125,1.5106201171875,0.030517578125
0.7262499,9.334992408752441,1.3934253454208374,-2.7006595134735107,0.091552734375,1.5106201171875,0.18310546875
0.7287499000000001,9.32541561126709,1.3982137441635132,-2.7054479122161865,0.1983642578125,1.2969970703125,0.18310546875
0.7312499,9.311050415039062,1.3910311460494995,-2.717418909072876,0.213623046875,1.28173828125,0.0457763671875
0.7337499000000001,9.294290542602539,1.3838485479354858,-2.7246015071868896,-0.1068115234375,1.28173828125,0.0762939453125
0.7362499,9.277531623840332,1.37906014919281,-2.734178304672241,0.06103515625,1.251220703125,0.18310546875
0.7387499000000001,9.27034854888916,1.3766659498214722,-2.741360902786255,-0.0457763671875,1.190185546875,0.091552734375
0.7412499,9.26795482635498,1.3838485479354858,-2.738966703414917,-0.1373291015625,1.3427734375,0.1220703125
0.7437499000000001,9.277531623840332,1.3886369466781616,-2.7317841053009033,-0.0457763671875,1.3427734375,0.1678466796875
0.7462499,9.29189682006836,1.3982137441635132,-2.717418909072876,-0.2288818359375,1.40380859375,0.152587890625
0.7487499000000001,9.315838813781738,1.400607943534851,-2.698265314102173,-0.1678466796875,1.3427734375,0.2288818359375
0.7512499,9.332598686218262,1.4077905416488647,-2.6791117191314697,0.152587890625,1.3427734375,0.213623046875
0.7537499000000001,9.349357604980469,1.4077905416488647,-2.6647465229034424,0.1983642578125,1.3580322265625,0.1373291015625
0.7562499,9.35893440246582,1.41257905960083,-2.655169725418091,0.0762939453125,1.373291015625,0.274658203125
0.7587499000000001,9.366117477416992,1.4077905416488647,-2.655169725418091,0.1373291015625,1.434326171875,0.30517578125
0.7612499,9.366117477416992,1.4053963422775269,-2.652775526046753,0.244140625,1.4801025390625,0.5950927734375
0.7637499000000001,9.361329078674316,1.3982137441635132,-2.6575639247894287,0.18310546875,1.5869140625,0.5950927734375
0.7662499,9.349357604980469,1.3910311460494995,-2.6647465229034424,0.213623046875,1.46484375,0.1983642578125
0.7687499000000001,9.342175483703613,1.37906014919281,-2.676717519760132,0.244140625,1.3885498046875,0.3509521484375
0.7712499,9.330204010009766,1.3646949529647827,-2.691082715988159,0.2593994140625,1.3885498046875,0.5340576171875
0.7737499,9.334992408752441,1.3455413579940796,-2.7054479122161865,0.518798828125,1.4801025390625,0.5645751953125
0.7762499,9.337387084960938,1.316810965538025,-2.717418909072876,0.1373291015625,1.6937255859375,0.2288818359375
0.7787499,9.337387084960938,1.316810965538025,-2.717418909072876,0.1373291015625,1.6937255859375,0.2288818359375
0.7812499,9.351752281188965,1.3072341680526733,-2.715024709701538,0.0762939453125,1.922607421875,0.274658203125
0.7837499,9.351752281188965,1.3072341680526733,-2.715024709701538,0.0762939453125,1.922607421875,0.274658203125
0.7862499000000001,9.35654067993164,1.2952631711959839,-2.7102363109588623,0.0457763671875,1.556396484375,0.30517578125
0.7887499,9.35654067993164,1.2952631711959839,-2.7102363109588623,0.0457763671875,1.556396484375,0.30517578125
0.7912499000000001,9.339780807495117,1.2761094570159912,-2.698265314102173,0.2899169921875,1.678466796875,0.274658203125
0.7937499,9.339780807495117,1.2761094570159912,-2.698265314102173,0.2899169921875,1.678466796875,0.274658203125
0.7962499000000001,9.320627212524414,1.2665326595306396,-2.671929121017456,0.1678466796875,1.7852783203125,0.335693359375
0.7987499,9.320627212524414,1.2665326595306396,-2.671929121017456,0.1678466796875,1.7852783203125,0.335693359375
0.8012499000000001,9.311050415039062,1.2737152576446533,-2.647987127304077,0.0762939453125,1.678466796875,0.1068115234375
0.8037499,9.311050415039062,1.2737152576446533,-2.647987127304077,0.0762939453125,1.678466796875,0.1068115234375
0.8062499000000001,9.318233489990234,1.3024457693099976,-2.6408045291900635,0.1068115234375,1.52587890625,0.2899169921875
0.8087499,9.318233489990234,1.3024457693099976,-2.6408045291900635,0.1068115234375,1.52587890625,0.2899169921875
0.8112499000000001,9.334992408752441,1.3287819623947144,-2.6360161304473877,0.152587890625,1.6021728515625,0.1678466796875
0.8137499,9.334992408752441,1.3287819623947144,-2.6360161304473877,0.152587890625,1.6021728515625,0.1678466796875
0.8162499000000001,9.334992408752441,1.3455413579940796,-2.6408045291900635,0.274658203125,1.556396484375,-0.0457763671875
0.8187499,9.334992408752441,1.3455413579940796,-2.6408045291900635,0.274658203125,1.556396484375,-0.0457763671875
0.8212499000000001,9.313444137573242,1.3694833517074585,-2.652775526046753,0.274658203125,1.52587890625,0.030517578125
0.8237499,9.313444137573242,1.3694833517074585,-2.652775526046753,0.274658203125,1.52587890625,0.030517578125
0.8262499000000001,9.284713745117188,1.381454348564148,-2.655169725418091,0.2593994140625,1.46484375,0.2288818359375
0.8287499,9.284713745117188,1.381454348564148,-2.655169725418091,0.2593994140625,1.46484375,0.2288818359375
0.8312499000000001,9.275136947631836,1.3862427473068237,-2.6384103298187256,0.06103515625,1.28173828125,0.06103515625
0.8337499,9.275136947631836,1.3862427473068237,-2.6384103298187256,0.06103515625,1.28173828125,0.06103515625
0.8362499,9.30386734008789,1.3934253454208374,-2.604891538619995,0.0762939453125,1.28173828125,0.30517578125
0.8387499,9.30386734008789,1.3934253454208374,-2.604891538619995,0.0762939453125,1.28173828125,0.30517578125
0.8412499,9.334992408752441,1.3838485479354858,-2.5737667083740234,0.0152587890625,1.2054443359375,0.1068115234375
0.8437499,9.334992408752441,1.3838485479354858,-2.5737667083740234,0.0152587890625,1.2054443359375,0.1068115234375
0.8462499,9.337387084960938,1.3455413579940796,-2.5498247146606445,0.30517578125,1.0223388671875,0.18310546875
0.8487499000000001,9.337387084960938,1.3455413579940796,-2.5498247146606445,0.30517578125,1.0223388671875,0.18310546875
0.8512499,9.332598686218262,1.3215993642807007,-2.542642116546631,0.4730224609375,0.9307861328125,0.213623046875
0.8537499000000001,9.332598686218262,1.3215993642807007,-2.542642116546631,0.4730224609375,0.9307861328125,0.213623046875
0.8562499,9.337387084960938,1.316810965538025,-2.5737667083740234,0.3662109375,0.823974609375,0.30517578125
0.8587499000000001,9.337387084960938,1.316810965538025,-2.5737667083740234,0.3662109375,0.823974609375,0.30517578125
0.8612499,9.339780807495117,1.3048399686813354,-2.631227731704712,0.3204345703125,0.946044921875,0.1068115234375
0.8637499000000001,9.339780807495117,1.3048399686813354,-2.631227731704712,0.3204345703125,0.946044921875,0.1068115234375
0.8662499,9.349357604980469,1.2737152576446533,-2.6671407222747803,0.4730224609375,0.762939453125,0.1373291015625
0.8687499000000001,9.349357604980469,1.2737152576446533,-2.6671407222747803,0.4730224609375,0.762939453125,0.1373291015625
0.8712499,9.35654067993164,1.2449848651885986,-2.671929121017456,0.5950927734375,0.762939453125,0.0762939453125
0.8737499000000001,9.35654067993164,1.2449848651885986,-2.671929121017456,0.5950927734375,0.762939453125,0.0762939453125
0.8762499,9.346963882446289,1.2521674633026123,-2.6623523235321045,0.4425048828125,0.701904296875,0.1373291015625
0.8787499000000001,9.346963882446289,1.2521674633026123,-2.6623523235321045,0.4425048828125,0.701904296875,0.1373291015625
0.8812499,9.342175483703613,1.2952631711959839,-2.63362193107605,0.244140625,0.762939453125,-0.0457763671875
0.8837499000000001,9.342175483703613,1.2952631711959839,-2.63362193107605,0.244140625,0.762939453125,-0.0457763671875
0.8862499,9.363722801208496,1.335964560508728,-2.609679937362671,0.1068115234375,0.67138671875,-0.06103515625
0.8887499000000001,9.363722801208496,1.335964560508728,-2.609679937362671,0.1068115234375,0.67138671875,-0.06103515625
0.8912499,9.3828763961792,1.357512354850769,-2.607285737991333,0.6866455078125,0.8392333984375,0.030517578125
0.8937499000000001,9.3828763961792,1.357512354850769,-2.607285737991333,0.6866455078125,0.8392333984375,0.030517578125
0.8962499,9.354146003723145,1.3718775510787964,-2.6192567348480225,0.42724609375,0.5340576171875,0.06103515625
0.8987499,9.354146003723145,1.3718775510787964,-2.6192567348480225,0.42724609375,0.5340576171875,0.06103515625
0.9012499,9.306262016296387,1.403002142906189,-2.6431987285614014,0.4119873046875,0.579833984375,0.1068115234375
0.9037499,9.306262016296387,1.403002142906189,-2.6431987285614014,0.4119873046875,0.579833984375,0.1068115234375
0.9062499,9.299078941345215,1.4269442558288574,-2.652775526046753,0.6103515625,0.5035400390625,0.1373291015625
0.9087499,9.299078941345215,1.4269442558288574,-2.652775526046753,0.6103515625,0.5035400390625,0.1373291015625
0.9112499000000001,9.332598686218262,1.4413094520568848,-2.6360161304473877,0.579833984375,0.4425048828125,0.2593994140625
0.9137499,9.332598686218262,1.4413094520568848,-2.6360161304473877,0.579833984375,0.4425048828125,0.2593994140625
0.9162499000000001,9.370905876159668,1.4389152526855469,-2.6240451335906982,0.5035400390625,0.4425048828125,0.3814697265625
0.9187499,9.370905876159668,1.4389152526855469,-2.6240451335906982,0.5035400390625,0.4425048828125,0.3814697265625
0.9212499000000001,9.38048267364502,1.4221558570861816,-2.628833532333374,0.42724609375,0.30517578125,0.3204345703125
0.9237499,9.38048267364502,1.4221558570861816,-2.628833532333374,0.42724609375,0.30517578125,0.3204345703125
0.9262499000000001,9.370905876159668,1.3982137441635132,-2.6455929279327393,0.2899169921875,0.18310546875,0.4730224609375
0.9287499,9.370905876159668,1.3982137441635132,-2.6455929279327393,0.2899169921875,0.18310546875,0.4730224609375
0.9312499000000001,9.375694274902344,1.3694833517074585,-2.6384103298187256,0.30517578125,0.335693359375,0.3509521484375
0.9337499,9.375694274902344,1.3694833517074585,-2.6384103298187256,0.30517578125,0.335693359375,0.3509521484375
0.9362499000000001,9.390059471130371,1.3623007535934448,-2.607285737991333,0.3204345703125,0.1220703125,0.1983642578125
0.9387499,9.390059471130371,1.3623007535934448,-2.607285737991333,0.3204345703125,0.1220703125,0.1983642578125
0.9412499000000001,9.409213066101074,1.3670891523361206,-2.564189910888672,0.3509521484375,-0.0457763671875,0.48828125
0.9437499,9.409213066101074,1.3670891523361206,-2.564189910888672,0.3509521484375,-0.0457763671875,0.48828125
0.9462499000000001,9.440337181091309,1.3527239561080933,-2.5282769203186035,0.3662109375,-0.0762939453125,0.4730224609375
0.9487499,9.461885452270508,1.338358759880066,-2.518700122833252,0.4119873046875,-0.1068115234375,0.274658203125
0.9512499000000001,9.488221168518066,1.3215993642807007,-2.5115175247192383,0.5645751953125,-0.030517578125,0.3662109375
0.9537499,9.514557838439941,1.3024457693099976,-2.5067291259765625,0.518798828125,-0.0457763671875,0.2899169921875
0.9562499000000001,9.53849983215332,1.2856862545013428,-2.5115175247192383,0.5035400390625,0.152587890625,0.152587890625
0.9587499,9.552865028381348,1.2689268589019775,-2.516305923461914,0.6561279296875,0.1678466796875,0.30517578125
0.9612499,9.564835548400879,1.2545616626739502,-2.5306711196899414,0.7171630859375,0.0457763671875,0.274658203125
0.9637499,9.57201862335205,1.2401964664459229,-2.542642116546631,0.5645751953125,0.1678466796875,-0.2288818359375
0.9662499,9.579200744628906,1.2282254695892334,-2.557007312774658,0.6256103515625,0.030517578125,-0.1373291015625
0.9687499,9.603142738342285,1.213860273361206,-2.564189910888672,0.701904296875,0.18310546875,-0.091552734375
0.9712499,9.63187313079834,1.2090718746185303,-2.5713725090026855,0.4119873046875,0.2899169921875,-0.335693359375
0.9737499000000001,9.670180320739746,1.1994950771331787,-2.5713725090026855,0.0762939453125,0.4119873046875,-0.457763671875
0.9762499,9.710882186889648,1.1971008777618408,-2.5761611461639404,-0.0152587890625,0.5035400390625,-0.5035400390625
0.9787499000000001,9.744400978088379,1.1803414821624756,-2.5785553455352783,-0.1678466796875,0.4730224609375,-0.5950927734375
0.9812499,9.773131370544434,1.1635819673538208,-2.585737943649292,-0.3814697265625,0.5950927734375,-0.946044921875
0.9837499000000001,9.801861763000488,1.137245774269104,-2.583343744277954,-0.54931640625,0.8544921875,-1.1444091796875
0.9862499,9.832986831665039,1.1061211824417114,-2.580949544906616,-0.4119873046875,1.129150390625,-1.2969970703125
0.9887499000000001,9.8784761428833,1.0773907899856567,-2.5665841102600098,-0.335693359375,1.5106201171875,-1.46484375
0.9912499,9.93593692779541,1.0582371950149536,-2.557007312774658,-0.274658203125,1.800537109375,-1.7852783203125
0.9937499000000001,10.002974510192871,1.0534487962722778,-2.540247917175293,-0.3509521484375,1.9378662109375,-1.9378662109375
0.9962499,10.079588890075684,1.0630255937576294,-2.5306711196899414,-0.274658203125,2.3193359375,-2.0904541015625
0.9987499000000001,10.168174743652344,1.0797849893569946,-2.5091233253479004,-0.1983642578125,2.5177001953125,-2.349853515625
1.0012499,10.261548042297363,1.1013327836990356,-2.497152328491211,-0.457763671875,3.0059814453125,-2.838134765625
1.0037498999999999,10.36449909210205,1.1204863786697388,-2.4899697303771973,-0.5035400390625,3.8604736328125,-2.9449462890625
1.0062499,10.469843864440918,1.1348515748977661,-2.492363929748535,-0.79345703125,4.5623779296875,-3.23486328125
1.0087499,10.577583312988281,1.1468225717544556,-2.5043349266052246,-0.91552734375,4.94384765625,-3.4637451171875
1.0112499,10.685321807861328,1.1540051698684692,-2.5258827209472656,-1.15966796875,5.950927734375,-3.662109375
1.0137498999999999,10.793061256408691,1.1468225717544556,-2.5546131134033203,-1.6326904296875,6.9427490234375,-3.7078857421875
1.0162499,10.891223907470703,1.1348515748977661,-2.5905263423919678,-1.64794921875,7.6904296875,-4.1351318359375
1.0187499,10.984597206115723,1.1180921792984009,-2.63362193107605,-1.800537109375,8.7432861328125,-4.486083984375
1.0212499,11.08754825592041,1.0989385843276978,-2.674323320388794,-2.410888671875,9.8114013671875,-4.94384765625
1.0237498999999999,11.207258224487305,1.0821791887283325,-2.7030537128448486,-2.5177001953125,10.9710693359375,-5.2337646484375
1.0262498999999998,11.343728065490723,1.0558429956436157,-2.719813108444214,-2.899169921875,12.664794921875,-5.79833984375
1.0287499,11.489773750305176,1.01753568649292,-2.7246015071868896,-2.838134765625,14.434814453125,-6.3629150390625
1.0312499,11.628637313842773,0.9696516990661621,-2.736572504043579,-2.62451171875,15.9912109375,-6.927490234375
1.0337498999999999,11.745953559875488,0.912190854549408,-2.75812029838562,-3.0517578125,17.791748046875,-7.568359375
1.0362498999999998,11.84650993347168,0.849941611289978,-2.8107926845550537,-3.082275390625,19.5770263671875,-8.2244873046875
1.0387499,11.923124313354492,0.790086567401886,-2.8850131034851074,-3.204345703125,21.42333984375,-9.124755859375
1.0412499,11.987768173217773,0.7158663272857666,-2.9879636764526367,-3.2501220703125,23.468017578125,-9.8419189453125
1.0437499,12.035652160644531,0.6320692300796509,-3.1076738834381104,-3.3416748046875,25.543212890625,-11.16943359375
1.0462498999999998,12.069170951843262,0.5291185975074768,-3.2297780513763428,-3.0670166015625,27.4810791015625,-12.359619140625
1.0487499,12.078747749328613,0.3734954595565796,-3.3638534545898438,-3.0059814453125,29.96826171875,-14.2059326171875
1.0512499,12.035652160644531,0.14604631066322327,-3.488351821899414,-2.410888671875,32.8826904296875,-17.27294921875
1.0537499,11.930307388305664,-0.13407529890537262,-3.603273630142212,-0.4730224609375,37.59765625,-21.148681640625
1.0562498999999999,11.91354751586914,-0.45010992884635925,-3.6750996112823486,2.777099609375,43.6859130859375,-26.3824462890625
1.0587499,12.038045883178711,-0.6799532771110535,-3.6367924213409424,6.9580078125,47.91259765625,-31.2347412109375
1.0612499,12.430695533752441,-0.7134721279144287,-3.464409828186035,11.04736328125,53.192138671875,-36.1328125
1.0637499,13.002909660339355,-0.47165772318840027,-3.1076738834381104,14.58740234375,59.356689453125,-40.252685546875
1.0662498999999999,13.591882705688477,0.06464344263076782,-2.607285737991333,16.90673828125,65.5517578125,-43.7774658203125
1.0687499,13.996502876281738,0.8068459630012512,-1.9991583824157715,17.5018310546875,71.441650390625,-46.722412109375
1.0712499,14.125789642333984,1.625662922859192,-1.3503297567367554,17.4102783203125,77.0263671875,-49.5758056640625
1.0737499,13.986926078796387,2.410961151123047,-0.7134721279144287,17.6544189453125,81.9244384765625,-51.7578125
1.0762498999999999,13.682862281799316,3.095702886581421,-0.16759411990642548,16.9830322265625,86.4105224609375,-53.6346435546875
1.0787499,13.340492248535156,3.689464807510376,0.24660277366638184,15.4876708984375,91.033935546875,-56.0302734375
1.0812499,13.062764167785645,4.182670593261719,0.507570743560791,13.214111328125,95.4437255859375,-58.3343505859375
1.0837499,12.914323806762695,4.587290287017822,0.6248866319656372,10.3302001953125,99.884033203125,-60.4095458984375
1.0862498999999999,12.892776489257812,4.888959884643555,0.646434485912323,7.293701171875,104.4464111328125,-62.6678466796875
1.0887499,12.966996192932129,5.099649429321289,0.6105214357376099,4.4403076171875,109.130859375,-65.12451171875
1.0912499,13.084312438964844,5.243301868438721,0.5578489899635315,1.6021728515625,113.22021484375,-67.7490234375
1.0937499,13.208810806274414,5.341464042663574,0.5147533416748047,-1.9073486328125,116.790771484375,-70.4803466796875
1.0962498999999999,13.333309173583984,5.408501625061035,0.5123591423034668,-5.3253173828125,119.8272705078125,-73.333740234375
1.0987498999999998,13.453019142150879,5.456385612487793,0.5554547905921936,-8.7890625,122.772216796875,-76.446533203125
1.1012499,13.589488983154297,5.485116004943848,0.6488286852836609,-11.9476318359375,125.1068115234375,-79.803466796875
1.1037499,13.75708293914795,5.52821159362793,0.7757213711738586,-15.106201171875,126.4801025390625,-82.9010009765625
1.1062499,13.967772483825684,5.6455278396606445,0.9002198576927185,-18.280029296875,127.5177001953125,-85.540771484375
1.1087498999999998,14.202404022216797,5.870582580566406,1.01753568649292,-22.0947265625,128.8909912109375,-87.6312255859375
1.1112499,14.408306121826172,6.22731876373291,1.1204863786697388,-26.8402099609375,131.0272216796875,-89.3096923828125
1.1137499,14.530409812927246,6.6630635261535645,1.2210428714752197,-32.53173828125,133.1787109375,-90.728759765625
1.1162499,14.49210262298584,7.105990409851074,1.3479355573654175,-38.818359375,135.92529296875,-92.010498046875
1.1187498999999999,14.286201477050781,7.4770917892456055,1.4987702369689941,-45.34912109375,138.3819580078125,-93.231201171875
1.1212499,13.94861888885498,7.716512203216553,1.6831238269805908,-52.1240234375,140.777587890625,-94.3756103515625
1.1237499,13.534421920776367,7.826645374298096,1.8698714971542358,-58.685302734375,143.3563232421875,-95.428466796875
1.1262499,13.132196426391602,7.838616371154785,2.049436569213867,-65.093994140625,145.6451416015625,-96.4813232421875
1.1287498999999999,12.780248641967773,7.793126583099365,2.1954829692840576,-71.3348388671875,148.01025390625,-97.320556640625
1.1312499,12.51209831237793,7.738059997558594,2.3127987384796143,-77.667236328125,150.0701904296875,-98.0377197265625
1.1337499,12.320562362670898,7.694964408874512,2.3942017555236816,-84.228515625,152.1759033203125,-98.846435546875
1.1362499,12.181697845458984,7.661445617675781,2.4612393379211426,-90.75927734375,153.9459228515625,-99.3499755859375
1.1387498999999999,12.071564674377441,7.627926826477051,2.516305923461914,-96.8475341796875,155.9600830078125,-99.6246337890625
1.1412499,11.959037780761719,7.582436561584473,2.5737667083740234,-102.5543212890625,157.562255859375,-99.9908447265625
1.1437499,11.820174217224121,7.529764175415039,2.631227731704712,-108.489990234375,158.966064453125,-100.3570556640625
1.1462499,11.654973983764648,7.469909191131592,2.6862943172454834,-113.9984130859375,160.46142578125,-100.5401611328125
1.1487498999999999,11.458649635314941,7.400477409362793,2.734178304672241,-119.354248046875,161.8804931640625,-100.921630859375
1.1512499,11.243170738220215,7.314286231994629,2.7748796939849854,-124.4354248046875,163.299560546875,-101.165771484375
1.1537499,11.027692794799805,7.204153060913086,2.8107926845550537,-128.7841796875,164.6575927734375,-101.470947265625
1.1562499,10.81460952758789,7.074865818023682,2.853888511657715,-132.843017578125,166.290283203125,-101.3336181640625
1.1587498999999999,10.613495826721191,6.943184852600098,2.9065608978271484,-136.260986328125,168.0145263671875,-101.409912109375
1.1612498999999998,10.426748275756836,6.8162922859191895,2.980781078338623,-139.4805908203125,169.25048828125,-101.4404296875
1.1637499,10.266336441040039,6.701370716094971,3.071760892868042,-142.3492431640625,170.806884765625,-101.5167236328125
1.1662499,10.141838073730469,6.588842868804932,3.184288263320923,-144.744873046875,172.607421875,-101.3641357421875
1.1687499,10.050858497619629,6.478709697723389,3.3016040325164795,-146.97265625,174.2401123046875,-101.318359375
1.1712498999999998,10.000580787658691,6.356605529785156,3.4165258407592773,-148.712158203125,175.7049560546875,-101.6082763671875
1.1737499,9.986215591430664,6.232107162475586,3.507505416870117,-150.3448486328125,177.5054931640625,-101.6693115234375
1.1762499,9.988609313964844,6.102819919586182,3.56017804145813,-151.67236328125,179.19921875,-102.0355224609375
1.1787499,10.010157585144043,5.9735331535339355,3.584120035171509,-152.8167724609375,181.1370849609375,-102.386474609375
1.1812498999999999,10.02691650390625,5.846640586853027,3.576937437057495,-153.3050537109375,183.0596923828125,-103.0731201171875
1.1837499,10.036493301391602,5.7125654220581055,3.5673606395721436,-153.6712646484375,185.3790283203125,-103.4698486328125
1.1862499,10.036493301391602,5.580883979797363,3.555389642715454,-153.8543701171875,188.04931640625,-104.00390625
1.1887499,10.012551307678223,5.449203014373779,3.552995204925537,-153.8543701171875,190.216064453125,-104.7210693359375
1.1912498999999999,9.981427192687988,5.329493045806885,3.5649664402008057,-153.6102294921875,192.3828125,-105.499267578125
1.1937499,9.950302124023438,5.231330871582031,3.5936968326568604,-153.1829833984375,194.8394775390625,-106.1859130859375
1.1962499,9.923966407775879,5.157110691070557,3.6367924213409424,-152.740478515625,197.3419189453125,-107.025146484375
1.1987499,9.911994934082031,5.114014625549316,3.687070608139038,-152.4505615234375,199.951171875,-107.574462890625
1.2012498999999999,9.907206535339355,5.104437828063965,3.734954595565796,-152.1148681640625,202.5604248046875,-108.001708984375
1.2037499,9.90241813659668,5.116408824920654,3.77565598487854,-151.55029296875,205.2154541015625,-108.5662841796875
1.2062499,9.892841339111328,5.130774021148682,3.804386615753174,-151.2908935546875,207.94677734375,-108.9630126953125
1.2087499,9.8784761428833,5.137956619262695,3.825934410095215,-150.665283203125,210.6781005859375,-109.1156005859375
1.2112498999999999,9.852140426635742,5.123591423034668,3.845088005065918,-149.9786376953125,213.5162353515625,-109.1461181640625
1.2137499,9.81143856048584,5.082890033721924,3.864241600036621,-149.261474609375,216.2933349609375,-109.130859375
1.2162499,9.75637149810791,5.020640850067139,3.8762125968933105,-148.590087890625,218.8262939453125,-108.795166015625
1.2187499,9.691728591918945,4.929661273956299,3.883395195007324,-147.5372314453125,221.5118408203125,-108.734130859375
1.2212498999999999,9.622296333312988,4.809951305389404,3.883395195007324,-146.3470458984375,223.846435546875,-108.428955078125
1.2237498999999998,9.555258750915527,4.663905143737793,3.8738183975219727,-145.1568603515625,226.3946533203125,-108.21533203125
1.2262499,9.48343276977539,4.484339714050293,3.866635799407959,-143.2037353515625,228.8818359375,-108.1085205078125
1.2287499,9.41400146484375,4.290409564971924,3.8522706031799316,-140.9912109375,230.7586669921875,-108.062744140625
1.2312499,9.32541561126709,4.091690540313721,3.847482204437256,-138.7176513671875,232.6812744140625,-107.97119140625
1.2337498999999998,9.232041358947754,3.9049429893493652,3.845088005065918,-135.986328125,234.466552734375,-107.72705078125
1.2362499,9.124302864074707,3.7421371936798096,3.866635799407959,-133.0718994140625,235.83984375,-107.8643798828125
1.2387499,9.01895809173584,3.60566782951355,3.909731388092041,-130.0048828125,237.213134765625,-107.9864501953125
1.2412499,8.925583839416504,3.490746021270752,3.97916316986084,-126.7852783203125,238.2965087890625,-107.696533203125
1.2437498999999999,8.860940933227539,3.404554843902588,4.062960147857666,-123.47412109375,239.3951416015625,-107.879638671875
1.2462499,8.820239067077637,3.337517261505127,4.14915132522583,-120.0714111328125,240.264892578125,-107.7423095703125
1.2487499,8.80587387084961,3.294421434402466,4.223371982574463,-116.6229248046875,241.1956787109375,-107.452392578125
1.2512499,8.803479194641113,3.2776620388031006,4.261679172515869,-113.4185791015625,241.851806640625,-107.2845458984375
1.2537498999999999,8.80587387084961,3.268085241317749,4.273650169372559,-110.3668212890625,242.5079345703125,-107.0098876953125
1.2562499,8.803479194641113,3.2632968425750732,4.2544965744018555,-107.60498046875,243.4844970703125,-106.9793701171875
1.2587499,8.798690795898438,3.246537446975708,4.230554580688477,-104.8583984375,244.476318359375,-106.87255859375
1.2612499,8.793902397155762,3.227383852005005,4.213795185089111,-102.325439453125,245.452880859375,-106.9488525390625
1.2637498999999999,8.791508674621582,3.205836057662964,4.2090067863464355,-99.609375,246.4447021484375,-106.99462890625
1.2662499,8.803479194641113,3.201047658920288,4.230554580688477,-97.076416015625,247.49755859375,-107.2845458984375
1.2687499,8.829815864562988,3.2417490482330322,4.256890773773193,-95.1995849609375,248.779296875,-107.391357421875
1.2712499,8.877699851989746,3.318363666534424,4.292803764343262,-93.44482421875,250.1068115234375,-107.4066162109375
1.2737498999999999,8.937555313110352,3.442862033843994,4.316745758056641,-91.8426513671875,251.3275146484375,-107.330322265625
1.2762499,9.002198219299316,3.5936968326568604,4.314351558685303,-90.7440185546875,252.593994140625,-106.87255859375
1.2787499,9.045293807983398,3.754108190536499,4.288015365600586,-90.2557373046875,253.997802734375,-106.5216064453125
1.2812499,9.057265281677246,3.88818359375,4.242525577545166,-90.33203125,255.4168701171875,-106.0028076171875
1.2837498999999999,9.026140213012695,3.995922565460205,4.19224739074707,-89.7216796875,257.01904296875,-105.65185546875
1.2862498999999998,8.951920509338379,4.055777549743652,4.146757125854492,-89.3402099609375,258.5601806640625,-105.1025390625
1.2887499,8.856152534484863,4.0964789390563965,4.120420932769775,-89.385986328125,260.1318359375,-104.2327880859375
1.2912499,8.757989883422852,4.120420932769775,4.1156325340271,-89.324951171875,261.7645263671875,-103.363037109375
1.2937499,8.664615631103516,4.132391929626465,4.129997730255127,-89.4317626953125,263.5040283203125,-102.5543212890625
1.2962498999999998,8.576030731201172,4.125209331512451,4.175487995147705,-89.508056640625,264.923095703125,-101.5625
1.2987499,8.485051155090332,4.084507942199707,4.24970817565918,-89.5843505859375,266.5252685546875,-100.799560546875
1.3012499,8.391676902770996,4.019864559173584,4.32871675491333,-89.813232421875,267.9595947265625,-99.945068359375
1.3037499,8.300697326660156,3.955221176147461,4.414907932281494,-89.7369384765625,269.1192626953125,-98.8922119140625
1.3062498999999999,8.22887134552002,3.909731388092041,4.496310710906982,-90.1947021484375,270.2789306640625,-97.83935546875
1.3087499,8.176198959350586,3.8953661918640137,4.587290287017822,-90.8660888671875,271.5606689453125,-96.9390869140625
1.3112499,8.13789176940918,3.914519786834717,4.702212333679199,-91.552734375,272.4456787109375,-95.6878662109375
1.3137499,8.11634349822998,3.957615375518799,4.836287498474121,-92.0867919921875,273.6968994140625,-94.5892333984375
1.3162498999999999,8.11634349822998,4.036623954772949,4.99669885635376,-92.8192138671875,274.810791015625,-93.0328369140625
1.3187499,8.130708694458008,4.144362926483154,5.152322292327881,-94.0399169921875,275.970458984375,-91.5374755859375
1.3212499,8.154650688171387,4.285621166229248,5.272032260894775,-95.7489013671875,277.2216796875,-89.9810791015625
1.3237499,8.169015884399414,4.434061527252197,5.353435039520264,-97.412109375,278.13720703125,-88.2415771484375
1.3262498999999999,8.157045364379883,4.5609540939331055,5.377377033233643,-99.2431640625,279.5867919921875,-86.48681640625
1.3287499,8.106766700744629,4.63517427444458,5.360617637634277,-100.76904296875,280.853271484375,-84.65576171875
1.3312499,8.015787124633789,4.6255974769592285,5.327098846435547,-102.11181640625,282.0892333984375,-82.7789306640625
1.3337499,7.876923561096191,4.541800498962402,5.2672438621521,-102.72216796875,283.5235595703125,-80.9783935546875
1.3362498999999999,7.704541206359863,4.378994941711426,5.214571475982666,-103.057861328125,284.637451171875,-79.742431640625
1.3387499,7.508216381072998,4.1611223220825195,5.157110691070557,-103.363037109375,285.5987548828125,-78.3233642578125
1.3412499,7.299921035766602,3.885789394378662,5.106832027435303,-102.8289794921875,286.8194580078125,-77.1026611328125
1.3437499,7.096413612365723,3.5697548389434814,5.078101634979248,-101.6693115234375,287.750244140625,-76.0650634765625
1.3462498999999999,6.892906665802002,3.222595453262329,5.07570743560791,-99.609375,288.63525390625,-75.286865234375
1.3487498999999998,6.6846113204956055,2.8634653091430664,5.106832027435303,-97.198486328125,289.2608642578125,-74.7833251953125
1.3512499,6.481103897094727,2.518700122833252,5.166687488555908,-94.1314697265625,289.24560546875,-74.5391845703125
1.3537499,6.287173748016357,2.207453966140747,5.260061264038086,-90.6524658203125,288.8946533203125,-74.2645263671875
1.3562499,6.121973514556885,1.944091796875,5.3797712326049805,-86.8072509765625,288.4674072265625,-74.4171142578125
1.3587498999999998,6.004657745361328,1.7310078144073486,5.521028995513916,-82.7178955078125,287.78076171875,-74.554443359375
1.3612499,5.932831764221191,1.5729905366897583,5.659893035888672,-78.3843994140625,286.9720458984375,-74.4476318359375
1.3637499,5.913678169250488,1.4628572463989258,5.791574001312256,-74.249267578125,285.7513427734375,-74.554443359375
1.3662499,5.916072368621826,1.3862427473068237,5.896918773651123,-70.220947265625,284.3475341796875,-74.7528076171875
1.3687498999999999,5.916072368621826,1.3455413579940796,5.961562156677246,-66.1468505859375,282.989501953125,-75.0579833984375
1.3712499,5.899312973022461,1.338358759880066,5.978321552276611,-61.95068359375,281.3720703125,-75.347900390625
1.3737499,5.853823184967041,1.3742717504501343,5.940014362335205,-58.4869384765625,279.5867919921875,-75.653076171875
1.3762499,5.791574001312256,1.4508862495422363,5.863399982452393,-54.74853515625,277.6031494140625,-75.592041015625
1.3787498999999999,5.7125654220581055,1.556231141090393,5.772420406341553,-51.45263671875,275.4669189453125,-75.6378173828125
1.3812499,5.631162166595459,1.6711528301239014,5.693411827087402,-48.5076904296875,273.1781005859375,-75.8209228515625
1.3837499,5.535394191741943,1.7741034030914307,5.638344764709473,-45.440673828125,270.4620361328125,-76.141357421875
1.3862499,5.43723201751709,1.86508309841156,5.5976433753967285,-42.66357421875,267.364501953125,-75.7904052734375
1.3887498999999999,5.34625244140625,1.9273324012756348,5.578489780426025,-39.97802734375,264.1143798828125,-75.6072998046875
1.3912499,5.264849662780762,1.9608511924743652,5.564124584197998,-37.4298095703125,260.43701171875,-75.3326416015625
1.3937499,5.188235282897949,1.987187385559082,5.544970989227295,-34.759521484375,256.439208984375,-75.0274658203125
1.3962499,5.104437828063965,1.987187385559082,5.530605792999268,-32.257080078125,252.3956298828125,-74.7833251953125
1.3987498999999999,5.003881454467773,1.9991583824157715,5.501875400543213,-30.2734375,248.016357421875,-74.4476318359375
1.4012499,4.881777286529541,2.013523578643799,5.47075080871582,-28.74755859375,243.7286376953125,-74.462890625
1.4037499,4.747702121734619,2.0422539710998535,5.43723201751709,-27.4810791015625,238.76953125,-74.1424560546875
1.4062499,4.620809078216553,2.0901381969451904,5.4013190269470215,-26.2603759765625,233.856201171875,-73.822021484375
1.4087498999999999,4.525041103363037,2.164358377456665,5.360617637634277,-25.482177734375,228.9581298828125,-73.4405517578125
1.4112498999999998,4.467580318450928,2.2577321529388428,5.3127336502075195,-25.20751953125,224.4110107421875,-72.784423828125
1.4137499,4.458003520965576,2.365471363067627,5.25527286529541,-25.2838134765625,219.78759765625,-72.113037109375
1.4162499,4.455609321594238,2.4803929328918457,5.178658485412598,-25.7720947265625,215.4388427734375,-71.35009765625
1.4187499,4.455609321594238,2.585737943649292,5.0900726318359375,-26.7181396484375,210.6475830078125,-70.7550048828125
1.4212498999999998,4.431667327880859,2.693476915359497,4.975151062011719,-27.923583984375,206.268310546875,-69.7784423828125
1.4237499,4.388571739196777,2.779668092727661,4.845864295959473,-29.327392578125,201.7669677734375,-68.603515625
1.4262499,4.335899353027344,2.849100112915039,4.704606533050537,-31.1431884765625,197.265625,-67.718505859375
1.4287499,4.2760443687438965,2.8850131034851074,4.55616569519043,-32.989501953125,193.2220458984375,-66.619873046875
1.4312498999999999,4.2090067863464355,2.8826189041137695,4.412513732910156,-34.8358154296875,189.239501953125,-65.1092529296875
1.4337499,4.146757125854492,2.8371291160583496,4.280832767486572,-36.773681640625,185.0433349609375,-63.873291015625
1.4362499,4.077325344085693,2.7533318996429443,4.170699596405029,-38.75732421875,181.0455322265625,-62.6068115234375
1.4387499,4.0078935623168945,2.63362193107605,4.0749311447143555,-40.4510498046875,176.8035888671875,-61.4471435546875
1.4412498999999999,3.93367338180542,2.5067291259765625,3.9911341667175293,-42.022705078125,172.9278564453125,-60.4705810546875
1.4437499,3.8522706031799316,2.382230758666992,3.9049429893493652,-43.670654296875,168.670654296875,-59.38720703125
1.4462499,3.756502389907837,2.274491548538208,3.825934410095215,-44.9676513671875,164.00146484375,-58.5784912109375
1.4487499,3.6511576175689697,2.2002713680267334,3.7493197917938232,-46.1273193359375,159.6527099609375,-57.31201171875
1.4512498999999999,3.5482068061828613,2.1547815799713135,3.6750996112823486,-47.0733642578125,154.9224853515625,-55.9539794921875
1.4537499,3.4548330307006836,2.1308395862579346,3.6128504276275635,-48.15673828125,150.1312255859375,-54.7637939453125
1.4562499,3.3877954483032227,2.118868589401245,3.552995204925537,-49.6826171875,145.3399658203125,-53.5736083984375
1.4587499,3.3446998596191406,2.0901381969451904,3.5051112174987793,-50.59814453125,140.380859375,-52.30712890625
1.4612498999999999,3.335123062133789,2.0422539710998535,3.4620156288146973,-51.5899658203125,135.6048583984375,-50.96435546875
1.4637499,3.3470940589904785,1.9632453918457031,3.426102638244629,-52.18505859375,130.7525634765625,-49.774169921875
1.4662499,3.3877954483032227,1.8626888990402222,3.3925838470458984,-53.070068359375,125.8392333984375,-48.5382080078125
1.4687499,3.4356794357299805,1.7549498081207275,3.3662476539611816,-53.8787841796875,120.9716796875,-47.5311279296875
1.4712498999999999,3.488351821899414,1.6496049165725708,3.337517261505127,-54.3212890625,115.997314453125,-46.3409423828125
1.4737498999999998,3.5242648124694824,1.558625340461731,3.3039982318878174,-54.901123046875,111.236572265625,-45.34912109375
1.4762499,3.5386300086975098,1.4915876388549805,3.268085241317749,-55.4351806640625,106.1859130859375,-44.219970703125
1.4787499,3.531447410583496,1.4508862495422363,3.222595453262329,-56.0455322265625,101.1962890625,-42.877197265625
1.4812499,3.507505416870117,1.434126853942871,3.184288263320923,-56.5948486328125,96.6796875,-41.6107177734375
1.4837498999999998,3.471592426300049,1.434126853942871,3.1435868740081787,-56.884765625,91.5985107421875,-40.1153564453125
1.4862499,3.442862033843994,1.4437036514282227,3.112462282180786,-57.2509765625,86.7767333984375,-38.75732421875
1.4887499,3.4165258407592773,1.4508862495422363,3.0861260890960693,-58.3038330078125,82.09228515625,-37.3382568359375
1.4912499,3.397372245788574,1.4628572463989258,3.0621838569641113,-58.9141845703125,77.3162841796875,-35.9649658203125
1.4937498999999999,3.3877954483032227,1.4748282432556152,3.0406360626220703,-59.417724609375,72.662353515625,-34.5306396484375
1.4962499,3.3854012489318848,1.4891934394836426,3.026270866394043,-60.089111328125,67.7032470703125,-32.8826904296875
1.4987499,3.3854012489318848,1.501164436340332,3.0190882682800293,-60.9588623046875,63.04931640625,-31.463623046875
1.5012499,3.397372245788574,1.50355863571167,3.0190882682800293,-61.5997314453125,58.2122802734375,-29.8309326171875
1.5037498999999999,3.406949043273926,1.4867992401123047,3.0310592651367188,-62.286376953125,53.64990234375,-28.289794921875
1.5062499,3.4165258407592773,1.45806884765625,3.0526070594787598,-63.4613037109375,49.1180419921875,-26.7181396484375
1.5087499,3.4141316413879395,1.4293384552001953,3.0837318897247314,-64.27001953125,44.61669921875,-25.0701904296875
1.5112499,3.4189200401306152,1.4077905416488647,3.1196448802948,-65.24658203125,40.0390625,-23.651123046875
1.5137498999999999,3.4141316413879395,1.4053963422775269,3.155557870864868,-66.314697265625,35.58349609375,-22.3541259765625
1.5162499,3.4093432426452637,1.434126853942871,3.1938650608062744,-67.6116943359375,31.5399169921875,-20.6146240234375
1.5187499,3.3949780464172363,1.4867992401123047,3.222595453262329,-68.90869140625,27.313232421875,-18.951416015625
1.5212499,3.3638534545898438,1.5682021379470825,3.246537446975708,-70.3582763671875,23.2391357421875,-16.998291015625
1.5237498999999999,3.308786630630493,1.6543933153152466,3.265691041946411,-71.868896484375,19.2718505859375,-15.4266357421875
1.5262499,3.2369606494903564,1.7381904125213623,3.2752678394317627,-73.3184814453125,15.2435302734375,-13.61083984375
1.5287499,3.1435868740081787,1.800439715385437,3.2776620388031006,-74.676513671875,11.566162109375,-11.566162109375
1.5312499,3.043030261993408,1.8267759084701538,3.2800562381744385,-75.836181640625,7.8125,-9.857177734375
1.5337498999999999,2.937685489654541,1.8124107122421265,3.294421434402466,-76.9195556640625,4.1351318359375,-8.087158203125
1.5362499,2.8395233154296875,1.7525556087493896,3.332728862762451,-77.8961181640625,0.640869140625,-6.6070556640625
1.5387499,2.7461493015289307,1.678335428237915,3.399766445159912,-78.3233642578125,-2.9296875,-5.2337646484375
1.5412499,2.674323320388794,1.5921441316604614,3.4979286193847656,-78.8421630859375,-6.3018798828125,-4.1046142578125
1.5437499,2.6192567348480225,1.5155296325683594,3.6152446269989014,-79.4525146484375,-9.6435546875,-2.899169921875
1.5462498999999998,2.5713725090026855,1.460463047027588,3.7469255924224854,-80.047607421875,-13.397216796875,-1.861572265625
1.5487499,2.518700122833252,1.4245500564575195,3.885789394378662,-80.322265625,-16.571044921875,-0.67138671875
1.5512499,2.454056739807129,1.4173674583435059,4.02465295791626,-80.4290771484375,-19.83642578125,-0.030517578125
1.5537499,2.3750481605529785,1.436521053314209,4.156333923339844,-80.596923828125,-23.2086181640625,1.068115234375
1.5562498999999999,2.2840683460235596,1.4867992401123047,4.280832767486572,-80.810546875,-26.397705078125,2.0294189453125
1.5587499,2.183511972427368,1.556231141090393,4.383783340454102,-81.0546875,-29.4189453125,3.0364990234375
1.5612499,2.075772762298584,1.6304513216018677,4.479551315307617,-81.23779296875,-32.6690673828125,3.7841796875
1.5637499,1.965639591217041,1.7094600200653076,4.546588897705078,-81.6650390625,-35.675048828125,4.7454833984375
1.5662498999999999,1.8507179021835327,1.7836803197860718,4.608838081359863,-81.8634033203125,-38.5284423828125,5.4779052734375
1.5687499,1.7549498081207275,1.8339585065841675,4.683058738708496,-81.9091796875,-41.4276123046875,6.134033203125
1.5712499,1.6759412288665771,1.8507179021835327,4.778826713562012,-81.8634033203125,-44.2657470703125,6.6986083984375
1.5737499,1.6041151285171509,1.8339585065841675,4.910507678985596,-82.0159912109375,-46.7987060546875,7.049560546875
1.5762498999999999,1.5538369417190552,1.7860745191574097,5.070919036865234,-81.54296875,-49.37744140625,7.568359375
1.5787499,1.5155296325683594,1.745373010635376,5.243301868438721,-81.23779296875,-51.81884765625,7.8125
1.5812499,1.4867992401123047,1.7334020137786865,5.420472621917725,-81.0546875,-54.473876953125,7.8277587890625
1.5837499,1.4676456451416016,1.7597382068634033,5.588066577911377,-81.11572265625,-56.6558837890625,8.148193359375
1.5862498999999999,1.4437036514282227,1.824381709098816,5.760449409484863,-81.0546875,-58.868408203125,8.5296630859375
1.5887499,1.3934253454208374,1.920149803161621,5.904101371765137,-80.5206298828125,-61.2945556640625,8.9263916015625
1.5912499,1.3311761617660522,2.0207061767578125,6.050147533416748,-80.4443359375,-63.385009765625,9.063720703125
1.5937499,1.2473790645599365,2.1284453868865967,6.1770405769348145,-80.5206298828125,-65.3076171875,9.1400146484375
1.5962498999999999,1.1468225717544556,2.2170307636260986,6.296750545501709,-80.2154541015625,-67.3828125,9.765625
1.5987499,1.0438719987869263,2.2840683460235596,6.426037311553955,-80.2459716796875,-69.2901611328125,10.040283203125
1.6012499,0.9481038451194763,2.31758713722229,6.564900875091553,-80.108642578125,-70.953369140625,10.009765625
1.6037499,0.8643068075180054,2.3367409706115723,6.720524311065674,-80.1239013671875,-72.6318359375,9.8419189453125
1.6062499,0.8068459630012512,2.343923568725586,6.885724067687988,-80.078125,-74.310302734375,9.7198486328125
1.6087498999999998,0.768538773059845,2.363077163696289,7.060500621795654,-80.01708984375,-75.68359375,9.7808837890625
1.6112499,0.7374141216278076,2.410961151123047,7.240066051483154,-79.9407958984375,-76.9195556640625,9.6282958984375
1.6137499,0.6919242739677429,2.499546527862549,7.422025203704834,-80.0323486328125,-78.125,9.429931640625
1.6162499,0.6200982332229614,2.628833532333374,7.603984832763672,-80.2764892578125,-79.2694091796875,9.735107421875
1.6187498999999999,0.524330198764801,2.7557260990142822,7.785943984985352,-81.0089111328125,-80.5816650390625,9.765625
1.6212499,0.40222588181495667,2.8562827110290527,7.972691535949707,-81.4971923828125,-81.7718505859375,9.82666015625
1.6237499,0.2753331959247589,2.920926094055176,8.166622161865234,-81.4056396484375,-82.489013671875,10.009765625
1.6262499,0.16759411990642548,2.942473888397217,8.370129585266113,-82.0159912109375,-83.465576171875,10.1318359375
1.6287498999999999,0.090979665517807,2.956839084625244,8.588001251220703,-83.0078125,-83.7554931640625,9.94873046875
1.6312499,0.040701430290937424,2.96162748336792,8.825027465820312,-83.892822265625,-83.831787109375,10.07080078125
1.6337499,0.011971008032560349,2.9712042808532715,9.07641887664795,-84.747314453125,-84.1217041015625,10.1318359375
1.6362499,-0.05746084079146385,3.00711727142334,9.610325813293457,-86.9140625,-83.648681640625,10.2386474609375
1.6387498999999999,-0.05746084079146385,3.00711727142334,9.610325813293457,-86.9140625,-83.648681640625,10.2386474609375
1.6412499,-0.1843535304069519,3.1028854846954346,10.096348762512207,-89.4317626953125,-82.7178955078125,10.2996826171875
1.6437499,-0.1843535304069519,3.1028854846954346,10.096348762512207,-89.4317626953125,-82.7178955078125,10.2996826171875
1.6462499,-0.395043283700943,3.2178070545196533,10.541669845581055,-92.7734375,-80.810546875,10.711669921875
1.6487498999999999,-0.395043283700943,3.2178070545196533,10.541669845581055,-92.7734375,-80.810546875,10.711669921875
1.6512499,-0.629675030708313,3.2393548488616943,10.989385604858398,-95.4132080078125,-78.3233642578125,11.138916015625
1.6537499,-0.629675030708313,3.2393548488616943,10.989385604858398,-95.4132080078125,-78.3233642578125,11.138916015625
1.6562499,-0.8164227604866028,3.1196448802948,11.444284439086914,-97.7935791015625,-74.5391845703125,11.4288330078125
1.6587498999999999,-0.8164227604866028,3.1196448802948,11.444284439086914,-97.7935791015625,-74.5391845703125,11.4288330078125
1.6612499,-1.015141487121582,2.942473888397217,11.906365394592285,-98.724365234375,-70.00732421875,11.3677978515625
1.6637499,-1.015141487121582,2.942473888397217,11.906365394592285,-98.724365234375,-70.00732421875,11.3677978515625
1.6662499,-1.3048399686813354,2.80361008644104,12.382811546325684,-99.3194580078125,-65.185546875,11.7340087890625
1.6687499,-1.3048399686813354,2.80361008644104,12.382811546325684,-99.3194580078125,-65.185546875,11.7340087890625
1.6712498999999998,-1.6687586307525635,2.6431987285614014,12.890381813049316,-98.4649658203125,-59.9212646484375,12.237548828125
1.6737499,-1.6687586307525635,2.6431987285614014,12.890381813049316,-98.4649658203125,-59.9212646484375,12.237548828125
1.6762499,-2.032677173614502,2.4205379486083984,13.424288749694824,-96.86279296875,-53.7567138671875,12.87841796875
1.6787499,-2.032677173614502,2.4205379486083984,13.424288749694824,-96.86279296875,-53.7567138671875,12.87841796875
1.6812498999999999,-2.360682964324951,2.1787235736846924,14.018051147460938,-94.2230224609375,-47.210693359375,13.0615234375
1.6837499,-2.360682964324951,2.1787235736846924,14.018051147460938,-94.2230224609375,-47.210693359375,13.0615234375
1.6862499,-2.691082715988159,2.0015525817871094,14.678850173950195,-91.278076171875,-40.34423828125,13.7786865234375
1.6887499,-2.691082715988159,2.0015525817871094,14.678850173950195,-91.278076171875,-40.34423828125,13.7786865234375
1.6912498999999999,-3.045424461364746,1.9393033981323242,15.33965015411377,-88.31787109375,-32.958984375,14.984130859375
1.6937499,-3.045424461364746,1.9393033981323242,15.33965015411377,-88.31787109375,-32.958984375,14.984130859375
1.6962499,-3.428496837615967,1.8986018896102905,15.911864280700684,-85.7086181640625,-24.7344970703125,16.3421630859375
1.6987499,-3.428496837615967,1.8986018896102905,15.911864280700684,-85.7086181640625,-24.7344970703125,16.3421630859375
1.7012498999999999,-3.84269380569458,1.7549498081207275,16.385915756225586,-82.2906494140625,-15.838623046875,18.00537109375
1.7037499,-3.84269380569458,1.7549498081207275,16.385915756225586,-82.2906494140625,-15.838623046875,18.00537109375
1.7062499,-4.261679172515869,1.5442601442337036,16.838420867919922,-79.1778564453125,-6.683349609375,19.317626953125
1.7087499,-4.261679172515869,1.5442601442337036,16.838420867919922,-79.1778564453125,-6.683349609375,19.317626953125
1.7112498999999999,-4.649539470672607,1.3479355573654175,17.31486701965332,-75.3326416015625,2.777099609375,21.17919921875
1.7137499,-4.649539470672607,1.3479355573654175,17.31486701965332,-75.3326416015625,2.777099609375,21.17919921875
1.7162499,-4.963180065155029,1.1779472827911377,17.796100616455078,-70.6329345703125,12.5274658203125,23.3306884765625
1.7187499,-4.963180065155029,1.1779472827911377,17.796100616455078,-70.6329345703125,12.5274658203125,23.3306884765625
1.7212498999999999,-5.190629482269287,1.0342950820922852,18.239028930664062,-66.2841796875,22.705078125,25.2227783203125
1.7237499,-5.190629482269287,1.0342950820922852,18.239028930664062,-66.2841796875,22.705078125,25.2227783203125
1.7262499,-5.348646640777588,0.8643068075180054,18.65322494506836,-61.5997314453125,32.958984375,27.3284912109375
1.7287499,-5.348646640777588,0.8643068075180054,18.65322494506836,-61.5997314453125,32.958984375,27.3284912109375
1.7312499,-5.451597213745117,0.6033388376235962,19.02432632446289,-56.182861328125,44.0521240234375,29.083251953125
1.7337498999999998,-5.451597213745117,0.6033388376235962,19.02432632446289,-56.182861328125,44.0521240234375,29.083251953125
1.7362499,-5.492298603057861,0.3495534360408783,19.294872283935547,-49.8809814453125,55.11474609375,30.548095703125
1.7387499,-5.492298603057861,0.3495534360408783,19.294872283935547,-49.8809814453125,55.11474609375,30.548095703125
1.7412499,-5.501875400543213,0.24181437492370605,19.448101043701172,-44.12841796875,66.2384033203125,32.40966796875
1.7437498999999999,-5.501875400543213,0.24181437492370605,19.448101043701172,-44.12841796875,66.2384033203125,32.40966796875
1.7462499,-5.518634796142578,0.22744916379451752,19.524715423583984,-37.9638671875,77.2857666015625,34.454345703125
1.7487499,-5.518634796142578,0.22744916379451752,19.524715423583984,-37.9638671875,77.2857666015625,34.454345703125
1.7512499,-5.547365188598633,0.13168109953403473,19.5773868560791,-31.494140625,88.43994140625,36.407470703125
1.7537498999999999,-5.547365188598633,0.13168109953403473,19.5773868560791,-31.494140625,88.43994140625,36.407470703125
1.7562499,-5.537788391113281,-0.0694318488240242,19.61090660095215,-23.9410400390625,99.2889404296875,38.1927490234375
1.7587499,-5.537788391113281,-0.0694318488240242,19.61090660095215,-23.9410400390625,99.2889404296875,38.1927490234375
1.7612499,-5.477933406829834,-0.24420857429504395,19.61808967590332,-16.54052734375,109.7869873046875,39.825439453125
1.7637498999999999,-5.477933406829834,-0.24420857429504395,19.61808967590332,-16.54052734375,109.7869873046875,39.825439453125
1.7662499,-5.386953830718994,-0.2992752194404602,19.63484764099121,-9.27734375,120.086669921875,41.8548583984375
1.7687499,-5.386953830718994,-0.2992752194404602,19.63484764099121,-9.27734375,120.086669921875,41.8548583984375
1.7712499,-5.276820659637451,-0.23942017555236816,19.637243270874023,-2.6702880859375,130.126953125,43.8385009765625
1.7737498999999999,-5.276820659637451,-0.23942017555236816,19.637243270874023,-2.6702880859375,130.126953125,43.8385009765625
1.7762499,-5.16429328918457,-0.10534487664699554,19.55583953857422,2.62451171875,140.2435302734375,45.928955078125
1.7787499,-5.16429328918457,-0.10534487664699554,19.55583953857422,2.62451171875,140.2435302734375,45.928955078125
1.7812499,-5.078101634979248,0.023942016065120697,19.37627410888672,7.843017578125,150.177001953125,47.698974609375
1.7837498999999999,-5.078101634979248,0.023942016065120697,19.37627410888672,7.843017578125,150.177001953125,47.698974609375
1.7862499,-5.015852451324463,0.06464344263076782,19.158401489257812,12.5274658203125,159.942626953125,49.468994140625
1.7887499,-5.015852451324463,0.06464344263076782,19.158401489257812,12.5274658203125,159.942626953125,49.468994140625
1.7912499,-4.95120906829834,0.05746084079146385,18.974048614501953,16.448974609375,169.5404052734375,50.8575439453125
1.7937499,-4.95120906829834,0.05746084079146385,18.974048614501953,16.448974609375,169.5404052734375,50.8575439453125
1.7962498999999998,-4.876988887786865,0.05506663769483566,18.849550247192383,20.0042724609375,178.64990234375,52.30712890625
1.7987499,-4.876988887786865,0.05506663769483566,18.849550247192383,20.0042724609375,178.64990234375,52.30712890625
1.8012499,-4.802768707275391,0.06703764945268631,18.748992919921875,22.9644775390625,187.347412109375,52.978515625
1.8037499,-4.802768707275391,0.06703764945268631,18.748992919921875,22.9644775390625,187.347412109375,52.978515625
1.8062498999999999,-4.704606533050537,0.11971008777618408,18.610130310058594,25.0244140625,196.2127685546875,53.497314453125
1.8087499,-4.654327869415283,0.16519992053508759,18.502389907836914,25.787353515625,200.469970703125,53.8177490234375
1.8112499,-4.608838081359863,0.20111294090747833,18.387468338012695,26.519775390625,204.6661376953125,54.1534423828125
1.8137499,-4.575319290161133,0.2346317619085312,18.248605728149414,27.191162109375,208.67919921875,54.2755126953125
1.8162498999999999,-4.563348293304443,0.26336219906806946,18.10734748840332,27.77099609375,212.5701904296875,54.50439453125
1.8187499,-4.55616569519043,0.2753331959247589,17.961301803588867,28.1982421875,216.5679931640625,54.62646484375
1.8212499,-4.5609540939331055,0.2753331959247589,17.820043563842773,28.564453125,220.3369140625,54.229736328125
1.8237499,-4.5609540939331055,0.24899697303771973,17.69075584411621,29.327392578125,224.2431640625,54.1839599609375
1.8262498999999999,-4.558559894561768,0.18914192914962769,17.580623626708984,29.6630859375,228.08837890625,54.0313720703125
1.8287499,-4.54419469833374,0.10295066982507706,17.48485565185547,30.09033203125,231.6131591796875,53.436279296875
1.8312499,-4.527435302734375,0,17.415422439575195,30.6854248046875,235.0006103515625,52.7496337890625
1.8337499,-4.513070106506348,-0.11971008777618408,17.3603572845459,31.219482421875,238.4490966796875,52.093505859375
1.8362498999999999,-4.505887508392334,-0.22505496442317963,17.30768394470215,32.0892333984375,241.7144775390625,51.2542724609375
1.8387499,-4.51067590713501,-0.3280056416988373,17.25261688232422,32.77587890625,244.903564453125,50.47607421875
1.8412499,-4.525041103363037,-0.40940847992897034,17.17839813232422,33.6151123046875,247.772216796875,49.49951171875
1.8437499,-4.5394062995910645,-0.49320554733276367,17.092205047607422,34.4696044921875,250.6103515625,48.7060546875
1.8462498999999999,-4.551377296447754,-0.5626373887062073,17.00840950012207,35.003662109375,253.5858154296875,47.4853515625
1.8487499,-4.541800498962402,-0.6344634294509888,16.929399490356445,35.247802734375,256.28662109375,46.173095703125
1.8512499,-4.51067590713501,-0.6919242739677429,16.857574462890625,35.3546142578125,258.9874267578125,45.257568359375
1.8537499,-4.4508209228515625,-0.7374141216278076,16.802507400512695,35.4156494140625,261.871337890625,43.9605712890625
1.8562499,-4.369418144226074,-0.7661445140838623,16.733076095581055,35.1715087890625,264.678955078125,42.7093505859375
1.8587498999999998,-4.280832767486572,-0.7852981686592102,16.673221588134766,34.7900390625,267.6544189453125,41.56494140625
1.8612499,-4.199429988861084,-0.8044517636299133,16.613365173339844,34.2559814453125,270.538330078125,40.374755859375
1.8637499,-4.127603530883789,-0.8259995579719543,16.546327590942383,33.4014892578125,273.1781005859375,39.0472412109375
1.8662499,-4.067748546600342,-0.8643068075180054,16.4816837310791,32.470703125,276.0162353515625,37.811279296875
1.8687498999999999,-3.998316764831543,-0.912190854549408,16.41225242614746,31.67724609375,278.6712646484375,36.5753173828125
1.8712499,-3.9217023849487305,-0.9648633003234863,16.34042739868164,30.6854248046875,281.4483642578125,35.247802734375
1.8737499,-3.8379054069519043,-1.0055646896362305,16.28536033630371,29.5257568359375,284.576416015625,34.11865234375
1.8762499,-3.758896589279175,-1.036689281463623,16.247053146362305,28.167724609375,287.2772216796875,32.6995849609375
1.8787498999999999,-3.670311212539673,-1.0558429956436157,16.2278995513916,26.5960693359375,289.7186279296875,31.31103515625
1.8812499,-3.5889084339141846,-1.0773907899856567,16.22071647644043,25.054931640625,292.2515869140625,29.9530029296875
1.8837499,-3.488351821899414,-1.1228805780410767,16.211139678955078,23.193359375,294.8150634765625,28.4271240234375
1.8862499,-3.383007049560547,-1.2018892765045166,16.196775436401367,21.5911865234375,297.7447509765625,26.9012451171875
1.8887498999999999,-3.270479440689087,-1.314416766166687,16.148889541625977,20.294189453125,300.445556640625,25.08544921875
1.8912499,-3.162740468978882,-1.4484920501708984,16.079458236694336,18.98193359375,303.0853271484375,23.3917236328125
1.8937499,-3.066972494125366,-1.5705963373184204,15.971719741821289,17.9595947265625,305.5267333984375,21.6064453125
1.8962499,-2.9927520751953125,-1.6615760326385498,15.842432975769043,16.7083740234375,308.04443359375,19.7906494140625
1.8987498999999999,-2.942473888397217,-1.7142484188079834,15.715539932250977,15.5181884765625,310.60791015625,17.8985595703125
1.9012499,-2.9041666984558105,-1.7381904125213623,15.598223686218262,14.3585205078125,312.530517578125,16.3726806640625
1.9037499,-2.8586769104003906,-1.7501614093780518,15.514427185058594,13.153076171875,314.178466796875,14.892578125
1.9062499,-2.782062292098999,-1.764526605606079,15.454571723937988,12.14599609375,315.9637451171875,13.1683349609375
1.9087498999999999,-2.647987127304077,-1.7908629179000854,15.413870811462402,11.1541748046875,317.5811767578125,11.4288330078125
1.9112499,-2.4612393379211426,-1.8291701078414917,15.37077522277832,10.040283203125,319.1375732421875,9.735107421875
1.9137499,-2.233790159225464,-1.86508309841156,15.298949241638184,8.880615234375,320.7244873046875,8.270263671875
1.9162499,-1.9967641830444336,-1.8914192914962769,15.184026718139648,7.7972412109375,322.113037109375,6.53076171875
1.9187499,-1.7860745191574097,-1.8938134908676147,15.018827438354492,6.53076171875,323.42529296875,5.2337646484375
1.9212498999999998,-1.6160861253738403,-1.8794482946395874,14.800954818725586,5.5389404296875,324.6917724609375,3.9825439453125
1.9237499,-1.482010841369629,-1.8507179021835327,14.551958084106445,4.4708251953125,325.7598876953125,2.7313232421875
1.9262499,-1.37906014919281,-1.824381709098816,14.290989875793457,3.4637451171875,326.904296875,1.5716552734375
1.9287499,-1.2952631711959839,-1.8052281141281128,14.034810066223145,2.5787353515625,327.9266357421875,0.67138671875
1.9312498999999999,-1.2258312702178955,-1.8148049116134644,13.807361602783203,2.3040771484375,328.3538818359375,-0.335693359375
1.9337499,-1.170764684677124,-1.845929503440857,13.61103630065918,2.0904541015625,328.61328125,-1.556396484375
1.9362499,-1.1037269830703735,-1.9081788063049316,13.441048622131348,2.0599365234375,328.7200927734375,-2.4566650390625
1.9387499,-1.01753568649292,-1.9776105880737305,13.292608261108398,2.2430419921875,328.43017578125,-3.2501220703125
1.9412498999999999,-0.9026140570640564,-2.0470423698425293,13.15613842010498,2.2430419921875,328.369140625,-4.57763671875
1.9437499,-0.7565677165985107,-2.0925323963165283,13.024456977844238,2.532958984375,327.7130126953125,-5.950927734375
1.9462499,-0.5937620401382446,-2.097320795059204,12.890381813049316,2.5634765625,326.7974853515625,-6.866455078125
1.9487499,-0.44532153010368347,-2.0470423698425293,12.741941452026367,2.9754638671875,325.836181640625,-7.7972412109375
1.9512498999999999,-0.31124621629714966,-1.9512743949890137,12.57913589477539,2.8076171875,324.5849609375,-8.575439453125
1.9537499,-0.2059013396501541,-1.824381709098816,12.394782066345215,2.2430419921875,323.54736328125,-9.1552734375
1.9562499,-0.12210428714752197,-1.6735470294952393,12.198457717895508,2.0904541015625,322.20458984375,-9.7503662109375
1.9587499,-0.0454898327589035,-1.5203180313110352,11.997344970703125,1.617431640625,320.7550048828125,-10.43701171875
1.9612498999999999,0.031124621629714966,-1.3623007535934448,11.798625946044922,0.7171630859375,319.183349609375,-10.7269287109375
1.9637499,0.1149216815829277,-1.2066776752471924,11.614272117614746,-0.5645751953125,317.5048828125,-11.1846923828125
1.9662499,0.19871874153614044,-1.0534487962722778,11.439496040344238,-1.7852783203125,315.7958984375,-11.322021484375
1.9687499,0.28730419278144836,-0.9074024558067322,11.281478881835938,-3.265380859375,313.8427734375,-11.566162109375
1.9712498999999999,0.3734954595565796,-0.7709329724311829,11.135432243347168,-5.096435546875,311.95068359375,-11.749267578125
1.9737499,0.44771572947502136,-0.6392518281936646,11.008539199829102,-6.9580078125,310.089111328125,-11.322021484375
1.9762499,0.5147533416748047,-0.524330198764801,10.893617630004883,-9.0484619140625,307.7392578125,-10.986328125
1.9787499,0.5602431893348694,-0.4165911078453064,10.788272857666016,-10.6658935546875,305.2825927734375,-10.833740234375
1.9812499,0.6153098344802856,-0.31842881441116333,10.678139686584473,-12.63427734375,302.9632568359375,-10.223388671875
1.9837499,0.6631938815116882,-0.22505496442317963,10.553641319274902,-14.6942138671875,300.3692626953125,-9.9029541015625
1.9862499,0.7182605266571045,-0.1388636976480484,10.405200958251953,-16.6473388671875,297.7447509765625,-9.0789794921875
1.9887499,0.7589619159698486,-0.06224924325942993,10.228029251098633,-18.61572265625,294.98291015625,-8.392333984375
1.9912499,0.7852981686592102,-0.002394201699644327,10.036493301391602,-20.416259765625,292.0989990234375,-7.6904296875
1.9937498999999999,0.7924807667732239,0.0454898327589035,9.830592155456543,-21.9268798828125,289.2913818359375,-7.080078125
1.9962499,0.7924807667732239,0.08379705995321274,9.639056205749512,-23.62060546875,286.5447998046875,-6.1798095703125
1.9987499,0.7948749661445618,0.12449848651885986,9.452308654785156,-25.3143310546875,283.8134765625,-5.18798828125
2.0012499,0.8044517636299133,0.1628057211637497,9.282320022583008,-26.9012451171875,280.853271484375,-4.5166015625
2.0037499,0.8092401623725891,0.20350714027881622,9.117119789123535,-28.045654296875,277.8472900390625,-3.7384033203125
2.0062499,0.811634361743927,0.23702596127986908,8.944737434387207,-29.083251953125,274.6734619140625,-2.7923583984375
2.0087498999999998,0.8020575642585754,0.26336219906806946,8.762778282165527,-30.0750732421875,271.697998046875,-2.0599365234375
2.0112499,0.790086567401886,0.3016694188117981,8.561665534973145,-30.7464599609375,268.524169921875,-1.3427734375
2.0137499,0.7637503147125244,0.3519476354122162,8.33182144165039,-31.219482421875,265.3656005859375,-0.396728515625
2.0162499,0.7182605266571045,0.42616790533065796,8.075642585754395,-31.768798828125,262.02392578125,0.3814697265625
2.0187499,0.6584054827690125,0.4908113479614258,7.800309181213379,-32.135009765625,258.4228515625,1.3427734375
2.0212499,0.569819986820221,0.5410895943641663,7.527369976043701,-32.257080078125,254.7454833984375,2.25830078125
2.0237499,0.4908113479614258,0.545877993106842,7.280767440795898,-31.951904296875,250.9765625,2.899169921875
2.0262499,0.43335050344467163,0.524330198764801,7.070077419281006,-31.097412109375,247.25341796875,3.7841796875
2.0287498999999998,0.3998316824436188,0.48602294921875,6.907271862030029,-30.4412841796875,243.072509765625,4.425048828125
2.0312499,0.40940847992897034,0.45250412821769714,6.768408298492432,-29.9530029296875,238.8916015625,4.9591064453125
2.0337499,0.43335050344467163,0.4644751250743866,6.6391215324401855,-28.8543701171875,234.7412109375,5.645751953125
2.0362499,0.4572925269603729,0.5339069962501526,6.493074893951416,-27.984619140625,230.6365966796875,5.9967041015625
2.0387499,0.45489832758903503,0.6631938815116882,6.303933143615723,-27.496337890625,226.6998291015625,7.0953369140625
2.0412499,0.40701428055763245,0.8331822156906128,6.076483726501465,-27.191162109375,222.381591796875,8.0718994140625
2.0437499,0.31603461503982544,1.0079588890075684,5.815515995025635,-26.7333984375,217.926025390625,8.7890625
2.0462499,0.19871874153614044,1.139639973640442,5.544970989227295,-26.0162353515625,213.5162353515625,9.8114013671875
2.0487499,0.09816227108240128,1.216254472732544,5.288791656494141,-25.3448486328125,209.0301513671875,10.7879638671875
2.0512498999999997,0.021547814831137657,1.2330138683319092,5.066130638122559,-24.6124267578125,204.620361328125,11.23046875
2.0537499,-0.014365210197865963,1.2114660739898682,4.862623691558838,-23.468017578125,200.25634765625,11.8560791015625
2.0562499,-0.035913024097681046,1.173158884048462,4.687847137451172,-22.3388671875,195.6024169921875,12.3291015625
2.0587499,-0.0454898327589035,1.1540051698684692,4.520252704620361,-21.209716796875,190.7501220703125,12.8326416015625
2.0612499,-0.06224924325942993,1.173158884048462,4.359841346740723,-20.4620361328125,186.1724853515625,13.275146484375
2.0637499,-0.08379705995321274,1.2425906658172607,4.194641590118408,-19.7296142578125,181.2591552734375,14.0533447265625
2.0662499,-0.10773907601833344,1.3527239561080933,4.027047157287598,-19.287109375,176.45263671875,14.8162841796875
2.0687499,-0.1412578970193863,1.4844050407409668,3.8331170082092285,-19.256591796875,171.5545654296875,15.3961181640625
2.0712498999999998,-0.181959331035614,1.6160861253738403,3.6296098232269287,-19.1802978515625,166.8243408203125,15.93017578125
2.0737499,-0.2346317619085312,1.7166426181793213,3.4141316413879395,-19.073486328125,161.895751953125,16.7388916015625
2.0762499,-0.304063618183136,1.7836803197860718,3.203441858291626,-19.1497802734375,156.92138671875,17.364501953125
2.0787499,-0.363918662071228,1.8076223134994507,3.002328872680664,-19.10400390625,151.702880859375,17.7764892578125
2.0812499,-0.40940847992897034,1.8124107122421265,2.8203697204589844,-19.4244384765625,146.9879150390625,18.2647705078125
2.0837499,-0.42616790533065796,1.7980455160140991,2.6599581241607666,-19.8822021484375,142.425537109375,18.49365234375
2.0862499,-0.43335050344467163,1.7932571172714233,2.516305923461914,-20.1873779296875,137.26806640625,19.012451171875
2.0887499,-0.43335050344467163,1.802833914756775,2.389413356781006,-20.5230712890625,132.049560546875,19.3023681640625
2.0912498999999998,-0.4429273009300232,1.8339585065841675,2.274491548538208,-21.392822265625,126.7852783203125,19.53125
2.0937499,-0.45489832758903503,1.8794482946395874,2.164358377456665,-22.2015380859375,121.64306640625,20.1263427734375
2.0962499,-0.4572925269603729,1.922544002532959,2.0638017654418945,-23.2086181640625,116.51611328125,20.6756591796875
2.0987499,-0.45250412821769714,1.9512743949890137,1.9728221893310547,-23.834228515625,111.328125,21.1029052734375
2.1012499,-0.4189853072166443,1.9560627937316895,1.886630892753601,-24.6429443359375,106.231689453125,21.3775634765625
2.1037499,-0.363918662071228,1.9345149993896484,1.8124107122421265,-25.2685546875,100.9674072265625,21.8505859375
2.1062499,-0.2825157940387726,1.8842366933822632,1.745373010635376,-25.665283203125,95.5963134765625,22.2320556640625
2.1087499,-0.17956513166427612,1.8267759084701538,1.678335428237915,-26.2908935546875,90.33203125,22.5677490234375
2.1112499,-0.0694318488240242,1.7525556087493896,1.6112977266311646,-26.611328125,84.9151611328125,22.88818359375
2.1137498999999997,0.031124621629714966,1.6687586307525635,1.5442601442337036,-26.85546875,79.65087890625,23.37646484375
2.1162499,0.11252748221158981,1.5705963373184204,1.479616641998291,-26.79443359375,74.249267578125,23.162841796875
2.1187499,0.16759411990642548,1.4628572463989258,1.4293384552001953,-25.9246826171875,68.695068359375,23.2391357421875
2.1212499,0.2082955539226532,1.3527239561080933,1.3982137441635132,-25.2227783203125,63.0340576171875,23.529052734375
2.1237499,0.2346317619085312,1.2425906658172607,1.3934253454208374,-24.0325927734375,57.4798583984375,23.529052734375
2.1262499,0.26096799969673157,1.1444283723831177,1.403002142906189,-22.4609375,52.001953125,23.6053466796875
2.1287499,0.2849099934101105,1.0462661981582642,1.4293384552001953,-20.69091796875,46.4935302734375,23.6053466796875
2.1312499,0.3016694188117981,0.9696516990661621,1.460463047027588,-18.6767578125,40.95458984375,23.8189697265625
2.1337498999999998,0.3064578175544739,0.9050082564353943,1.4844050407409668,-16.357421875,35.4766845703125,23.8037109375
2.1362499,0.2992752194404602,0.8738836050033569,1.4891934394836426,-14.190673828125,30.1971435546875,24.017333984375
2.1387499,0.2777273952960968,0.8738836050033569,1.4724340438842773,-11.871337890625,25.1007080078125,24.10888671875
2.1412499,0.2322375625371933,0.9074024558067322,1.4245500564575195,-9.674072265625,20.2484130859375,23.92578125
2.1437499,0.16998831927776337,0.9600749015808105,1.3694833517074585,-7.598876953125,15.56396484375,24.1546630859375
2.1462499,0.090979665517807,1.01753568649292,1.316810965538025,-5.340576171875,10.7421875,24.200439453125
2.1487499,0,1.0630255937576294,1.278503656387329,-2.838134765625,6.1492919921875,24.2462158203125
2.1512499,-0.08379705995321274,1.094150185585022,1.2665326595306396,-0.396728515625,1.6632080078125,24.23095703125
2.1537498999999998,-0.1604115068912506,1.115697979927063,1.278503656387329,1.6632080078125,-2.5177001953125,23.98681640625
2.1562499,-0.2346317619085312,1.1444283723831177,1.3096283674240112,3.753662109375,-6.4697265625,23.86474609375
2.1587499,-0.31842881441116333,1.194706678390503,1.3479355573654175,5.37109375,-10.4217529296875,23.3917236328125
2.1612499,-0.4357447028160095,1.280897855758667,1.3886369466781616,6.9732666015625,-14.251708984375,23.2086181640625
2.1637499,-0.5817909836769104,1.41257905960083,1.434126853942871,8.087158203125,-17.791748046875,23.0865478515625
2.1662499,-0.7565677165985107,1.5921441316604614,1.479616641998291,8.5296630859375,-21.4996337890625,22.9339599609375
2.1687499,-0.9528923034667969,1.8148049116134644,1.5442601442337036,8.392333984375,-24.5208740234375,22.4609375
2.1712499,-1.1563993692398071,2.0805611610412598,1.6089035272598267,7.7972412109375,-27.4505615234375,22.308349609375
2.1737499,-1.3694833517074585,2.3774423599243164,1.6831238269805908,6.3018798828125,-30.2581787109375,22.2625732421875
2.1762499,-1.6041151285171509,2.7006595134735107,1.7573440074920654,4.2572021484375,-32.684326171875,21.8658447265625
2.1787499,-1.8626888990402222,3.0358476638793945,1.8267759084701538,1.556396484375,-34.8968505859375,21.6522216796875
2.1812499,-2.164358377456665,3.375824451446533,1.8794482946395874,-2.0751953125,-36.834716796875,21.97265625
2.1837499,-2.494758129119873,3.6990416049957275,1.9081788063049316,-6.134033203125,-38.39111328125,22.2625732421875
2.1862499,-2.8610711097717285,3.9815573692321777,1.9105730056762695,-10.3302001953125,-39.6270751953125,22.613525390625
2.1887499,-3.2561142444610596,4.197035789489746,1.8962076902389526,-14.70947265625,-40.8172607421875,22.88818359375
2.1912499,-3.665522813796997,4.333505153656006,1.886630892753601,-18.6920166015625,-41.80908203125,23.01025390625
2.1937499,-4.0749311447143555,4.376600742340088,1.8938134908676147,-22.491455078125,-42.48046875,23.1781005859375
2.1962498999999998,-4.4723687171936035,4.3406877517700195,1.9273324012756348,-25.787353515625,-43.3349609375,22.9949951171875
2.1987499,-4.8482584953308105,4.242525577545166,1.9847931861877441,-28.594970703125,-43.792724609375,22.705078125
2.2012499,-5.212177276611328,4.10366153717041,2.0614075660705566,-30.5938720703125,-43.9910888671875,22.1710205078125
2.2037499,-5.585672378540039,3.9480385780334473,2.140416383743286,-31.7535400390625,-44.37255859375,21.7437744140625
2.2062499,-5.9735331535339355,3.780444383621216,2.2218191623687744,-32.2113037109375,-45.1202392578125,21.1181640625
2.2087499,-6.390124320983887,3.6128504276275635,2.298433542251587,-31.92138671875,-45.7763671875,20.08056640625
2.2112499,-6.828263282775879,3.4404678344726562,2.387019157409668,-30.792236328125,-46.56982421875,18.951416015625
2.2137499,-7.273584842681885,3.2561142444610596,2.492363929748535,-29.144287109375,-47.3175048828125,17.5018310546875
2.2162498999999998,-7.716512203216553,3.066972494125366,2.6192567348480225,-26.79443359375,-48.2177734375,15.9149169921875
2.2187499,-8.13789176940918,2.8658595085144043,2.782062292098999,-23.651123046875,-49.468994140625,14.1143798828125
2.2212499,-8.523358345031738,2.671929121017456,2.964021682739258,-20.32470703125,-50.7049560546875,12.26806640625
2.2237499,-8.868123054504395,2.492363929748535,3.157952070236206,-16.5557861328125,-51.94091796875,10.009765625
2.2262499,-9.174580574035645,2.341529369354248,3.35667085647583,-12.5885009765625,-53.2684326171875,7.720947265625
2.2287499,-9.452308654785156,2.2457611560821533,3.531447410583496,-8.0718994140625,-54.5196533203125,5.340576171875
2.2312499,-9.703699111938477,2.1978771686553955,3.670311212539673,-4.0740966796875,-55.7403564453125,2.86865234375
2.2337499,-9.950302124023438,2.2026655673980713,3.7612907886505127,-0.5340576171875,-56.6558837890625,0.42724609375
2.2362499,-10.18493366241455,2.252943754196167,3.8115692138671875,3.173828125,-57.708740234375,-1.861572265625
2.2387499,-10.414777755737305,2.3295583724975586,3.8331170082092285,6.805419921875,-58.9141845703125,-4.302978515625
2.2412499,-10.625467300415039,2.434903144836426,3.8498764038085938,9.918212890625,-59.600830078125,-6.65283203125
2.2437499,-10.812214851379395,2.557007312774658,3.883395195007324,12.8631591796875,-60.394287109375,-8.9874267578125
2.2462499,-10.96544361114502,2.7030537128448486,3.9480385780334473,15.1824951171875,-61.21826171875,-10.986328125
2.2487499,-11.077971458435059,2.8778305053710938,4.0533833503723145,16.7388916015625,-61.6302490234375,-12.8631591796875
2.2512499,-11.166556358337402,3.090914487838745,4.177882194519043,17.4713134765625,-61.676025390625,-15.13671875
2.2537499,-11.23598861694336,3.332728862762451,4.314351558685303,17.4102783203125,-61.676025390625,-16.7083740234375
2.2562499,-11.298237800598145,3.5936968326568604,4.438849925994873,16.78466796875,-61.7218017578125,-18.00537109375
2.2587498999999998,-11.362881660461426,3.8570590019226074,4.546588897705078,15.44189453125,-61.5386962890625,-19.1192626953125
2.2612499,-11.422736167907715,4.086902141571045,4.63517427444458,13.4735107421875,-61.3555908203125,-20.0653076171875
2.2637499,-11.475408554077148,4.278438568115234,4.704606533050537,11.138916015625,-60.7452392578125,-20.904541015625
2.2662499,-11.513715744018555,4.410119533538818,4.764461517333984,8.23974609375,-59.75341796875,-21.6217041015625
2.2687499,-11.537657737731934,4.481945514678955,4.817133903503418,5.462646484375,-58.65478515625,-22.1405029296875
2.2712499,-11.554417610168457,4.49870491027832,4.874594688415527,2.777099609375,-57.586669921875,-22.430419921875
2.2737499,-11.568782806396484,4.458003520965576,4.9368438720703125,0.030517578125,-56.243896484375,-22.76611328125
2.2762499,-11.580753326416016,4.376600742340088,5.011064052581787,-2.6397705078125,-54.9468994140625,-23.0712890625
2.2787498999999998,-11.597513198852539,4.256890773773193,5.092466831207275,-5.126953125,-53.4820556640625,-23.0712890625
2.2812499,-11.611878395080566,4.106055736541748,5.183446884155273,-7.3699951171875,-51.727294921875,-23.3001708984375
2.2837499,-11.621455192565918,3.9456443786621094,5.276820659637451,-8.97216796875,-50.140380859375,-23.345947265625
2.2862499,-11.614272117614746,3.7660791873931885,5.365406036376953,-10.3912353515625,-48.4619140625,-23.345947265625
2.2887499,-11.599906921386719,3.581725835800171,5.449203014373779,-11.2457275390625,-46.81396484375,-23.3154296875
2.2912499,-11.578359603881836,3.3901896476745605,5.5114521980285645,-12.115478515625,-44.9981689453125,-23.3306884765625
2.2937499,-11.554417610168457,3.1866824626922607,5.564124584197998,-12.0849609375,-43.3349609375,-23.1475830078125
2.2962499,-11.525687217712402,2.983175277709961,5.595249176025391,-11.29150390625,-41.595458984375,-22.9644775390625
2.2987499,-11.494562149047852,2.7724854946136475,5.623979568481445,-10.4827880859375,-40.0238037109375,-22.705078125
2.3012499,-11.45146656036377,2.5498247146606445,5.659893035888672,-9.2926025390625,-38.2232666015625,-22.5677490234375
2.3037499,-11.398794174194336,2.3104045391082764,5.710171222686768,-7.354736328125,-36.865234375,-22.4456787109375
2.3062499,-11.346121788024902,2.0685901641845703,5.774814605712891,-4.9896240234375,-35.6292724609375,-22.1405029296875
2.3087499,-11.281478881835938,1.8363527059555054,5.851428985595703,-1.9989013671875,-33.935546875,-21.7742919921875
2.3112499,-11.21444034576416,1.6352397203445435,5.9304375648498535,0.9613037109375,-32.440185546875,-21.9573974609375
2.3137499,-11.140220642089844,1.4844050407409668,6.009446144104004,3.9825439453125,-31.1126708984375,-21.7742919921875
2.3162499,-11.065999984741211,1.3718775510787964,6.071695327758789,7.110595703125,-29.7393798828125,-21.484375
2.3187499,-10.989385604858398,1.2976573705673218,6.117185115814209,10.467529296875,-28.5491943359375,-21.209716796875
2.3212498999999998,-10.915165901184082,1.2473790645599365,6.133944988250732,13.73291015625,-27.4658203125,-20.782470703125
2.3237499,-10.843339920043945,1.2042834758758545,6.119579315185547,16.8609619140625,-26.18408203125,-20.5535888671875
2.3262499,-10.771512985229492,1.161187767982483,6.081272125244141,20.2178955078125,-25.115966796875,-20.1873779296875
2.3287499,-10.6925048828125,1.113303780555725,6.033388137817383,23.74267578125,-23.86474609375,-19.500732421875
2.3312499,-10.606313705444336,1.0558429956436157,5.985504150390625,27.2216796875,-22.5677490234375,-18.98193359375
2.3337499,-10.503362655639648,0.993593692779541,5.959167957305908,30.426025390625,-21.42333984375,-18.707275390625
2.3362499,-10.398017883300781,0.9409212470054626,5.949591159820557,33.6456298828125,-20.20263671875,-18.5546875
2.3387499,-10.295066833496094,0.9002198576927185,5.961562156677246,36.8194580078125,-19.2718505859375,-17.8375244140625
2.3412498999999998,-10.194510459899902,0.8930372595787048,5.990292549133301,39.7796630859375,-18.4173583984375,-17.303466796875
2.3437499,-10.098742485046387,0.9145850539207458,6.009446144104004,42.29736328125,-17.364501953125,-16.6015625
2.3462499,-9.998186111450195,0.9720458984375,6.028599739074707,44.5556640625,-16.8304443359375,-15.7623291015625
2.3487499,-9.885659217834473,1.0462661981582642,6.023811340332031,46.5240478515625,-15.93017578125,-15.13671875
2.3512499,-9.765948295593262,1.1300631761550903,6.00226354598999,48.309326171875,-15.167236328125,-14.2059326171875
2.3537499,-9.643844604492188,1.2066776752471924,5.961562156677246,50.048828125,-14.617919921875,-13.2598876953125
2.3562499,-9.521739959716797,1.2832920551300049,5.9088897705078125,51.1932373046875,-13.580322265625,-12.5579833984375
2.3587499,-9.41639518737793,1.3551181554794312,5.853823184967041,52.3681640625,-12.8021240234375,-11.474609375
2.3612499,-9.313444137573242,1.4293384552001953,5.784391403198242,53.1005859375,-12.176513671875,-10.467529296875
2.3637499,-9.20091724395752,1.4987702369689941,5.729324817657471,53.6346435546875,-11.627197265625,-9.5977783203125
2.3662499,-9.08838939666748,1.556231141090393,5.671864032745361,54.290771484375,-10.711669921875,-8.544921875
2.3687499,-8.959102630615234,1.5897499322891235,5.623979568481445,54.351806640625,-9.765625,-7.4920654296875
2.3712499,-8.832210540771484,1.6041151285171509,5.588066577911377,54.718017578125,-8.9569091796875,-6.3629150390625
2.3737499,-8.702922821044922,1.6041151285171509,5.556941986083984,55.0537109375,-8.4075927734375,-5.4168701171875
2.3762499,-8.578424453735352,1.599326729774475,5.537788391113281,55.389404296875,-8.11767578125,-4.2266845703125
2.3787499,-8.456320762634277,1.5873557329177856,5.52821159362793,55.572509765625,-7.4462890625,-3.0517578125
2.3812499,-8.348581314086914,1.5753847360610962,5.523423194885254,55.6793212890625,-7.049560546875,-2.044677734375
2.3837498999999998,-8.250418663024902,1.558625340461731,5.530605792999268,56.182861328125,-6.866455078125,-0.79345703125
2.3862499,-8.164227485656738,1.5610195398330688,5.52821159362793,56.33544921875,-6.65283203125,0.3509521484375
2.3887499,-8.092401504516602,1.5705963373184204,5.518634796142578,56.4727783203125,-6.53076171875,1.64794921875
2.3912499,-8.030152320861816,1.5897499322891235,5.4875102043151855,56.5185546875,-6.65283203125,3.0517578125
2.3937499,-7.960720539093018,1.6041151285171509,5.442020416259766,56.488037109375,-6.6680908203125,4.5166015625
2.3962499,-7.888894557952881,1.5897499322891235,5.386953830718994,56.610107421875,-7.0648193359375,5.92041015625
2.3987499,-7.795520782470703,1.5514427423477173,5.324704647064209,57.037353515625,-7.1868896484375,7.3089599609375
2.4012499,-7.682993412017822,1.482010841369629,5.262455463409424,57.586669921875,-7.232666015625,8.6517333984375
2.4037498999999998,-7.556100368499756,1.4077905416488647,5.200206279754639,58.53271484375,-7.354736328125,10.07080078125
2.4062499,-7.419631004333496,1.3407529592514038,5.140350818634033,59.5550537109375,-7.7056884765625,11.383056640625
2.4087499,-7.29034423828125,1.2952631711959839,5.080495834350586,60.36376953125,-7.659912109375,12.6190185546875
2.4112499,-7.1706342697143555,1.2737152576446533,5.018246650695801,61.82861328125,-7.7056884765625,14.0533447265625
2.4137499,-7.074865818023682,1.259350061416626,4.955997467041016,62.8814697265625,-7.781982421875,15.3656005859375
2.4162499,-6.995857238769531,1.2401964664459229,4.884171485900879,64.39208984375,-7.9803466796875,16.7236328125
2.4187499,-6.94079065322876,1.1994950771331787,4.812345504760742,66.314697265625,-8.1787109375,17.974853515625
2.4212499,-6.890512466430664,1.1420341730117798,4.73573112487793,68.267822265625,-8.48388671875,19.134521484375
2.4237499,-6.845022678375244,1.0606313943862915,4.663905143737793,70.709228515625,-8.6822509765625,20.233154296875
2.4262499,-6.794744491577148,0.9648633003234863,4.592078685760498,73.7457275390625,-9.09423828125,21.270751953125
2.4287499,-6.732495307922363,0.8595184087753296,4.534617900848389,76.6754150390625,-9.4146728515625,22.2015380859375
2.4312499,-6.66785192489624,0.7565677165985107,4.481945514678955,79.7119140625,-9.796142578125,22.8424072265625
2.4337499,-6.603208065032959,0.6631938815116882,4.436455726623535,83.1146240234375,-10.467529296875,23.6053466796875
2.4362499,-6.54574728012085,0.586579442024231,4.393360137939453,86.8682861328125,-11.23046875,24.3377685546875
2.4387499,-6.50025749206543,0.5219359993934631,4.355052947998047,90.39306640625,-12.054443359375,25.299072265625
2.4412499,-6.476315498352051,0.47405192255973816,4.321534156799316,94.451904296875,-13.1988525390625,26.2298583984375
2.4437499,-6.461950302124023,0.43095630407333374,4.290409564971924,98.2513427734375,-14.2364501953125,26.9622802734375
2.4462498999999998,-6.45476770401001,0.3998316824436188,4.252102375030518,102.203369140625,-15.350341796875,27.4505615234375
2.4487499,-6.447585105895996,0.37828385829925537,4.201824188232422,106.2164306640625,-16.41845703125,28.350830078125
2.4512499,-6.423643112182617,0.37828385829925537,4.1395745277404785,110.3057861328125,-17.852783203125,29.022216796875
2.4537499,-6.3973069190979,0.3902548849582672,4.065354347229004,113.76953125,-19.1192626953125,29.8004150390625
2.4562499,-6.356605529785156,0.4141969084739685,3.9839515686035156,117.2332763671875,-20.44677734375,30.9600830078125
2.4587499,-6.320692539215088,0.44532153010368347,3.892971992492676,120.5902099609375,-21.942138671875,31.7230224609375
2.4612499,-6.2847795486450195,0.47165772318840027,3.8115692138671875,123.7030029296875,-23.101806640625,32.5164794921875
2.4637499,-6.248866558074951,0.49559974670410156,3.734954595565796,126.983642578125,-24.627685546875,33.4014892578125
2.4662498999999998,-6.212953567504883,0.5171475410461426,3.6846764087677,129.7454833984375,-25.9857177734375,34.393310546875
2.4687499,-6.167463779449463,0.5386953949928284,3.6511576175689697,132.2479248046875,-27.4200439453125,35.3546142578125
2.4712499,-6.114790916442871,0.5770025849342346,3.6367924213409424,134.27734375,-28.9459228515625,36.56005859375
2.4737499,-6.054935932159424,0.6440402865409851,3.624821424484253,135.894775390625,-30.364990234375,37.65869140625
2.4762499,-5.990292549133301,0.7469909191131592,3.6176388263702393,137.14599609375,-31.9366455078125,39.093017578125
2.4787499,-5.928043365478516,0.8858546018600464,3.6152446269989014,137.4664306640625,-33.0657958984375,40.34423828125
2.4812499,-5.875370979309082,1.0534487962722778,3.603273630142212,137.3748779296875,-34.5916748046875,41.9464111328125
2.4837499,-5.829881191253662,1.2282254695892334,3.5889084339141846,137.0086669921875,-36.2091064453125,43.7774658203125
2.4862499,-5.784391403198242,1.3934253454208374,3.5649664402008057,136.4288330078125,-37.78076171875,45.71533203125
2.4887499,-5.738901615142822,1.534683346748352,3.536235809326172,135.4522705078125,-38.9251708984375,47.3785400390625
2.4912499,-5.676652431488037,1.6400281190872192,3.5194764137268066,133.7127685546875,-39.8712158203125,49.3011474609375
2.4937499,-5.60722017288208,1.7118542194366455,3.5242648124694824,132.293701171875,-41.107177734375,51.666259765625
2.4962499,-5.43723201751709,1.7884687185287476,3.620033025741577,127.8076171875,-42.7703857421875,55.2825927734375
2.4987499,-5.43723201751709,1.7884687185287476,3.620033025741577,127.8076171875,-42.7703857421875,55.2825927734375
2.5012499,-5.279214859008789,1.8291701078414917,3.804386615753174,122.467041015625,-44.37255859375,59.295654296875
2.5037499,-5.279214859008789,1.8291701078414917,3.804386615753174,122.467041015625,-44.37255859375,59.295654296875
2.5062499,-5.216965675354004,1.8746598958969116,4.01268196105957,116.363525390625,-46.08154296875,63.0340576171875
2.5087498999999998,-5.216965675354004,1.8746598958969116,4.01268196105957,116.363525390625,-46.08154296875,63.0340576171875
2.5112499,-5.274426460266113,1.9512743949890137,4.211400985717773,109.9853515625,-48.1109619140625,66.71142578125
2.5137499,-5.274426460266113,1.9512743949890137,4.211400985717773,109.9853515625,-48.1109619140625,66.71142578125
2.5162499,-5.355829238891602,2.0159177780151367,4.400542736053467,103.0120849609375,-49.9114990234375,70.1446533203125
2.5187499,-5.355829238891602,2.0159177780151367,4.400542736053467,103.0120849609375,-49.9114990234375,70.1446533203125
2.5212499,-5.341464042663574,1.9704279899597168,4.570530891418457,96.0693359375,-51.727294921875,73.3184814453125
2.5237499,-5.341464042663574,1.9704279899597168,4.570530891418457,96.0693359375,-51.727294921875,73.3184814453125
2.5262499,-5.243301868438721,1.8171991109848022,4.704606533050537,89.385986328125,-53.192138671875,75.531005859375
2.5287498999999998,-5.243301868438721,1.8171991109848022,4.704606533050537,89.385986328125,-53.192138671875,75.531005859375
2.5312499,-5.169081687927246,1.623268723487854,4.8051629066467285,84.259033203125,-54.99267578125,77.1331787109375
2.5337499,-5.169081687927246,1.623268723487854,4.8051629066467285,84.259033203125,-54.99267578125,77.1331787109375
2.5362499,-5.185841083526611,1.4437036514282227,4.886565685272217,80.780029296875,-56.9000244140625,77.9571533203125
2.5387499,-5.185841083526611,1.4437036514282227,4.886565685272217,80.780029296875,-56.9000244140625,77.9571533203125
2.5412499,-5.264849662780762,1.3239935636520386,4.941632270812988,78.2012939453125,-58.837890625,78.5369873046875
2.5437499,-5.264849662780762,1.3239935636520386,4.941632270812988,78.2012939453125,-58.837890625,78.5369873046875
2.5462499,-5.324704647064209,1.2545616626739502,4.95120906829834,76.9805908203125,-60.943603515625,78.155517578125
2.5487499,-5.324704647064209,1.2545616626739502,4.95120906829834,76.9805908203125,-60.943603515625,78.155517578125
2.5512499,-5.303156852722168,1.2186486721038818,4.90571928024292,76.7059326171875,-63.323974609375,77.4688720703125
2.5537499,-5.303156852722168,1.2186486721038818,4.90571928024292,76.7059326171875,-63.323974609375,77.4688720703125
2.5562499,-5.2265424728393555,1.2210428714752197,4.838681697845459,76.8890380859375,-65.1702880859375,76.0040283203125
2.5587499,-5.2265424728393555,1.2210428714752197,4.838681697845459,76.8890380859375,-65.1702880859375,76.0040283203125
2.5612499,-5.171475887298584,1.2880805730819702,4.809951305389404,77.3468017578125,-67.4285888671875,74.3865966796875
2.5637499,-5.171475887298584,1.2880805730819702,4.809951305389404,77.3468017578125,-67.4285888671875,74.3865966796875
