# Time (seconds),Accel_X,Accel_Y,Accel_Z,Gyro_X,Gyro_Y,Gyro_Z
0.0012499,-8.638279914855957,-3.2417490482330322,3.5218706130981445,-0.0762939453125,1.1444091796875,-3.448486328125
0.0037499,-8.650250434875488,-3.2848446369171143,3.4979286193847656,-0.244140625,1.1444091796875,-3.265380859375
0.0062499,-8.662221908569336,-3.315969467163086,3.4739866256713867,0.030517578125,1.251220703125,-3.35693359375
0.0087499,-8.669404029846191,-3.337517261505127,3.4404678344726562,0.091552734375,1.15966796875,-3.3721923828125
0.0112499,-8.669404029846191,-3.359065055847168,3.4117374420166016,0.2899169921875,1.0833740234375,-3.3416748046875
0.0137499,-8.65982723236084,-3.380612850189209,3.3734302520751953,0.0152587890625,1.3885498046875,-3.6468505859375
0.016249899999999998,-8.645462036132812,-3.4141316413879395,3.339911460876465,0.1373291015625,1.40380859375,-3.47900390625
0.0187499,-8.633491516113281,-3.4548330307006836,3.308786630630493,0.4425048828125,1.3580322265625,-3.265380859375
0.021249900000000002,-8.621520042419434,-3.49314022064209,3.2800562381744385,0.6256103515625,1.556396484375,-3.2958984375
0.023749899999999997,-8.609549522399902,-3.5386300086975098,3.251325845718384,0.48828125,1.922607421875,-3.2501220703125
0.0262499,-8.60236644744873,-3.5649664402008057,3.2321722507476807,0.762939453125,2.105712890625,-3.2806396484375
0.028749900000000002,-8.588001251220703,-3.5913026332855225,3.2154128551483154,0.9307861328125,1.708984375,-3.204345703125
0.031249899999999997,-8.580819129943848,-3.60566782951355,3.2130186557769775,0.762939453125,1.89208984375,-2.9296875
0.0337499,-8.576030731201172,-3.6176388263702393,3.2178070545196533,1.0833740234375,2.1514892578125,-3.0059814453125
0.0362499,-8.580819129943848,-3.624821424484253,3.224989652633667,1.28173828125,2.1209716796875,-2.899169921875
0.0387499,-8.588001251220703,-3.627215623855591,3.2297780513763428,1.64794921875,2.0599365234375,-2.62451171875
0.0412499,-8.60236644744873,-3.6367924213409424,3.2297780513763428,1.800537109375,2.1209716796875,-2.86865234375
0.0437499,-8.616731643676758,-3.6391866207122803,3.2321722507476807,1.89208984375,2.349853515625,-2.7618408203125
0.0462499,-8.62630844116211,-3.6511576175689697,3.2369606494903564,1.8310546875,2.4261474609375,-2.593994140625
0.0487499,-8.633491516113281,-3.6511576175689697,3.24414324760437,2.288818359375,2.25830078125,-2.62451171875
0.0512499,-8.631096839904785,-3.641580820083618,3.251325845718384,2.471923828125,2.197265625,-2.4871826171875
0.053749899999999996,-8.628703117370605,-3.6176388263702393,3.2585084438323975,2.5177001953125,2.3651123046875,-2.3956298828125
0.0562499,-8.62391471862793,-3.5865142345428467,3.2609026432037354,2.3956298828125,2.593994140625,-2.3345947265625
0.0587499,-8.621520042419434,-3.552995204925537,3.2609026432037354,2.4261474609375,2.7618408203125,-2.227783203125
0.061249899999999996,-8.621520042419434,-3.5242648124694824,3.2632968425750732,2.44140625,2.716064453125,-2.0599365234375
0.0637499,-8.631096839904785,-3.5003228187561035,3.2752678394317627,2.5177001953125,2.62451171875,-1.89208984375
0.0662499,-8.635885238647461,-3.4811692237854004,3.2992098331451416,2.4566650390625,2.716064453125,-1.89208984375
0.0687499,-8.647856712341309,-3.466804027557373,3.3207578659057617,2.410888671875,2.6092529296875,-2.0751953125
0.0712499,-8.655038833618164,-3.4548330307006836,3.3423056602478027,2.5634765625,2.716064453125,-2.0751953125
0.0737499,-8.664615631103516,-3.445256233215332,3.354276657104492,2.6092529296875,2.6397705078125,-1.861572265625
0.0762499,-8.674192428588867,-3.4404678344726562,3.359065055847168,2.410888671875,2.5787353515625,-1.800537109375
0.0787499,-8.688557624816895,-3.4404678344726562,3.3638534545898438,2.3193359375,2.50244140625,-1.8157958984375
0.0812499,-8.700529098510742,-3.4380736351013184,3.3686418533325195,2.410888671875,2.5787353515625,-1.89208984375
0.0837499,-8.712499618530273,-3.4356794357299805,3.3734302520751953,2.105712890625,2.62451171875,-1.9683837890625
0.0862499,-8.719682693481445,-3.426102638244629,3.3854012489318848,2.0599365234375,2.288818359375,-1.52587890625
0.0887499,-8.7268648147583,-3.4189200401306152,3.3949780464172363,2.0294189453125,2.3345947265625,-1.3427734375
0.0912499,-8.7268648147583,-3.4117374420166016,3.404554843902588,1.52587890625,2.3956298828125,-1.8157958984375
0.0937499,-8.722076416015625,-3.4165258407592773,3.404554843902588,1.4190673828125,2.5787353515625,-1.861572265625
0.0962499,-8.71489429473877,-3.4380736351013184,3.40216064453125,1.5716552734375,2.655029296875,-1.434326171875
0.0987499,-8.707711219787598,-3.469198226928711,3.3925838470458984,1.4495849609375,2.7923583984375,-1.3275146484375
0.1012499,-8.705317497253418,-3.509899616241455,3.383007049560547,1.40380859375,2.6702880859375,-1.28173828125
0.1037499,-8.712499618530273,-3.5458126068115234,3.383007049560547,1.3885498046875,2.74658203125,-1.1138916015625
0.1062499,-8.724471092224121,-3.5745432376861572,3.380612850189209,1.28173828125,2.899169921875,-0.9765625
0.1087499,-8.738836288452148,-3.603273630142212,3.383007049560547,1.52587890625,2.62451171875,-0.8392333984375
0.1112499,-8.743624687194824,-3.624821424484253,3.383007049560547,1.5411376953125,2.8076171875,-0.79345703125
0.1137499,-8.743624687194824,-3.6535518169403076,3.375824451446533,1.678466796875,3.0059814453125,-0.823974609375
0.1162499,-8.738836288452148,-3.6727054119110107,3.3686418533325195,2.13623046875,2.9449462890625,-0.7476806640625
0.1187499,-8.736441612243652,-3.687070608139038,3.3662476539611816,2.227783203125,3.143310546875,-0.54931640625
0.1212499,-8.738836288452148,-3.6774938106536865,3.3710360527038574,2.6092529296875,3.11279296875,-0.1983642578125
0.1237499,-8.738836288452148,-3.648763418197632,3.383007049560547,2.7008056640625,3.0517578125,-0.1983642578125
0.1262499,-8.738836288452148,-3.603273630142212,3.399766445159912,2.593994140625,3.4027099609375,-0.030517578125
0.1287499,-8.734047889709473,-3.5458126068115234,3.421314239501953,2.5787353515625,3.1585693359375,-0.1983642578125
0.1312499,-8.729259490966797,-3.49314022064209,3.4404678344726562,2.471923828125,2.899169921875,-0.1678466796875
0.1337499,-8.719682693481445,-3.4572272300720215,3.44765043258667,2.44140625,3.0517578125,-0.18310546875
0.1362499,-8.710105895996094,-3.428496837615967,3.4524388313293457,2.6397705078125,3.1890869140625,0.1373291015625
0.1387499,-8.710105895996094,-3.428496837615967,3.4524388313293457,2.6397705078125,3.1890869140625,0.1373291015625
0.1412499,-8.698134422302246,-3.4165258407592773,3.4380736351013184,2.25830078125,3.0975341796875,0.335693359375
0.1437499,-8.698134422302246,-3.4165258407592773,3.4380736351013184,2.25830078125,3.0975341796875,0.335693359375
0.1462499,-8.69095230102539,-3.378218650817871,3.4356794357299805,2.166748046875,3.1585693359375,0.3204345703125
0.1487499,-8.69095230102539,-3.378218650817871,3.4356794357299805,2.166748046875,3.1585693359375,0.3204345703125
0.1512499,-8.710105895996094,-3.354276657104492,3.466804027557373,1.495361328125,3.0059814453125,0.335693359375
0.1537499,-8.710105895996094,-3.354276657104492,3.466804027557373,1.495361328125,3.0059814453125,0.335693359375
0.1562499,-8.736441612243652,-3.380612850189209,3.509899616241455,1.739501953125,2.532958984375,0.42724609375
0.1587499,-8.736441612243652,-3.380612850189209,3.509899616241455,1.739501953125,2.532958984375,0.42724609375
0.1612499,-8.75080680847168,-3.404554843902588,3.5218706130981445,1.7547607421875,2.74658203125,0.42724609375
0.1637499,-8.75080680847168,-3.404554843902588,3.5218706130981445,1.7547607421875,2.74658203125,0.42724609375
0.1662499,-8.743624687194824,-3.3925838470458984,3.4835634231567383,1.4190673828125,2.5787353515625,0.48828125
0.1687499,-8.743624687194824,-3.3925838470458984,3.4835634231567383,1.4190673828125,2.5787353515625,0.48828125
0.1712499,-8.724471092224121,-3.3470940589904785,3.4117374420166016,1.1138916015625,2.899169921875,0.396728515625
0.1737499,-8.724471092224121,-3.3470940589904785,3.4117374420166016,1.1138916015625,2.899169921875,0.396728515625
0.17624990000000001,-8.707711219787598,-3.3039982318878174,3.3423056602478027,0.6866455078125,2.62451171875,0.6103515625
0.1787499,-8.707711219787598,-3.3039982318878174,3.3423056602478027,0.6866455078125,2.62451171875,0.6103515625
0.1812499,-8.71489429473877,-3.3039982318878174,3.315969467163086,0.5950927734375,2.5634765625,0.701904296875
0.1837499,-8.71489429473877,-3.3039982318878174,3.315969467163086,0.5950927734375,2.5634765625,0.701904296875
0.1862499,-8.734047889709473,-3.3303346633911133,3.315969467163086,0.4119873046875,2.3040771484375,0.701904296875
0.1887499,-8.734047889709473,-3.3303346633911133,3.315969467163086,0.4119873046875,2.3040771484375,0.701904296875
0.1912499,-8.755595207214355,-3.354276657104492,3.3063924312591553,0.5645751953125,2.3956298828125,0.518798828125
0.1937499,-8.755595207214355,-3.354276657104492,3.3063924312591553,0.5645751953125,2.3956298828125,0.518798828125
0.1962499,-8.777143478393555,-3.3686418533325195,3.2800562381744385,0.42724609375,1.9683837890625,0.732421875
0.1987499,-8.777143478393555,-3.3686418533325195,3.2800562381744385,0.42724609375,1.9683837890625,0.732421875
0.2012499,-8.801085472106934,-3.3925838470458984,3.2561142444610596,0.42724609375,2.0751953125,0.701904296875
0.2037499,-8.801085472106934,-3.3925838470458984,3.2561142444610596,0.42724609375,2.0751953125,0.701904296875
0.2062499,-8.829815864562988,-3.421314239501953,3.2632968425750732,0.335693359375,1.953125,0.79345703125
0.20874990000000002,-8.829815864562988,-3.421314239501953,3.2632968425750732,0.335693359375,1.953125,0.79345703125
0.2112499,-8.844181060791016,-3.450044631958008,3.294421434402466,0.48828125,1.7547607421875,0.518798828125
0.2137499,-8.844181060791016,-3.450044631958008,3.294421434402466,0.48828125,1.7547607421875,0.518798828125
0.2162499,-8.856152534484863,-3.464409828186035,3.318363666534424,0.7476806640625,1.5716552734375,0.6866455078125
0.2187499,-8.856152534484863,-3.464409828186035,3.318363666534424,0.7476806640625,1.5716552734375,0.6866455078125
0.2212499,-8.868123054504395,-3.44765043258667,3.3207578659057617,0.732421875,1.3580322265625,0.79345703125
0.2237499,-8.868123054504395,-3.44765043258667,3.3207578659057617,0.732421875,1.3580322265625,0.79345703125
0.2262499,-8.856152534484863,-3.399766445159912,3.294421434402466,0.640869140625,1.3580322265625,0.823974609375
0.2287499,-8.856152534484863,-3.399766445159912,3.294421434402466,0.640869140625,1.3580322265625,0.823974609375
0.2312499,-8.848969459533691,-3.3686418533325195,3.268085241317749,0.2288818359375,1.190185546875,0.9307861328125
0.2337499,-8.848969459533691,-3.3686418533325195,3.268085241317749,0.2288818359375,1.190185546875,0.9307861328125
0.2362499,-8.858546257019043,-3.380612850189209,3.2561142444610596,0.6866455078125,1.1749267578125,1.0223388671875
0.23874990000000001,-8.858546257019043,-3.380612850189209,3.2561142444610596,0.6866455078125,1.1749267578125,1.0223388671875
0.2412499,-8.851364135742188,-3.397372245788574,3.2537200450897217,0.7781982421875,0.885009765625,1.220703125
0.2437499,-8.851364135742188,-3.397372245788574,3.2537200450897217,0.7781982421875,0.885009765625,1.220703125
0.2462499,-8.822632789611816,-3.375824451446533,3.248931646347046,1.1138916015625,0.823974609375,1.0223388671875
0.2487499,-8.801085472106934,-3.3470940589904785,3.2393548488616943,1.0528564453125,0.946044921875,1.03759765625
0.2512499,-8.789113998413086,-3.3063924312591553,3.2297780513763428,0.8544921875,0.823974609375,0.9613037109375
0.25374990000000003,-8.769960403442383,-3.268085241317749,3.2154128551483154,1.0223388671875,0.579833984375,0.79345703125
0.25624990000000003,-8.762778282165527,-3.2321722507476807,3.2082302570343018,1.03759765625,0.4119873046875,0.885009765625
0.25874990000000003,-8.757989883422852,-3.2130186557769775,3.1914708614349365,0.946044921875,0.3509521484375,0.823974609375
0.26124990000000003,-8.757989883422852,-3.203441858291626,3.1890766620635986,0.9307861328125,0.3509521484375,0.6103515625
0.26374990000000004,-8.753201484680176,-3.201047658920288,3.179499864578247,0.946044921875,0.4119873046875,0.701904296875
0.26624990000000004,-8.753201484680176,-3.2130186557769775,3.179499864578247,0.8392333984375,0.1983642578125,0.7171630859375
0.26874990000000004,-8.746018409729004,-3.222595453262329,3.179499864578247,0.91552734375,0.1220703125,0.3814697265625
0.27124990000000004,-8.734047889709473,-3.2417490482330322,3.179499864578247,0.732421875,0.1373291015625,0.2593994140625
0.27374990000000005,-8.724471092224121,-3.2585084438323975,3.1723172664642334,0.762939453125,0.091552734375,0.213623046875
0.27624990000000005,-8.71489429473877,-3.2752678394317627,3.1675288677215576,0.946044921875,-0.06103515625,0.1678466796875
0.27874990000000005,-8.702922821044922,-3.287238836288452,3.157952070236206,1.1444091796875,0.030517578125,0.152587890625
0.28124990000000005,-8.695740699768066,-3.3016040325164795,3.1507694721221924,1.15966796875,0.1068115234375,0.1373291015625
0.28374990000000005,-8.686163902282715,-3.308786630630493,3.141192674636841,1.1749267578125,0.2593994140625,-0.1983642578125
0.28624990000000006,-8.676587104797363,-3.318363666534424,3.141192674636841,1.3580322265625,0.1373291015625,-0.0152587890625
0.28874990000000006,-8.671798706054688,-3.3207578659057617,3.1435868740081787,1.495361328125,0.0457763671875,-0.2288818359375
0.2912499,-8.671798706054688,-3.315969467163086,3.160346269607544,1.556396484375,0.1373291015625,-0.091552734375
0.2937499,-8.686163902282715,-3.31118106842041,3.1866824626922607,1.495361328125,0.213623046875,-0.335693359375
0.2962499,-8.705317497253418,-3.3039982318878174,3.220201253890991,1.5716552734375,-0.0762939453125,-0.4425048828125
0.2987499,-8.729259490966797,-3.313575267791748,3.24414324760437,1.6021728515625,-0.1678466796875,-0.30517578125
0.3012499,-8.755595207214355,-3.3279404640197754,3.265691041946411,1.708984375,-0.274658203125,-0.3814697265625
0.3037499,-8.772355079650879,-3.354276657104492,3.270479440689087,1.708984375,-0.18310546875,-0.4119873046875
0.3062499,-8.78432559967041,-3.375824451446533,3.272873640060425,1.8463134765625,-0.1068115234375,-0.579833984375
0.3087499,-8.789113998413086,-3.3877954483032227,3.268085241317749,1.8310546875,-0.2899169921875,-0.5035400390625
0.3112499,-8.796297073364258,-3.3854012489318848,3.2609026432037354,1.7852783203125,-0.518798828125,-0.48828125
0.3137499,-8.801085472106934,-3.375824451446533,3.2585084438323975,1.6632080078125,-0.3509521484375,-0.3662109375
0.31624990000000003,-8.808267593383789,-3.359065055847168,3.2561142444610596,1.40380859375,-0.3814697265625,-0.4730224609375
0.31874990000000003,-8.813055992126465,-3.3470940589904785,3.2537200450897217,1.2969970703125,-0.5035400390625,-0.5340576171875
0.32124990000000003,-8.813055992126465,-3.335123062133789,3.2537200450897217,1.0223388671875,-0.6103515625,-0.4730224609375
0.32374990000000003,-8.808267593383789,-3.335123062133789,3.246537446975708,0.8544921875,-0.8544921875,-0.3662109375
0.32624990000000004,-8.803479194641113,-3.339911460876465,3.24414324760437,0.885009765625,-0.67138671875,-0.1373291015625
0.32874990000000004,-8.801085472106934,-3.3638534545898438,3.2393548488616943,0.8544921875,-0.7781982421875,-0.396728515625
0.33124990000000004,-8.810662269592285,-3.406949043273926,3.246537446975708,1.3275146484375,-1.0833740234375,-0.579833984375
0.33374990000000004,-8.827422142028809,-3.4620156288146973,3.248931646347046,1.52587890625,-0.91552734375,-0.6103515625
0.33624990000000005,-8.841787338256836,-3.514688014984131,3.246537446975708,1.77001953125,-0.9765625,-0.5340576171875
0.33874990000000005,-8.851364135742188,-3.550601005554199,3.2369606494903564,2.1514892578125,-1.2664794921875,-0.5035400390625
0.34124990000000005,-8.848969459533691,-3.5482068061828613,3.220201253890991,2.38037109375,-1.251220703125,-0.335693359375
0.34374990000000005,-8.832210540771484,-3.5194764137268066,3.201047658920288,2.1820068359375,-1.312255859375,-0.2288818359375
0.34624990000000005,-8.803479194641113,-3.469198226928711,3.184288263320923,1.9378662109375,-1.0833740234375,-0.1678466796875
0.34874990000000006,-8.769960403442383,-3.4117374420166016,3.162740468978882,1.7547607421875,-1.1444091796875,-0.3662109375
0.35124990000000006,-8.738836288452148,-3.361459255218506,3.1507694721221924,1.7852783203125,-1.0833740234375,-0.3662109375
0.3537499,-8.712499618530273,-3.332728862762451,3.141192674636841,1.8768310546875,-1.0833740234375,-0.396728515625
0.3562499,-8.700529098510742,-3.318363666534424,3.1531636714935303,2.1209716796875,-1.2969970703125,-0.0762939453125
0.3587499,-8.695740699768066,-3.3231520652770996,3.1747114658355713,1.953125,-1.190185546875,-0.3814697265625
0.3612499,-8.698134422302246,-3.337517261505127,3.2082302570343018,1.800537109375,-0.9002685546875,-0.4730224609375
0.3637499,-8.69095230102539,-3.3494882583618164,3.246537446975708,2.3193359375,-1.2054443359375,-0.3814697265625
0.3662499,-8.678980827331543,-3.359065055847168,3.287238836288452,2.7618408203125,-1.0528564453125,-0.640869140625
0.3687499,-8.645462036132812,-3.3446998596191406,3.318363666534424,3.0059814453125,-0.946044921875,-0.7781982421875
0.3712499,-8.611943244934082,-3.3207578659057617,3.3470940589904785,3.11279296875,-0.8087158203125,-0.6561279296875
0.3737499,-8.576030731201172,-3.270479440689087,3.3710360527038574,3.1585693359375,-0.8087158203125,-0.732421875
0.3762499,-8.552088737487793,-3.2130186557769775,3.3949780464172363,3.35693359375,-0.732421875,-0.9307861328125
0.37874990000000003,-8.53532886505127,-3.1531636714935303,3.4189200401306152,3.3721923828125,-0.5950927734375,-0.8087158203125
0.38124990000000003,-8.525752067565918,-3.098097085952759,3.4404678344726562,3.265380859375,-0.518798828125,-1.220703125
0.38374990000000003,-8.516175270080566,-3.0526070594787598,3.469198226928711,2.9754638671875,-0.5035400390625,-1.434326171875
0.38624990000000003,-8.51138687133789,-3.021482467651367,3.4979286193847656,2.838134765625,-0.3662109375,-1.6021728515625
0.38874990000000004,-8.508993148803711,-3.004723072052002,3.5410242080688477,2.716064453125,-0.5950927734375,-1.6632080078125
0.39124990000000004,-8.513781547546387,-2.999934673309326,3.5936968326568604,2.4871826171875,-0.5950927734375,-1.9989013671875
0.39374990000000004,-8.528146743774414,-3.004723072052002,3.6535518169403076,2.1820068359375,-0.5645751953125,-1.983642578125
0.39624990000000004,-8.547300338745117,-3.0119056701660156,3.713406801223755,2.01416015625,-0.67138671875,-2.2735595703125
0.39874990000000005,-8.56884765625,-3.028665065765381,3.7636849880218506,1.922607421875,-0.6866455078125,-2.5177001953125
0.40124990000000005,-8.592789649963379,-3.047818660736084,3.794809579849243,1.9378662109375,-0.6561279296875,-2.716064453125
0.40374990000000005,-8.611943244934082,-3.071760892868042,3.8163576126098633,1.7852783203125,-0.9307861328125,-2.5482177734375
0.40624990000000005,-8.631096839904785,-3.0861260890960693,3.8091750144958496,1.64794921875,-1.2359619140625,-2.44140625
0.40874990000000005,-8.635885238647461,-3.0885202884674072,3.7900211811065674,1.556396484375,-1.0986328125,-2.532958984375
0.41124990000000006,-8.633491516113281,-3.0813376903533936,3.754108190536499,1.0528564453125,-1.1749267578125,-2.6702880859375
0.41374990000000006,-8.62630844116211,-3.07415509223938,3.7229835987091064,0.4730224609375,-1.1444091796875,-2.74658203125
0.41624990000000006,-8.621520042419434,-3.0813376903533936,3.691859006881714,0.06103515625,-0.9918212890625,-3.1585693359375
0.4187499,-8.628703117370605,-3.1028854846954346,3.6750996112823486,0.1068115234375,-1.0833740234375,-3.2958984375
0.4212499,-8.643068313598633,-3.141192674636841,3.6607344150543213,0.0762939453125,-1.2054443359375,-3.082275390625
0.4237499,-8.671798706054688,-3.1914708614349365,3.646369218826294,-0.0152587890625,-1.3580322265625,-3.3416748046875
0.4262499,-8.698134422302246,-3.248931646347046,3.620033025741577,0,-1.5869140625,-3.2958984375
0.4287499,-8.7268648147583,-3.308786630630493,3.5960910320281982,-0.152587890625,-1.6326904296875,-3.35693359375
0.4312499,-8.746018409729004,-3.3662476539611816,3.550601005554199,-0.0762939453125,-1.5411376953125,-3.4637451171875
0.4337499,-8.757989883422852,-3.4141316413879395,3.5027170181274414,0.1373291015625,-1.5716552734375,-3.35693359375
0.4362499,-8.765172004699707,-3.44765043258667,3.445256233215332,-0.0762939453125,-1.5869140625,-3.2958984375
0.4387499,-8.769960403442383,-3.4620156288146973,3.383007049560547,-0.0152587890625,-1.800537109375,-3.204345703125
0.44124990000000003,-8.765172004699707,-3.4739866256713867,3.3279404640197754,-0.5035400390625,-1.8463134765625,-3.0364990234375
0.44374990000000003,-8.762778282165527,-3.4835634231567383,3.2824504375457764,-0.6561279296875,-1.861572265625,-3.0517578125
0.44624990000000003,-8.760383605957031,-3.509899616241455,3.2537200450897217,-0.8087158203125,-1.8463134765625,-3.0670166015625
0.44874990000000003,-8.755595207214355,-3.550601005554199,3.227383852005005,-0.6103515625,-1.800537109375,-2.8839111328125
0.45124990000000004,-8.760383605957031,-3.598485231399536,3.2178070545196533,-0.457763671875,-2.01416015625,-2.6702880859375
0.45374990000000004,-8.769960403442383,-3.6535518169403076,3.1938650608062744,-0.18310546875,-2.105712890625,-2.50244140625
0.45624990000000004,-8.779537200927734,-3.7038300037384033,3.179499864578247,0,-2.197265625,-2.4566650390625
0.45874990000000004,-8.801085472106934,-3.734954595565796,3.157952070236206,0.244140625,-2.2125244140625,-2.3345947265625
0.46124990000000005,-8.81784439086914,-3.754108190536499,3.134010076522827,0.396728515625,-2.1514892578125,-2.197265625
0.46374990000000005,-8.827422142028809,-3.754108190536499,3.1076738834381104,0.701904296875,-2.5787353515625,-1.8768310546875
0.46624990000000005,-8.815450668334961,-3.7397429943084717,3.0789434909820557,0.823974609375,-2.593994140625,-1.739501953125
0.46874990000000005,-8.779537200927734,-3.7181951999664307,3.0573954582214355,0.5950927734375,-2.38037109375,-1.5411376953125
0.47124990000000005,-8.729259490966797,-3.7014358043670654,3.047818660736084,0.54931640625,-2.5634765625,-1.3275146484375
0.47374990000000006,-8.681375503540039,-3.691859006881714,3.047818660736084,0.1983642578125,-2.593994140625,-1.6021728515625
0.47624990000000006,-8.643068313598633,-3.6942532062530518,3.064578056335449,0.2899169921875,-2.3040771484375,-1.2359619140625
0.47874990000000006,-8.62391471862793,-3.708618402481079,3.0837318897247314,0.6103515625,-2.197265625,-0.9918212890625
0.4812499,-8.621520042419434,-3.7277719974517822,3.1100680828094482,0.823974609375,-2.1209716796875,-0.823974609375
0.4837499,-8.621520042419434,-3.7445313930511475,3.134010076522827,1.0833740234375,-2.0751953125,-0.732421875
0.4862499,-8.621520042419434,-3.758896589279175,3.160346269607544,1.3427734375,-2.01416015625,-0.54931640625
0.4887499,-8.614337921142578,-3.7636849880218506,3.179499864578247,1.6632080078125,-1.9989013671875,-0.3509521484375
0.4912499,-8.604761123657227,-3.754108190536499,3.1938650608062744,1.9378662109375,-1.8157958984375,-0.1220703125
0.4937499,-8.588001251220703,-3.7397429943084717,3.2082302570343018,2.0904541015625,-1.6937255859375,-0.0152587890625
0.4962499,-8.580819129943848,-3.713406801223755,3.227383852005005,2.4261474609375,-1.983642578125,-0.0152587890625
0.4987499,-8.571242332458496,-3.689464807510376,3.2585084438323975,2.62451171875,-1.9683837890625,0.152587890625
0.5012499,-8.56645393371582,-3.6607344150543213,3.2992098331451416,2.5482177734375,-1.6937255859375,0.0762939453125
0.5037499000000001,-8.56884765625,-3.6296098232269287,3.3470940589904785,2.655029296875,-1.861572265625,0.152587890625
0.5062499,-8.56884765625,-3.598485231399536,3.3949780464172363,2.9144287109375,-1.8463134765625,0.274658203125
0.5087499000000001,-8.56884765625,-3.5649664402008057,3.4356794357299805,2.8228759765625,-1.617431640625,0.579833984375
0.5112499,-8.56645393371582,-3.531447410583496,3.471592426300049,2.899169921875,-1.6632080078125,0.6103515625
0.5137499,-8.56645393371582,-3.4979286193847656,3.5027170181274414,2.74658203125,-1.8157958984375,0.5645751953125
0.5162499,-8.561665534973145,-3.464409828186035,3.531447410583496,2.6397705078125,-1.556396484375,0.823974609375
0.5187499,-8.56884765625,-3.4404678344726562,3.5673606395721436,2.4871826171875,-1.5106201171875,0.823974609375
0.5212499,-8.580819129943848,-3.4165258407592773,3.600879430770874,2.1209716796875,-1.7547607421875,0.9613037109375
0.5237499,-8.597578048706055,-3.399766445159912,3.6367924213409424,1.983642578125,-1.6326904296875,0.79345703125
0.5262499,-8.621520042419434,-3.3949780464172363,3.665522813796997,2.0294189453125,-1.800537109375,1.0528564453125
0.5287499,-8.643068313598633,-3.3877954483032227,3.691859006881714,1.9378662109375,-1.7852783203125,0.91552734375
0.5312499,-8.662221908569336,-3.3854012489318848,3.708618402481079,1.5106201171875,-1.8157958984375,0.91552734375
0.5337499,-8.676587104797363,-3.3854012489318848,3.7253777980804443,1.4190673828125,-1.922607421875,0.823974609375
0.5362499000000001,-8.681375503540039,-3.378218650817871,3.732560396194458,1.1749267578125,-1.9073486328125,1.190185546875
0.5387499,-8.686163902282715,-3.3662476539611816,3.7397429943084717,0.7781982421875,-2.01416015625,1.0986328125
0.5412499000000001,-8.683769226074219,-3.3470940589904785,3.7421371936798096,0.48828125,-2.0904541015625,1.129150390625
0.5437499,-8.681375503540039,-3.3279404640197754,3.737348794937134,0.30517578125,-1.9989013671875,1.220703125
0.5462499000000001,-8.676587104797363,-3.308786630630493,3.73016619682312,-0.1678466796875,-2.0751953125,0.9613037109375
0.5487499,-8.676587104797363,-3.308786630630493,3.711012601852417,-0.518798828125,-2.13623046875,1.0223388671875
0.5512499000000001,-8.676587104797363,-3.3231520652770996,3.6846764087677,-0.54931640625,-2.0294189453125,1.007080078125
0.5537499,-8.683769226074219,-3.3470940589904785,3.6583402156829834,-0.640869140625,-2.105712890625,1.2359619140625
0.5562499000000001,-8.69334602355957,-3.3686418533325195,3.624821424484253,-0.3662109375,-2.25830078125,1.2054443359375
0.5587499,-8.700529098510742,-3.378218650817871,3.5865142345428467,-0.3814697265625,-2.25830078125,1.28173828125
0.5612499000000001,-8.698134422302246,-3.3686418533325195,3.5410242080688477,-0.5035400390625,-2.2125244140625,1.434326171875
0.5637499,-8.686163902282715,-3.3494882583618164,3.490746021270752,-0.6103515625,-2.3345947265625,1.373291015625
0.5662499000000001,-8.664615631103516,-3.3255462646484375,3.4332852363586426,-0.9613037109375,-2.1209716796875,1.40380859375
0.5687499,-8.645462036132812,-3.313575267791748,3.3854012489318848,-1.3275146484375,-2.1820068359375,1.4190673828125
0.5712499000000001,-8.62391471862793,-3.318363666534424,3.35667085647583,-1.4495849609375,-2.1209716796875,1.2054443359375
0.5737499,-8.609549522399902,-3.3446998596191406,3.332728862762451,-1.5411376953125,-1.953125,1.190185546875
0.5762499000000001,-8.60236644744873,-3.3925838470458984,3.3231520652770996,-1.0833740234375,-2.166748046875,1.3580322265625
0.5787499,-8.59997272491455,-3.44765043258667,3.313575267791748,-0.701904296875,-1.9378662109375,1.2969970703125
0.5812499,-8.59997272491455,-3.4979286193847656,3.3039982318878174,-0.6561279296875,-1.7852783203125,1.28173828125
0.5837499,-8.60236644744873,-3.531447410583496,3.287238836288452,-0.3662109375,-1.953125,1.312255859375
0.5862499,-8.59997272491455,-3.5434184074401855,3.272873640060425,-0.030517578125,-1.800537109375,1.3885498046875
0.5887499,-8.592789649963379,-3.5266590118408203,3.2609026432037354,0.030517578125,-1.373291015625,1.312255859375
0.5912499,-8.585607528686523,-3.4979286193847656,3.2609026432037354,0.0457763671875,-1.28173828125,1.3275146484375
0.5937499,-8.583212852478027,-3.464409828186035,3.272873640060425,0.06103515625,-1.190185546875,1.3427734375
0.5962499,-8.5903959274292,-3.442862033843994,3.292027235031128,0.244140625,-1.15966796875,1.2969970703125
0.5987499000000001,-8.604761123657227,-3.442862033843994,3.308786630630493,0.396728515625,-0.9918212890625,1.3580322265625
0.6012499,-8.621520042419434,-3.464409828186035,3.318363666534424,0.67138671875,-1.2664794921875,1.28173828125
0.6037499000000001,-8.640673637390137,-3.5027170181274414,3.3231520652770996,0.8697509765625,-1.0833740234375,1.2969970703125
0.6062499,-8.650250434875488,-3.5410242080688477,3.337517261505127,1.1138916015625,-0.8087158203125,1.4495849609375
0.6087499000000001,-8.655038833618164,-3.5697548389434814,3.354276657104492,1.3580322265625,-0.885009765625,1.617431640625
0.6112499,-8.65743350982666,-3.5697548389434814,3.378218650817871,1.739501953125,-0.7171630859375,1.46484375
0.6137499000000001,-8.655038833618164,-3.5458126068115234,3.40216064453125,1.8157958984375,-0.823974609375,1.5106201171875
0.6162499,-8.65743350982666,-3.4955344200134277,3.4189200401306152,1.64794921875,-0.7781982421875,1.5411376953125
0.6187499000000001,-8.662221908569336,-3.4404678344726562,3.4308910369873047,1.5716552734375,-0.640869140625,1.5106201171875
0.6212499,-8.671798706054688,-3.3877954483032227,3.4332852363586426,1.4495849609375,-0.4730224609375,1.617431640625
0.6237499000000001,-8.678980827331543,-3.3494882583618164,3.426102638244629,1.52587890625,-0.5340576171875,1.8310546875
0.6262499,-8.698134422302246,-3.3255462646484375,3.4189200401306152,1.46484375,-0.7781982421875,1.678466796875
0.6287499000000001,-8.710105895996094,-3.3207578659057617,3.421314239501953,1.2359619140625,-0.6561279296875,1.64794921875
0.6312499,-8.729259490966797,-3.318363666534424,3.428496837615967,0.9307861328125,-0.7781982421875,1.617431640625
0.6337499000000001,-8.736441612243652,-3.3207578659057617,3.450044631958008,1.0986328125,-0.8697509765625,1.617431640625
0.6362499,-8.743624687194824,-3.318363666534424,3.4763808250427246,0.9613037109375,-0.6561279296875,1.4801025390625
0.6387499000000001,-8.741230010986328,-3.315969467163086,3.5027170181274414,0.8544921875,-0.79345703125,1.5106201171875
0.6412499,-8.741230010986328,-3.313575267791748,3.5242648124694824,0.6561279296875,-0.946044921875,1.52587890625
0.6437499,-8.738836288452148,-3.313575267791748,3.536235809326172,0.5950927734375,-0.9765625,1.3885498046875
0.6462499,-8.731653213500977,-3.313575267791748,3.533841609954834,0.640869140625,-1.0528564453125,1.3885498046875
0.6487499,-8.7268648147583,-3.313575267791748,3.5242648124694824,0.518798828125,-0.946044921875,1.46484375
0.6512499,-8.71489429473877,-3.308786630630493,3.5051112174987793,0.518798828125,-1.0223388671875,1.2664794921875
0.6537499,-8.705317497253418,-3.2992098331451416,3.490746021270752,0.4425048828125,-0.9918212890625,1.2969970703125
0.6562499,-8.695740699768066,-3.287238836288452,3.4811692237854004,-0.1678466796875,-0.9307861328125,1.46484375
0.6587499,-8.681375503540039,-3.2776620388031006,3.4739866256713867,-0.3662109375,-0.7781982421875,1.129150390625
0.6612499000000001,-8.671798706054688,-3.270479440689087,3.4763808250427246,-0.18310546875,-0.8544921875,1.2664794921875
0.6637499,-8.65982723236084,-3.270479440689087,3.469198226928711,-0.1220703125,-0.823974609375,1.15966796875
0.6662499000000001,-8.652645111083984,-3.2824504375457764,3.4739866256713867,-0.1373291015625,-0.6103515625,1.129150390625
0.6687499,-8.647856712341309,-3.294421434402466,3.4739866256713867,0.0152587890625,-0.7781982421875,1.190185546875
0.6712499000000001,-8.647856712341309,-3.315969467163086,3.4811692237854004,0.1678466796875,-0.732421875,1.220703125
0.6737499,-8.647856712341309,-3.3279404640197754,3.4787750244140625,0.396728515625,-0.9002685546875,1.007080078125
0.6762499000000001,-8.647856712341309,-3.337517261505127,3.4787750244140625,0.244140625,-0.8697509765625,0.9765625
0.6787499,-8.645462036132812,-3.3423056602478027,3.471592426300049,0.213623046875,-0.8392333984375,1.0223388671875
0.6812499000000001,-8.638279914855957,-3.3470940589904785,3.4596214294433594,0.42724609375,-0.7171630859375,0.9918212890625
0.6837499,-8.633491516113281,-3.339911460876465,3.4524388313293457,0.2899169921875,-0.640869140625,0.8392333984375
0.6862499000000001,-8.628703117370605,-3.3303346633911133,3.44765043258667,0.2593994140625,-0.6256103515625,0.701904296875
0.6887499,-8.631096839904785,-3.308786630630493,3.445256233215332,0.4425048828125,-0.579833984375,0.6866455078125
0.6912499000000001,-8.631096839904785,-3.2800562381744385,3.450044631958008,0.152587890625,-0.48828125,0.7171630859375
0.6937499,-8.635885238647461,-3.2537200450897217,3.4524388313293457,-0.06103515625,-0.579833984375,0.5645751953125
0.6962499000000001,-8.635885238647461,-3.2345664501190186,3.4548330307006836,-0.0457763671875,-0.42724609375,0.67138671875
0.6987499,-8.638279914855957,-3.2297780513763428,3.4548330307006836,0.030517578125,-0.4730224609375,0.5645751953125
0.7012499000000001,-8.640673637390137,-3.2393548488616943,3.4548330307006836,0.06103515625,-0.5340576171875,0.5950927734375
0.7037499,-8.647856712341309,-3.2609026432037354,3.4620156288146973,0.2288818359375,-0.457763671875,0.4730224609375
0.7062499,-8.65743350982666,-3.2968156337738037,3.49314022064209,0.8544921875,-0.6561279296875,0.274658203125
0.7087499,-8.65743350982666,-3.2968156337738037,3.49314022064209,0.8544921875,-0.6561279296875,0.274658203125
0.7112499,-8.647856712341309,-3.2752678394317627,3.509899616241455,0.9613037109375,-0.30517578125,-0.0762939453125
0.7137499,-8.647856712341309,-3.2752678394317627,3.509899616241455,0.9613037109375,-0.30517578125,-0.0762939453125
0.7162499,-8.635885238647461,-3.2106244564056396,3.4979286193847656,0.946044921875,-0.5035400390625,-0.152587890625
0.7187499,-8.635885238647461,-3.2106244564056396,3.4979286193847656,0.946044921875,-0.5035400390625,-0.152587890625
0.7212499,-8.650250434875488,-3.1507694721221924,3.4835634231567383,0.4119873046875,-0.518798828125,-0.30517578125
0.7237499000000001,-8.650250434875488,-3.1507694721221924,3.4835634231567383,0.4119873046875,-0.518798828125,-0.30517578125
0.7262499,-8.676587104797363,-3.1531636714935303,3.471592426300049,0.0457763671875,-0.7476806640625,-0.5035400390625
0.7287499000000001,-8.676587104797363,-3.1531636714935303,3.471592426300049,0.0457763671875,-0.7476806640625,-0.5035400390625
0.7312499,-8.695740699768066,-3.24414324760437,3.44765043258667,-0.0457763671875,-0.762939453125,-0.5035400390625
0.7337499000000001,-8.695740699768066,-3.24414324760437,3.44765043258667,-0.0457763671875,-0.762939453125,-0.5035400390625
0.7362499,-8.69334602355957,-3.3518824577331543,3.421314239501953,0.1068115234375,-0.5645751953125,-0.4730224609375
0.7387499000000001,-8.69334602355957,-3.3518824577331543,3.421314239501953,0.1068115234375,-0.5645751953125,-0.4730224609375
0.7412499,-8.698134422302246,-3.3949780464172363,3.406949043273926,0.274658203125,-0.701904296875,-0.5340576171875
0.7437499000000001,-8.698134422302246,-3.3949780464172363,3.406949043273926,0.274658203125,-0.701904296875,-0.5340576171875
0.7462499,-8.712499618530273,-3.4189200401306152,3.3949780464172363,0.2899169921875,-0.7476806640625,-0.6103515625
0.7487499000000001,-8.712499618530273,-3.4189200401306152,3.3949780464172363,0.2899169921875,-0.7476806640625,-0.6103515625
0.7512499,-8.7268648147583,-3.4596214294433594,3.3734302520751953,0.6561279296875,-0.91552734375,-0.48828125
0.7537499000000001,-8.7268648147583,-3.4596214294433594,3.3734302520751953,0.6561279296875,-0.91552734375,-0.48828125
0.7562499,-8.746018409729004,-3.4739866256713867,3.35667085647583,0.732421875,-1.0528564453125,-0.6866455078125
0.7587499000000001,-8.746018409729004,-3.4739866256713867,3.35667085647583,0.732421875,-1.0528564453125,-0.6866455078125
0.7612499,-8.7484130859375,-3.428496837615967,3.354276657104492,0.2288818359375,-1.007080078125,-0.213623046875
0.7637499000000001,-8.7484130859375,-3.428496837615967,3.354276657104492,0.2288818359375,-1.007080078125,-0.213623046875
0.7662499,-8.722076416015625,-3.375824451446533,3.359065055847168,0.1220703125,-1.007080078125,-0.2593994140625
0.7687499000000001,-8.722076416015625,-3.375824451446533,3.359065055847168,0.1220703125,-1.007080078125,-0.2593994140625
0.7712499,-8.69334602355957,-3.3710360527038574,3.3638534545898438,0.0457763671875,-1.129150390625,0.030517578125
0.7737499,-8.69334602355957,-3.3710360527038574,3.3638534545898438,0.0457763671875,-1.129150390625,0.030517578125
0.7762499,-8.662221908569336,-3.406949043273926,3.3638534545898438,-0.18310546875,-1.0986328125,-0.030517578125
0.7787499,-8.662221908569336,-3.406949043273926,3.3638534545898438,-0.18310546875,-1.0986328125,-0.030517578125
0.7812499,-8.62391471862793,-3.4524388313293457,3.35667085647583,0.152587890625,-1.1749267578125,0
0.7837499,-8.62391471862793,-3.4524388313293457,3.35667085647583,0.152587890625,-1.1749267578125,0
0.7862499000000001,-8.5903959274292,-3.488351821899414,3.361459255218506,0.6561279296875,-1.0223388671875,0.18310546875
0.7887499,-8.5903959274292,-3.488351821899414,3.361459255218506,0.6561279296875,-1.0223388671875,0.18310546875
0.7912499000000001,-8.556877136230469,-3.5170822143554688,3.3901896476745605,0.457763671875,-0.885009765625,-0.1220703125
0.7937499,-8.556877136230469,-3.5170822143554688,3.3901896476745605,0.457763671875,-0.885009765625,-0.1220703125
0.7962499000000001,-8.537723541259766,-3.5386300086975098,3.442862033843994,0.7171630859375,-0.396728515625,0.3509521484375
0.7987499,-8.537723541259766,-3.5386300086975098,3.442862033843994,0.7171630859375,-0.396728515625,0.3509521484375
0.8012499000000001,-8.53532886505127,-3.531447410583496,3.4955344200134277,1.190185546875,-0.3814697265625,0.30517578125
0.8037499,-8.53532886505127,-3.531447410583496,3.4955344200134277,1.190185546875,-0.3814697265625,0.30517578125
0.8062499000000001,-8.528146743774414,-3.49314022064209,3.5170822143554688,1.0986328125,-0.2899169921875,0.5950927734375
0.8087499,-8.528146743774414,-3.49314022064209,3.5170822143554688,1.0986328125,-0.2899169921875,0.5950927734375
0.8112499000000001,-8.525752067565918,-3.466804027557373,3.5194764137268066,1.4801025390625,0.1678466796875,0.5645751953125
0.8137499,-8.525752067565918,-3.466804027557373,3.5194764137268066,1.4801025390625,0.1678466796875,0.5645751953125
0.8162499000000001,-8.53532886505127,-3.4572272300720215,3.536235809326172,1.5106201171875,0.2593994140625,0.6256103515625
0.8187499,-8.53532886505127,-3.4572272300720215,3.536235809326172,1.5106201171875,0.2593994140625,0.6256103515625
0.8212499000000001,-8.556877136230469,-3.421314239501953,3.5889084339141846,1.6021728515625,0.3814697265625,0.5035400390625
0.8237499,-8.56884765625,-3.3949780464172363,3.6152446269989014,1.678466796875,0.518798828125,0.4425048828125
0.8262499000000001,-8.585607528686523,-3.3662476539611816,3.6296098232269287,1.5716552734375,0.48828125,0.67138671875
0.8287499,-8.607154846191406,-3.3446998596191406,3.6391866207122803,1.8310546875,0.48828125,0.6103515625
0.8312499000000001,-8.628703117370605,-3.3279404640197754,3.6343982219696045,1.5106201171875,0.5645751953125,0.2899169921875
0.8337499,-8.652645111083984,-3.313575267791748,3.6320040225982666,1.434326171875,0.6103515625,0.3204345703125
0.8362499,-8.669404029846191,-3.2992098331451416,3.6320040225982666,1.46484375,0.4119873046875,0.5950927734375
0.8387499,-8.681375503540039,-3.2752678394317627,3.627215623855591,1.5106201171875,0.457763671875,0.67138671875
0.8412499,-8.686163902282715,-3.2561142444610596,3.624821424484253,1.2054443359375,0.5035400390625,0.640869140625
0.8437499,-8.683769226074219,-3.2321722507476807,3.6152446269989014,0.8697509765625,0.2288818359375,0.54931640625
0.8462499,-8.676587104797363,-3.224989652633667,3.60566782951355,0.3509521484375,0.274658203125,0.4425048828125
0.8487499000000001,-8.669404029846191,-3.2369606494903564,3.5865142345428467,0.1983642578125,0.42724609375,0.6866455078125
0.8512499,-8.65982723236084,-3.2632968425750732,3.5697548389434814,-0.06103515625,0.396728515625,0.5035400390625
0.8537499000000001,-8.655038833618164,-3.2992098331451416,3.550601005554199,-0.0457763671875,0.1983642578125,0.579833984375
0.8562499,-8.652645111083984,-3.332728862762451,3.529053211212158,-0.0457763671875,0.18310546875,0.579833984375
0.8587499000000001,-8.65743350982666,-3.361459255218506,3.5170822143554688,-0.2593994140625,0.4119873046875,0.396728515625
0.8612499,-8.667010307312012,-3.383007049560547,3.5027170181274414,-0.030517578125,0.274658203125,0.396728515625
0.8637499000000001,-8.678980827331543,-3.399766445159912,3.4979286193847656,-0.2288818359375,0.0457763671875,0.67138671875
0.8662499,-8.695740699768066,-3.4093432426452637,3.490746021270752,-0.1068115234375,0.030517578125,0.5950927734375
0.8687499000000001,-8.707711219787598,-3.4141316413879395,3.4811692237854004,0.091552734375,0.06103515625,0.5645751953125
0.8712499,-8.71728801727295,-3.4093432426452637,3.469198226928711,0.1068115234375,0.1068115234375,0.67138671875
0.8737499000000001,-8.722076416015625,-3.406949043273926,3.450044631958008,0,0.0152587890625,0.7171630859375
0.8762499,-8.722076416015625,-3.406949043273926,3.423708438873291,-0.091552734375,0.2899169921875,0.7171630859375
0.8787499000000001,-8.722076416015625,-3.4117374420166016,3.40216064453125,-0.2288818359375,0.2288818359375,0.79345703125
0.8812499,-8.719682693481445,-3.421314239501953,3.375824451446533,-0.06103515625,0.091552734375,0.8697509765625
0.8837499000000001,-8.710105895996094,-3.428496837615967,3.359065055847168,0.1220703125,0.1068115234375,1.03759765625
0.8862499,-8.698134422302246,-3.4332852363586426,3.3423056602478027,-0.06103515625,0.4119873046875,1.0223388671875
0.8887499000000001,-8.686163902282715,-3.4380736351013184,3.339911460876465,-0.1678466796875,0.30517578125,1.007080078125
0.8912499,-8.676587104797363,-3.445256233215332,3.339911460876465,-0.091552734375,0.18310546875,1.2054443359375
0.8937499000000001,-8.674192428588867,-3.4548330307006836,3.3494882583618164,0.244140625,0.54931640625,1.0528564453125
0.8962499,-8.674192428588867,-3.471592426300049,3.3638534545898438,0.1983642578125,0.4425048828125,0.9307861328125
0.8987499,-8.676587104797363,-3.485957622528076,3.3734302520751953,0.396728515625,0.274658203125,0.8544921875
0.9012499,-8.681375503540039,-3.4979286193847656,3.3854012489318848,0.762939453125,0.3662109375,1.0223388671875
0.9037499,-8.681375503540039,-3.490746021270752,3.3925838470458984,1.1138916015625,0.3509521484375,1.1749267578125
0.9062499,-8.678980827331543,-3.4620156288146973,3.399766445159912,0.8087158203125,0.2899169921875,1.2054443359375
0.9087499,-8.669404029846191,-3.421314239501953,3.4093432426452637,0.7781982421875,0.3814697265625,1.1444091796875
0.9112499000000001,-8.662221908569336,-3.3710360527038574,3.421314239501953,0.762939453125,0.335693359375,1.007080078125
0.9137499,-8.650250434875488,-3.3279404640197754,3.4356794357299805,0.6561279296875,0.4425048828125,1.007080078125
0.9162499000000001,-8.645462036132812,-3.294421434402466,3.4524388313293457,0.732421875,0.30517578125,1.1138916015625
0.9187499,-8.647856712341309,-3.2752678394317627,3.466804027557373,0.5645751953125,0.335693359375,1.129150390625
0.9212499000000001,-8.652645111083984,-3.268085241317749,3.4811692237854004,0.54931640625,0.54931640625,1.068115234375
0.9237499,-8.65743350982666,-3.2752678394317627,3.4979286193847656,0.6561279296875,0.579833984375,1.129150390625
0.9262499000000001,-8.65982723236084,-3.287238836288452,3.512293815612793,0.5340576171875,0.48828125,0.9765625
0.9287499,-8.652645111083984,-3.2992098331451416,3.5266590118408203,0.54931640625,0.4730224609375,1.03759765625
0.9312499000000001,-8.645462036132812,-3.2968156337738037,3.5410242080688477,0.5340576171875,0.396728515625,0.9613037109375
0.9337499,-8.633491516113281,-3.292027235031128,3.552995204925537,0.5035400390625,0.6866455078125,0.7476806640625
0.9362499000000001,-8.628703117370605,-3.270479440689087,3.5649664402008057,0.30517578125,0.6256103515625,0.7476806640625
0.9387499,-8.62630844116211,-3.265691041946411,3.576937437057495,0.0457763671875,0.579833984375,0.6256103515625
0.9412499000000001,-8.62630844116211,-3.2632968425750732,3.584120035171509,0.1678466796875,0.6866455078125,0.67138671875
0.9437499,-8.638279914855957,-3.270479440689087,3.5960910320281982,0.2288818359375,0.6256103515625,0.701904296875
0.9462499000000001,-8.645462036132812,-3.2800562381744385,3.5936968326568604,0.18310546875,0.5340576171875,0.67138671875
0.9487499,-8.65982723236084,-3.287238836288452,3.598485231399536,0.2288818359375,0.3509521484375,0.579833984375
0.9512499000000001,-8.664615631103516,-3.2776620388031006,3.598485231399536,0.1220703125,0.54931640625,0.4730224609375
0.9537499,-8.65743350982666,-3.270479440689087,3.600879430770874,-0.18310546875,0.5645751953125,0.5645751953125
0.9562499000000001,-8.647856712341309,-3.2561142444610596,3.600879430770874,-0.244140625,0.5950927734375,0.3814697265625
0.9587499,-8.638279914855957,-3.248931646347046,3.60566782951355,-0.152587890625,0.640869140625,0.1678466796875
0.9612499,-8.640673637390137,-3.248931646347046,3.60566782951355,-0.30517578125,0.7476806640625,0.1068115234375
0.9637499,-8.650250434875488,-3.2537200450897217,3.6104562282562256,-0.5340576171875,1.1138916015625,0.1220703125
0.9662499,-8.65743350982666,-3.265691041946411,3.6104562282562256,-0.4730224609375,0.732421875,0.30517578125
0.9687499,-8.65743350982666,-3.2848446369171143,3.603273630142212,-0.4425048828125,0.5645751953125,0.335693359375
0.9712499,-8.655038833618164,-3.308786630630493,3.5960910320281982,-0.579833984375,0.9765625,0.48828125
0.9737499000000001,-8.655038833618164,-3.3279404640197754,3.579331636428833,-0.457763671875,1.007080078125,0.457763671875
0.9762499,-8.662221908569336,-3.3446998596191406,3.5625722408294678,-0.457763671875,1.1749267578125,0.3204345703125
0.9787499000000001,-8.669404029846191,-3.3494882583618164,3.5458126068115234,-0.5035400390625,1.15966796875,-0.0762939453125
0.9812499,-8.669404029846191,-3.3446998596191406,3.529053211212158,-0.5950927734375,0.9765625,0.1068115234375
0.9837499000000001,-8.662221908569336,-3.335123062133789,3.509899616241455,-0.6256103515625,1.03759765625,0.2899169921875
0.9862499,-8.647856712341309,-3.332728862762451,3.488351821899414,-0.4730224609375,1.03759765625,0.3814697265625
0.9887499000000001,-8.643068313598633,-3.3303346633911133,3.464409828186035,-0.6561279296875,1.2969970703125,0.3814697265625
0.9912499,-8.647856712341309,-3.337517261505127,3.445256233215332,-0.54931640625,1.4495849609375,0.3662109375
0.9937499000000001,-8.669404029846191,-3.3446998596191406,3.428496837615967,-0.4119873046875,1.5106201171875,0.213623046875
0.9962499,-8.688557624816895,-3.3470940589904785,3.423708438873291,-0.1068115234375,1.4801025390625,0.091552734375
0.9987499000000001,-8.695740699768066,-3.3446998596191406,3.426102638244629,-0.091552734375,1.312255859375,0.1678466796875
1.0012499,-8.69334602355957,-3.339911460876465,3.4332852363586426,0.030517578125,1.2054443359375,0.2593994140625
1.0037498999999999,-8.686163902282715,-3.3303346633911133,3.4404678344726562,-0.213623046875,1.3580322265625,0.274658203125
1.0062499,-8.676587104797363,-3.3207578659057617,3.44765043258667,-0.244140625,1.2054443359375,0.2593994140625
1.0087499,-8.681375503540039,-3.315969467163086,3.445256233215332,-0.457763671875,1.6632080078125,0.2899169921875
1.0112499,-8.695740699768066,-3.308786630630493,3.4332852363586426,-0.518798828125,1.6632080078125,0.2593994140625
1.0137498999999999,-8.71728801727295,-3.3039982318878174,3.4165258407592773,-0.335693359375,1.6632080078125,-0.0152587890625
1.0162499,-8.741230010986328,-3.294421434402466,3.397372245788574,-0.30517578125,1.28173828125,0.1373291015625
1.0187499,-8.753201484680176,-3.292027235031128,3.378218650817871,-0.640869140625,1.0528564453125,0.1983642578125
1.0212499,-8.757989883422852,-3.292027235031128,3.378218650817871,-0.6256103515625,1.03759765625,0.2288818359375
1.0237498999999999,-8.7484130859375,-3.294421434402466,3.3877954483032227,-0.640869140625,1.2359619140625,0.152587890625
1.0262498999999998,-8.731653213500977,-3.2992098331451416,3.40216064453125,-0.732421875,1.251220703125,0.213623046875
1.0287499,-8.719682693481445,-3.3016040325164795,3.4189200401306152,-0.885009765625,1.2969970703125,0.0457763671875
1.0312499,-8.707711219787598,-3.31118106842041,3.4332852363586426,-0.7476806640625,1.190185546875,-0.18310546875
1.0337498999999999,-8.705317497253418,-3.3303346633911133,3.442862033843994,-0.640869140625,0.9918212890625,-0.0152587890625
1.0362498999999998,-8.705317497253418,-3.361459255218506,3.4572272300720215,-0.6103515625,1.0528564453125,0.0457763671875
1.0387499,-8.702922821044922,-3.399766445159912,3.466804027557373,-0.457763671875,1.03759765625,-0.1983642578125
1.0412499,-8.695740699768066,-3.426102638244629,3.4739866256713867,-0.3662109375,0.9918212890625,-0.1983642578125
1.0437499,-8.688557624816895,-3.4308910369873047,3.4739866256713867,-0.0152587890625,1.0528564453125,0.091552734375
1.0462498999999998,-8.669404029846191,-3.4117374420166016,3.469198226928711,-0.0457763671875,1.129150390625,0.0152587890625
1.0487499,-8.662221908569336,-3.3710360527038574,3.4596214294433594,-0.1220703125,1.3580322265625,-0.091552734375
1.0512499,-8.652645111083984,-3.3255462646484375,3.450044631958008,-0.18310546875,1.495361328125,-0.1220703125
1.0537499,-8.645462036132812,-3.28963303565979,3.4404678344726562,-0.274658203125,1.3885498046875,-0.1678466796875
1.0562498999999999,-8.635885238647461,-3.268085241317749,3.428496837615967,-0.396728515625,1.03759765625,-0.06103515625
1.0587499,-8.621520042419434,-3.272873640060425,3.423708438873291,-0.67138671875,0.9002685546875,-0.18310546875
1.0612499,-8.609549522399902,-3.2968156337738037,3.421314239501953,-0.6103515625,1.190185546875,-0.1373291015625
1.0637499,-8.60236644744873,-3.332728862762451,3.4189200401306152,-0.4119873046875,1.434326171875,-0.1068115234375
1.0662498999999999,-8.604761123657227,-3.3686418533325195,3.4189200401306152,-0.3204345703125,1.373291015625,-0.274658203125
1.0687499,-8.619126319885254,-3.404554843902588,3.406949043273926,-0.1068115234375,1.3427734375,-0.2899169921875
1.0712499,-8.633491516113281,-3.421314239501953,3.40216064453125,0.2288818359375,1.52587890625,-0.18310546875
1.0737499,-8.647856712341309,-3.428496837615967,3.3925838470458984,0.3204345703125,1.4495849609375,-0.30517578125
1.0762498999999999,-8.650250434875488,-3.4117374420166016,3.3949780464172363,0.579833984375,1.3580322265625,-0.274658203125
1.0787499,-8.652645111083984,-3.3877954483032227,3.397372245788574,0.274658203125,1.312255859375,-0.274658203125
1.0812499,-8.65743350982666,-3.359065055847168,3.404554843902588,0.0457763671875,1.4190673828125,-0.18310546875
1.0837499,-8.662221908569336,-3.3255462646484375,3.4141316413879395,0.2899169921875,1.5411376953125,-0.1220703125
1.0862498999999999,-8.674192428588867,-3.2992098331451416,3.4141316413879395,0.2288818359375,1.434326171875,-0.2288818359375
1.0887499,-8.683769226074219,-3.268085241317749,3.4189200401306152,0.091552734375,1.251220703125,-0.18310546875
1.0912499,-8.695740699768066,-3.2393548488616943,3.421314239501953,-0.1068115234375,1.3275146484375,-0.1220703125
1.0937499,-8.707711219787598,-3.2106244564056396,3.421314239501953,-0.152587890625,1.4190673828125,-0.1068115234375
1.0962498999999999,-8.71728801727295,-3.1962592601776123,3.423708438873291,-0.2288818359375,1.190185546875,-0.335693359375
1.0987498999999998,-8.719682693481445,-3.1962592601776123,3.426102638244629,-0.5340576171875,1.129150390625,-0.2288818359375
1.1012499,-8.71489429473877,-3.205836057662964,3.426102638244629,-0.732421875,1.0528564453125,-0.2899169921875
1.1037499,-8.712499618530273,-3.227383852005005,3.4332852363586426,-0.7476806640625,1.129150390625,-0.4119873046875
1.1062499,-8.710105895996094,-3.2537200450897217,3.4404678344726562,-0.5645751953125,1.0223388671875,-0.3509521484375
1.1087498999999998,-8.71728801727295,-3.2752678394317627,3.4548330307006836,-0.4119873046875,0.579833984375,-0.457763671875
1.1112499,-8.724471092224121,-3.292027235031128,3.464409828186035,-0.67138671875,0.7476806640625,-0.5340576171875
1.1137499,-8.729259490966797,-3.3016040325164795,3.469198226928711,-0.732421875,0.7476806640625,-0.518798828125
1.1162499,-8.71728801727295,-3.308786630630493,3.471592426300049,-0.8544921875,0.762939453125,-0.6256103515625
1.1187498999999999,-8.700529098510742,-3.315969467163086,3.469198226928711,-0.9613037109375,0.9307861328125,-0.67138671875
1.1212499,-8.678980827331543,-3.332728862762451,3.4596214294433594,-0.9613037109375,0.9307861328125,-0.67138671875
1.1237499,-8.667010307312012,-3.3494882583618164,3.450044631958008,-1.0528564453125,0.9765625,-0.54931640625
1.1262499,-8.662221908569336,-3.3734302520751953,3.44765043258667,-0.9307861328125,0.946044921875,-0.5340576171875
1.1287498999999999,-8.667010307312012,-3.3925838470458984,3.450044631958008,-0.7171630859375,0.9613037109375,-0.30517578125
1.1312499,-8.676587104797363,-3.40216064453125,3.4596214294433594,-0.6866455078125,0.8544921875,-0.4730224609375
1.1337499,-8.686163902282715,-3.404554843902588,3.471592426300049,-0.5035400390625,0.9002685546875,-0.48828125
1.1362499,-8.69334602355957,-3.397372245788574,3.4739866256713867,-0.457763671875,1.007080078125,-0.640869140625
1.1387498999999999,-8.698134422302246,-3.3877954483032227,3.4739866256713867,-0.67138671875,0.9307861328125,-0.5340576171875
1.1412499,-8.700529098510742,-3.3854012489318848,3.466804027557373,-0.5645751953125,0.6103515625,-0.396728515625
1.1437499,-8.700529098510742,-3.3877954483032227,3.4548330307006836,-0.3814697265625,0.762939453125,-0.5340576171875
1.1462499,-8.695740699768066,-3.3949780464172363,3.4404678344726562,-0.5340576171875,0.6103515625,-0.6103515625
1.1487498999999999,-8.688557624816895,-3.399766445159912,3.426102638244629,-0.5645751953125,0.6866455078125,-0.5950927734375
1.1512499,-8.681375503540039,-3.404554843902588,3.4141316413879395,-0.8544921875,0.6866455078125,-0.6256103515625
1.1537499,-8.667010307312012,-3.4093432426452637,3.399766445159912,-1.0833740234375,0.91552734375,-0.1678466796875
1.1562499,-8.652645111083984,-3.4141316413879395,3.3925838470458984,-0.823974609375,0.762939453125,-0.48828125
1.1587498999999999,-8.640673637390137,-3.421314239501953,3.378218650817871,-0.79345703125,0.8697509765625,-0.3204345703125
1.1612498999999998,-8.628703117370605,-3.4356794357299805,3.3710360527038574,-0.8697509765625,0.8392333984375,-0.48828125
1.1637499,-8.62630844116211,-3.4572272300720215,3.35667085647583,-0.9918212890625,0.9307861328125,-0.579833984375
1.1662499,-8.619126319885254,-3.488351821899414,3.3423056602478027,-0.79345703125,0.9918212890625,-0.30517578125
1.1687499,-8.619126319885254,-3.5218706130981445,3.3279404640197754,-0.91552734375,0.7781982421875,-0.1983642578125
1.1712498999999998,-8.614337921142578,-3.555389642715454,3.31118106842041,-0.579833984375,0.732421875,-0.18310546875
1.1737499,-8.619126319885254,-3.5697548389434814,3.3016040325164795,-0.213623046875,0.7781982421875,-0.244140625
1.1762499,-8.631096839904785,-3.56017804145813,3.28963303565979,-0.0762939453125,0.5645751953125,-0.06103515625
1.1787499,-8.643068313598633,-3.531447410583496,3.2800562381744385,-0.0762939453125,0.8087158203125,0.1220703125
1.1812498999999999,-8.662221908569336,-3.4835634231567383,3.270479440689087,-0.0152587890625,0.79345703125,0.06103515625
1.1837499,-8.678980827331543,-3.4404678344726562,3.2632968425750732,-0.1220703125,0.6103515625,0.0457763671875
1.1862499,-8.695740699768066,-3.4093432426452637,3.2537200450897217,-0.42724609375,0.5950927734375,0.18310546875
1.1887499,-8.702922821044922,-3.3901896476745605,3.2393548488616943,-0.1983642578125,0.701904296875,0.18310546875
1.1912498999999999,-8.710105895996094,-3.3901896476745605,3.227383852005005,-0.152587890625,0.457763671875,0.213623046875
1.1937499,-8.702922821044922,-3.3949780464172363,3.220201253890991,-0.396728515625,0.7476806640625,0.3509521484375
1.1962499,-8.69334602355957,-3.40216064453125,3.2321722507476807,-0.244140625,0.67138671875,0.3662109375
1.1987499,-8.683769226074219,-3.404554843902588,3.251325845718384,-0.0457763671875,0.5340576171875,0.42724609375
1.2012498999999999,-8.674192428588867,-3.404554843902588,3.2848446369171143,-0.0762939453125,0.6103515625,0.4119873046875
1.2037499,-8.671798706054688,-3.3949780464172363,3.318363666534424,0.18310546875,0.8087158203125,0.4119873046875
1.2062499,-8.676587104797363,-3.3949780464172363,3.3494882583618164,0.3814697265625,0.5950927734375,0.457763671875
1.2087499,-8.695740699768066,-3.3949780464172363,3.3710360527038574,0.6103515625,0.396728515625,0.396728515625
1.2112498999999999,-8.707711219787598,-3.40216064453125,3.383007049560547,0.79345703125,0.4730224609375,0.1678466796875
1.2137499,-8.719682693481445,-3.40216064453125,3.3854012489318848,0.9307861328125,0.3814697265625,0.2899169921875
1.2162499,-8.71728801727295,-3.3877954483032227,3.3854012489318848,0.9918212890625,0.335693359375,0.518798828125
1.2187499,-8.707711219787598,-3.359065055847168,3.3854012489318848,0.91552734375,0.3204345703125,0.396728515625
1.2212498999999999,-8.688557624816895,-3.315969467163086,3.3901896476745605,0.48828125,0.6866455078125,0.42724609375
1.2237498999999998,-8.671798706054688,-3.265691041946411,3.399766445159912,0.1373291015625,0.79345703125,0.30517578125
1.2262499,-8.65982723236084,-3.224989652633667,3.4093432426452637,-0.2899169921875,0.640869140625,0.2288818359375
1.2287499,-8.655038833618164,-3.203441858291626,3.4189200401306152,-0.244140625,0.701904296875,0.2899169921875
1.2312499,-8.65743350982666,-3.2106244564056396,3.421314239501953,-0.0762939453125,0.6561279296875,0.1678466796875
1.2337498999999998,-8.664615631103516,-3.2417490482330322,3.4189200401306152,-0.1220703125,0.6866455078125,0.0152587890625
1.2362499,-8.667010307312012,-3.2968156337738037,3.4165258407592773,0.0762939453125,0.762939453125,-0.2593994140625
1.2387499,-8.667010307312012,-3.3494882583618164,3.4093432426452637,0.3814697265625,0.6561279296875,0.0457763671875
1.2412499,-8.65743350982666,-3.3877954483032227,3.406949043273926,0.7171630859375,0.6561279296875,-0.0762939453125
1.2437498999999999,-8.647856712341309,-3.404554843902588,3.4141316413879395,0.640869140625,0.91552734375,-0.1678466796875
1.2462499,-8.640673637390137,-3.3925838470458984,3.423708438873291,0.8392333984375,0.7781982421875,-0.1678466796875
1.2487499,-8.635885238647461,-3.359065055847168,3.442862033843994,0.9002685546875,0.9307861328125,-0.1983642578125
1.2512499,-8.643068313598633,-3.3303346633911133,3.4620156288146973,0.8392333984375,1.3275146484375,-0.396728515625
1.2537498999999999,-8.652645111083984,-3.31118106842041,3.4811692237854004,0.6866455078125,1.0223388671875,-0.2288818359375
1.2562499,-8.669404029846191,-3.313575267791748,3.49314022064209,0.79345703125,0.79345703125,-0.274658203125
1.2587499,-8.69095230102539,-3.3303346633911133,3.4979286193847656,0.732421875,0.885009765625,-0.457763671875
1.2612499,-8.712499618530273,-3.3518824577331543,3.4955344200134277,0.946044921875,0.7476806640625,-0.42724609375
1.2637498999999999,-8.731653213500977,-3.3662476539611816,3.490746021270752,0.79345703125,0.701904296875,-0.152587890625
1.2662499,-8.738836288452148,-3.359065055847168,3.485957622528076,0.6256103515625,0.6561279296875,-0.244140625
1.2687499,-8.743624687194824,-3.335123062133789,3.485957622528076,0.518798828125,0.5950927734375,-0.4730224609375
1.2712499,-8.734047889709473,-3.292027235031128,3.485957622528076,0.42724609375,0.762939453125,-0.3509521484375
1.2737498999999999,-8.7268648147583,-3.2561142444610596,3.4835634231567383,0.152587890625,0.701904296875,-0.4119873046875
1.2762499,-8.712499618530273,-3.224989652633667,3.4739866256713867,-0.30517578125,0.6256103515625,-0.5340576171875
1.2787499,-8.702922821044922,-3.222595453262329,3.4548330307006836,-0.579833984375,0.6866455078125,-0.396728515625
1.2812499,-8.69334602355957,-3.2417490482330322,3.4189200401306152,-0.396728515625,0.5645751953125,-0.457763671875
1.2837498999999999,-8.678980827331543,-3.272873640060425,3.378218650817871,-0.1678466796875,0.91552734375,-0.4119873046875
1.2862498999999998,-8.647856712341309,-3.3255462646484375,3.308786630630493,-0.030517578125,0.9002685546875,-0.54931640625
1.2887499,-8.647856712341309,-3.3255462646484375,3.308786630630493,-0.030517578125,0.9002685546875,-0.54931640625
1.2912499,-8.62630844116211,-3.315969467163086,3.28963303565979,-0.0762939453125,0.9002685546875,-0.42724609375
1.2937499,-8.62630844116211,-3.315969467163086,3.28963303565979,-0.0762939453125,0.9002685546875,-0.42724609375
1.2962498999999998,-8.638279914855957,-3.2992098331451416,3.313575267791748,0.1068115234375,0.9002685546875,-0.9307861328125
1.2987499,-8.638279914855957,-3.2992098331451416,3.313575267791748,0.1068115234375,0.9002685546875,-0.9307861328125
1.3012499,-8.683769226074219,-3.337517261505127,3.3518824577331543,0.396728515625,0.6256103515625,-0.9307861328125
1.3037499,-8.683769226074219,-3.337517261505127,3.3518824577331543,0.396728515625,0.6256103515625,-0.9307861328125
1.3062498999999999,-8.734047889709473,-3.397372245788574,3.383007049560547,0.91552734375,0.5035400390625,-0.885009765625
1.3087499,-8.734047889709473,-3.397372245788574,3.383007049560547,0.91552734375,0.5035400390625,-0.885009765625
1.3112499,-8.753201484680176,-3.3734302520751953,3.4117374420166016,0.6561279296875,0.518798828125,-0.823974609375
1.3137499,-8.753201484680176,-3.3734302520751953,3.4117374420166016,0.6561279296875,0.518798828125,-0.823974609375
1.3162498999999999,-8.75080680847168,-3.2824504375457764,3.4380736351013184,0.4119873046875,0.640869140625,-0.9765625
1.3187499,-8.75080680847168,-3.2824504375457764,3.4380736351013184,0.4119873046875,0.640869140625,-0.9765625
1.3212499,-8.753201484680176,-3.2609026432037354,3.4572272300720215,-0.30517578125,0.3509521484375,-0.7781982421875
1.3237499,-8.753201484680176,-3.2609026432037354,3.4572272300720215,-0.30517578125,0.3509521484375,-0.7781982421875
1.3262498999999999,-8.7484130859375,-3.3303346633911133,3.4548330307006836,0.091552734375,0.30517578125,-0.7171630859375
1.3287499,-8.7484130859375,-3.3303346633911133,3.4548330307006836,0.091552734375,0.30517578125,-0.7171630859375
1.3312499,-8.724471092224121,-3.3854012489318848,3.4189200401306152,0.1983642578125,0.213623046875,-0.6256103515625
1.3337499,-8.724471092224121,-3.3854012489318848,3.4189200401306152,0.1983642578125,0.213623046875,-0.6256103515625
1.3362498999999999,-8.702922821044922,-3.361459255218506,3.361459255218506,0.18310546875,0.1373291015625,-0.762939453125
1.3387499,-8.702922821044922,-3.361459255218506,3.361459255218506,0.18310546875,0.1373291015625,-0.762939453125
1.3412499,-8.695740699768066,-3.318363666534424,3.2992098331451416,0.06103515625,0.1220703125,-0.91552734375
1.3437499,-8.695740699768066,-3.318363666534424,3.2992098331451416,0.06103515625,0.1220703125,-0.91552734375
1.3462498999999999,-8.688557624816895,-3.3423056602478027,3.24414324760437,-0.030517578125,-0.152587890625,-0.8544921875
1.3487498999999998,-8.688557624816895,-3.3423056602478027,3.24414324760437,-0.030517578125,-0.152587890625,-0.8544921875
1.3512499,-8.669404029846191,-3.426102638244629,3.2178070545196533,0.06103515625,-0.18310546875,-0.8544921875
1.3537499,-8.669404029846191,-3.426102638244629,3.2178070545196533,0.06103515625,-0.18310546875,-0.8544921875
1.3562499,-8.650250434875488,-3.4763808250427246,3.2154128551483154,0.06103515625,-0.091552734375,-0.701904296875
1.3587498999999998,-8.650250434875488,-3.4763808250427246,3.2154128551483154,0.06103515625,-0.091552734375,-0.701904296875
1.3612499,-8.647856712341309,-3.469198226928711,3.2178070545196533,0.396728515625,0.213623046875,-0.701904296875
1.3637499,-8.647856712341309,-3.469198226928711,3.2178070545196533,0.396728515625,0.213623046875,-0.701904296875
1.3662499,-8.652645111083984,-3.4763808250427246,3.2297780513763428,0.8392333984375,0.06103515625,-0.6866455078125
1.3687498999999999,-8.652645111083984,-3.4763808250427246,3.2297780513763428,0.8392333984375,0.06103515625,-0.6866455078125
1.3712499,-8.671798706054688,-3.5242648124694824,3.2585084438323975,0.9918212890625,-0.0762939453125,-0.732421875
1.3737499,-8.671798706054688,-3.5242648124694824,3.2585084438323975,0.9918212890625,-0.0762939453125,-0.732421875
1.3762499,-8.695740699768066,-3.555389642715454,3.3016040325164795,1.4801025390625,-0.3814697265625,-0.4119873046875
1.3787498999999999,-8.695740699768066,-3.555389642715454,3.3016040325164795,1.4801025390625,-0.3814697265625,-0.4119873046875
1.3812499,-8.705317497253418,-3.5194764137268066,3.3494882583618164,1.3885498046875,-0.213623046875,-0.3814697265625
1.3837499,-8.705317497253418,-3.5194764137268066,3.3494882583618164,1.3885498046875,-0.213623046875,-0.3814697265625
1.3862499,-8.700529098510742,-3.4404678344726562,3.3877954483032227,0.946044921875,-0.1373291015625,-0.030517578125
1.3887498999999999,-8.700529098510742,-3.4404678344726562,3.3877954483032227,0.946044921875,-0.1373291015625,-0.030517578125
1.3912499,-8.681375503540039,-3.40216064453125,3.428496837615967,0.8392333984375,-0.2288818359375,-0.06103515625
1.3937499,-8.681375503540039,-3.40216064453125,3.428496837615967,0.8392333984375,-0.2288818359375,-0.06103515625
1.3962499,-8.667010307312012,-3.421314239501953,3.4739866256713867,0.6103515625,-0.0762939453125,0.06103515625
1.3987498999999999,-8.667010307312012,-3.421314239501953,3.4739866256713867,0.6103515625,-0.0762939453125,0.06103515625
1.4012499,-8.667010307312012,-3.4524388313293457,3.507505416870117,0.6256103515625,-0.2899169921875,0.1983642578125
1.4037499,-8.669404029846191,-3.4524388313293457,3.5170822143554688,0.762939453125,-0.1983642578125,0.3509521484375
1.4062499,-8.671798706054688,-3.4356794357299805,3.5194764137268066,0.9002685546875,-0.274658203125,0.2288818359375
1.4087498999999999,-8.664615631103516,-3.4093432426452637,3.509899616241455,0.6866455078125,-0.2899169921875,0.213623046875
1.4112498999999998,-8.655038833618164,-3.378218650817871,3.49314022064209,0.4425048828125,-0.3509521484375,0.42724609375
1.4137499,-8.640673637390137,-3.3494882583618164,3.471592426300049,0.42724609375,-0.18310546875,0.54931640625
1.4162499,-8.628703117370605,-3.3279404640197754,3.450044631958008,0.4425048828125,-0.3204345703125,0.30517578125
1.4187499,-8.619126319885254,-3.3207578659057617,3.4380736351013184,0.335693359375,-0.2288818359375,0.335693359375
1.4212498999999998,-8.616731643676758,-3.3207578659057617,3.428496837615967,0.3814697265625,-0.2593994140625,0.4730224609375
1.4237499,-8.62630844116211,-3.3303346633911133,3.426102638244629,0.579833984375,-0.2288818359375,0.5645751953125
1.4262499,-8.631096839904785,-3.335123062133789,3.421314239501953,0.4425048828125,-0.18310546875,0.396728515625
1.4287499,-8.640673637390137,-3.339911460876465,3.4165258407592773,0.2899169921875,-0.2593994140625,0.4730224609375
1.4312498999999999,-8.638279914855957,-3.3494882583618164,3.4117374420166016,0.152587890625,-0.3509521484375,0.5340576171875
1.4337499,-8.633491516113281,-3.361459255218506,3.40216064453125,0.0152587890625,-0.18310546875,0.640869140625
1.4362499,-8.621520042419434,-3.383007049560547,3.397372245788574,0.152587890625,-0.091552734375,0.4730224609375
1.4387499,-8.619126319885254,-3.4117374420166016,3.3949780464172363,0.4119873046875,-0.152587890625,0.2899169921875
1.4412498999999999,-8.619126319885254,-3.4404678344726562,3.399766445159912,0.4119873046875,0.1373291015625,0.48828125
1.4437499,-8.631096839904785,-3.469198226928711,3.406949043273926,0.335693359375,0.4119873046875,0.48828125
1.4462499,-8.650250434875488,-3.4811692237854004,3.4165258407592773,0.7171630859375,0.3204345703125,0.5035400390625
1.4487499,-8.667010307312012,-3.4787750244140625,3.4189200401306152,0.7171630859375,0,0.4730224609375
1.4512498999999999,-8.678980827331543,-3.4548330307006836,3.4189200401306152,0.8544921875,0.2288818359375,0.732421875
1.4537499,-8.683769226074219,-3.421314239501953,3.4165258407592773,0.9002685546875,0.244140625,0.54931640625
1.4562499,-8.683769226074219,-3.3925838470458984,3.4141316413879395,0.701904296875,0.1220703125,0.3662109375
1.4587499,-8.681375503540039,-3.3662476539611816,3.4141316413879395,0.79345703125,0.18310546875,0.4730224609375
1.4612498999999999,-8.681375503540039,-3.354276657104492,3.4165258407592773,0.91552734375,0.335693359375,0.2593994140625
1.4637499,-8.678980827331543,-3.3446998596191406,3.421314239501953,0.9613037109375,0.3509521484375,0.518798828125
1.4662499,-8.683769226074219,-3.337517261505127,3.4332852363586426,0.9613037109375,0.4119873046875,0.48828125
1.4687499,-8.69095230102539,-3.3303346633911133,3.450044631958008,0.9613037109375,0.3204345703125,0.67138671875
1.4712498999999999,-8.707711219787598,-3.3207578659057617,3.466804027557373,1.0986328125,0.1983642578125,0.5035400390625
1.4737498999999998,-8.724471092224121,-3.2992098331451416,3.4835634231567383,1.15966796875,0.1373291015625,0.42724609375
1.4762499,-8.731653213500977,-3.265691041946411,3.49314022064209,1.129150390625,-0.0762939453125,0.3509521484375
1.4787499,-8.729259490966797,-3.224989652633667,3.5003228187561035,0.67138671875,0.396728515625,0.152587890625
1.4812499,-8.712499618530273,-3.1890766620635986,3.5027170181274414,0.3509521484375,0.244140625,0.0152587890625
1.4837498999999998,-8.69334602355957,-3.1747114658355713,3.5027170181274414,0.3509521484375,0.244140625,-0.0762939453125
1.4862499,-8.678980827331543,-3.177105665206909,3.4979286193847656,0.4119873046875,0.1983642578125,0.091552734375
1.4887499,-8.676587104797363,-3.201047658920288,3.488351821899414,0.2593994140625,0.18310546875,0.06103515625
1.4912499,-8.686163902282715,-3.227383852005005,3.4811692237854004,-0.030517578125,0.1983642578125,0.06103515625
1.4937498999999999,-8.707711219787598,-3.248931646347046,3.466804027557373,0.0457763671875,0.1068115234375,-0.030517578125
1.4962499,-8.724471092224121,-3.2585084438323975,3.4524388313293457,0.396728515625,0.030517578125,-0.1373291015625
1.4987499,-8.736441612243652,-3.2537200450897217,3.4356794357299805,0.2288818359375,0.0457763671875,-0.30517578125
1.5012499,-8.741230010986328,-3.246537446975708,3.4189200401306152,0.244140625,0.0762939453125,-0.335693359375
1.5037498999999999,-8.734047889709473,-3.2393548488616943,3.397372245788574,0.3204345703125,-0.091552734375,-0.18310546875
1.5062499,-8.722076416015625,-3.2369606494903564,3.3710360527038574,0.213623046875,-0.1220703125,-0.54931640625
1.5087499,-8.702922821044922,-3.24414324760437,3.3470940589904785,0.213623046875,-0.335693359375,-0.42724609375
1.5112499,-8.683769226074219,-3.2561142444610596,3.315969467163086,-0.1373291015625,-0.030517578125,-0.4119873046875
1.5137498999999999,-8.671798706054688,-3.2752678394317627,3.294421434402466,-0.0457763671875,-0.1068115234375,-0.457763671875
1.5162499,-8.667010307312012,-3.3039982318878174,3.2752678394317627,0.1220703125,-0.1220703125,-0.30517578125
1.5187499,-8.676587104797363,-3.332728862762451,3.2609026432037354,0.06103515625,-0.152587890625,-0.3814697265625
1.5212499,-8.686163902282715,-3.361459255218506,3.2537200450897217,0.2899169921875,-0.3662109375,-0.4119873046875
1.5237498999999999,-8.707711219787598,-3.3854012489318848,3.251325845718384,0.518798828125,-0.5035400390625,-0.3814697265625
1.5262499,-8.7268648147583,-3.397372245788574,3.251325845718384,0.396728515625,-0.5340576171875,-0.48828125
1.5287499,-8.736441612243652,-3.4117374420166016,3.251325845718384,0.54931640625,-0.6561279296875,-0.6256103515625
1.5312499,-8.741230010986328,-3.4189200401306152,3.2393548488616943,0.762939453125,-0.6103515625,-0.9918212890625
1.5337498999999999,-8.734047889709473,-3.4189200401306152,3.220201253890991,0.732421875,-0.5035400390625,-0.732421875
1.5362499,-8.71728801727295,-3.4093432426452637,3.1890766620635986,0.640869140625,-0.7476806640625,-0.5340576171875
1.5387499,-8.700529098510742,-3.3877954483032227,3.1651346683502197,0.6256103515625,-0.732421875,-0.4730224609375
1.5412499,-8.686163902282715,-3.3662476539611816,3.1483752727508545,0.5950927734375,-0.396728515625,-0.4425048828125
1.5437499,-8.678980827331543,-3.3446998596191406,3.1483752727508545,0.518798828125,-0.396728515625,-0.42724609375
1.5462498999999998,-8.681375503540039,-3.335123062133789,3.162740468978882,0.5340576171875,-0.457763671875,-0.42724609375
1.5487499,-8.686163902282715,-3.3470940589904785,3.184288263320923,0.9307861328125,-0.4730224609375,-0.6103515625
1.5512499,-8.700529098510742,-3.378218650817871,3.2130186557769775,1.0223388671875,-0.5035400390625,-0.6561279296875
1.5537499,-8.707711219787598,-3.423708438873291,3.2417490482330322,1.4495849609375,-0.823974609375,-0.79345703125
1.5562498999999999,-8.71728801727295,-3.466804027557373,3.268085241317749,1.922607421875,-0.823974609375,-0.762939453125
1.5587499,-8.71728801727295,-3.4955344200134277,3.292027235031128,2.0294189453125,-0.9002685546875,-0.701904296875
1.5612499,-8.71489429473877,-3.490746021270752,3.313575267791748,1.953125,-0.8392333984375,-0.67138671875
1.5637499,-8.707711219787598,-3.4524388313293457,3.3279404640197754,1.9683837890625,-0.5645751953125,-0.48828125
1.5662498999999999,-8.698134422302246,-3.3949780464172363,3.3470940589904785,2.044677734375,-0.6561279296875,-0.4425048828125
1.5687499,-8.681375503540039,-3.3303346633911133,3.3518824577331543,1.52587890625,-0.6103515625,-0.4425048828125
1.5712499,-8.65982723236084,-3.2752678394317627,3.35667085647583,1.2359619140625,-0.42724609375,-0.4425048828125
1.5737499,-8.638279914855957,-3.2537200450897217,3.3710360527038574,1.0986328125,-0.5035400390625,-0.5340576171875
1.5762498999999999,-8.628703117370605,-3.2632968425750732,3.3877954483032227,0.9002685546875,-0.518798828125,-0.5035400390625
1.5787499,-8.628703117370605,-3.308786630630493,3.4332852363586426,0.9002685546875,-0.5035400390625,-0.48828125
1.5812499,-8.643068313598633,-3.378218650817871,3.4835634231567383,1.1749267578125,-0.7171630859375,-0.54931640625
1.5837499,-8.65982723236084,-3.4524388313293457,3.5386300086975098,1.708984375,-0.7476806640625,-0.42724609375
1.5862498999999999,-8.678980827331543,-3.509899616241455,3.5913026332855225,1.922607421875,-0.732421875,-0.42724609375
1.5887499,-8.69334602355957,-3.5434184074401855,3.624821424484253,2.13623046875,-1.068115234375,-0.5340576171875
1.5912499,-8.705317497253418,-3.533841609954834,3.6535518169403076,2.166748046875,-1.3427734375,-0.42724609375
1.5937499,-8.707711219787598,-3.490746021270752,3.667917013168335,1.89208984375,-1.15966796875,-0.3662109375
1.5962498999999999,-8.702922821044922,-3.4189200401306152,3.670311212539673,1.4495849609375,-1.03759765625,-0.2899169921875
1.5987499,-8.69095230102539,-3.339911460876465,3.6583402156829834,0.823974609375,-1.068115234375,-0.3662109375
1.6012499,-8.667010307312012,-3.272873640060425,3.6343982219696045,0.5035400390625,-0.7781982421875,-0.457763671875
1.6037499,-8.638279914855957,-3.222595453262329,3.5960910320281982,-0.030517578125,-0.6103515625,-0.1068115234375
1.6062499,-8.614337921142578,-3.19865345954895,3.5482068061828613,-0.3509521484375,-0.6256103515625,0
1.6087498999999998,-8.595184326171875,-3.1962592601776123,3.4979286193847656,-0.732421875,-0.42724609375,0.1678466796875
1.6112499,-8.583212852478027,-3.222595453262329,3.4548330307006836,-0.7781982421875,-0.152587890625,-0.091552734375
1.6137499,-8.585607528686523,-3.272873640060425,3.423708438873291,-0.79345703125,-0.2593994140625,-0.091552734375
1.6162499,-8.595184326171875,-3.3423056602478027,3.4141316413879395,-0.579833984375,-0.457763671875,-0.091552734375
1.6187498999999999,-8.614337921142578,-3.4332852363586426,3.423708438873291,-0.0152587890625,-0.396728515625,-0.152587890625
1.6212499,-8.628703117370605,-3.5170822143554688,3.4380736351013184,0.8392333984375,-0.5035400390625,-0.152587890625
1.6237499,-8.635885238647461,-3.5889084339141846,3.4596214294433594,1.1138916015625,-0.5035400390625,-0.0762939453125
1.6262499,-8.633491516113281,-3.6343982219696045,3.4739866256713867,1.617431640625,-0.5645751953125,-0.2593994140625
1.6287498999999999,-8.62630844116211,-3.6391866207122803,3.4835634231567383,1.8463134765625,-0.48828125,-0.1678466796875
1.6312499,-8.628703117370605,-3.6104562282562256,3.49314022064209,2.0751953125,-0.152587890625,0.1220703125
1.6337499,-8.640673637390137,-3.5434184074401855,3.49314022064209,1.739501953125,-0.091552734375,0.1678466796875
1.6362499,-8.65743350982666,-3.4548330307006836,3.4979286193847656,1.3427734375,-0.2288818359375,0.0762939453125
1.6387498999999999,-8.681375503540039,-3.3662476539611816,3.507505416870117,0.67138671875,-0.3509521484375,0.762939453125
1.6412499,-8.700529098510742,-3.292027235031128,3.5218706130981445,0.3662109375,-0.0152587890625,0.6866455078125
1.6437499,-8.71728801727295,-3.2537200450897217,3.536235809326172,-0.274658203125,-0.06103515625,0.4119873046875
1.6462499,-8.7268648147583,-3.251325845718384,3.5410242080688477,-0.6256103515625,-0.335693359375,0.579833984375
1.6487498999999999,-8.729259490966797,-3.287238836288452,3.536235809326172,-0.8697509765625,-0.2593994140625,0.5950927734375
1.6512499,-8.719682693481445,-3.337517261505127,3.5218706130981445,-0.79345703125,-0.335693359375,0.7781982421875
1.6537499,-8.707711219787598,-3.3925838470458984,3.507505416870117,-0.7171630859375,-0.2593994140625,0.6866455078125
1.6562499,-8.688557624816895,-3.4356794357299805,3.485957622528076,-0.701904296875,0,0.732421875
1.6587498999999999,-8.669404029846191,-3.4548330307006836,3.464409828186035,-0.8697509765625,0,0.579833984375
1.6612499,-8.650250434875488,-3.464409828186035,3.4404678344726562,-0.6256103515625,-0.0457763671875,0.732421875
1.6637499,-8.640673637390137,-3.464409828186035,3.4093432426452637,-0.18310546875,0.06103515625,0.823974609375
1.6662499,-8.631096839904785,-3.4739866256713867,3.383007049560547,-0.1220703125,0.2593994140625,0.6561279296875
1.6687499,-8.638279914855957,-3.4955344200134277,3.359065055847168,0.335693359375,0.1068115234375,0.6866455078125
1.6712498999999998,-8.645462036132812,-3.514688014984131,3.3446998596191406,0.9765625,0.152587890625,0.8087158203125
1.6737499,-8.65743350982666,-3.5242648124694824,3.3494882583618164,0.9918212890625,0.06103515625,0.762939453125
1.6762499,-8.664615631103516,-3.514688014984131,3.359065055847168,1.15966796875,0.1220703125,1.007080078125
1.6787499,-8.664615631103516,-3.490746021270752,3.3877954483032227,1.068115234375,0.396728515625,0.79345703125
1.6812498999999999,-8.664615631103516,-3.466804027557373,3.4141316413879395,0.5645751953125,0.335693359375,0.67138671875
1.6837499,-8.65743350982666,-3.442862033843994,3.442862033843994,0.6256103515625,0.274658203125,0.701904296875
1.6862499,-8.662221908569336,-3.428496837615967,3.4739866256713867,0.8392333984375,0.3509521484375,0.9002685546875
1.6887499,-8.664615631103516,-3.4165258407592773,3.4955344200134277,0.6103515625,0.2899169921875,0.762939453125
1.6912498999999999,-8.674192428588867,-3.3901896476745605,3.5194764137268066,0.7171630859375,0.2899169921875,1.03759765625
1.6937499,-8.676587104797363,-3.3638534545898438,3.5386300086975098,0.4730224609375,0.0762939453125,1.129150390625
1.6962499,-8.678980827331543,-3.3207578659057617,3.552995204925537,0.152587890625,0.1220703125,1.068115234375
1.6987499,-8.681375503540039,-3.2824504375457764,3.5625722408294678,0.213623046875,0.42724609375,1.0223388671875
1.7012498999999999,-8.681375503540039,-3.251325845718384,3.56017804145813,-0.091552734375,0.3814697265625,1.15966796875
1.7037499,-8.676587104797363,-3.2321722507476807,3.552995204925537,-0.5340576171875,0.18310546875,1.0528564453125
1.7062499,-8.674192428588867,-3.224989652633667,3.533841609954834,-0.7171630859375,0.1220703125,1.190185546875
1.7087499,-8.667010307312012,-3.2297780513763428,3.4979286193847656,-0.823974609375,0.06103515625,1.1138916015625
1.7112498999999999,-8.655038833618164,-3.2417490482330322,3.4596214294433594,-0.91552734375,-0.0152587890625,0.701904296875
1.7137499,-8.645462036132812,-3.272873640060425,3.4117374420166016,-0.762939453125,0.091552734375,0.9613037109375
1.7162499,-8.640673637390137,-3.308786630630493,3.3638534545898438,-0.6103515625,0.244140625,1.0223388671875
1.7187499,-8.645462036132812,-3.361459255218506,3.3231520652770996,-0.6256103515625,0.1373291015625,0.8087158203125
1.7212498999999999,-8.65743350982666,-3.4141316413879395,3.287238836288452,-0.274658203125,0.1678466796875,0.9307861328125
1.7237499,-8.676587104797363,-3.4548330307006836,3.2609026432037354,-0.0457763671875,0.091552734375,1.03759765625
1.7262499,-8.69095230102539,-3.4763808250427246,3.2393548488616943,0.3814697265625,-0.0152587890625,0.762939453125
1.7287499,-8.695740699768066,-3.471592426300049,3.227383852005005,0.54931640625,0.1678466796875,0.7171630859375
1.7312499,-8.695740699768066,-3.442862033843994,3.222595453262329,0.79345703125,0.2288818359375,0.9613037109375
1.7337498999999998,-8.69334602355957,-3.399766445159912,3.2130186557769775,0.701904296875,0.1068115234375,0.9307861328125
1.7362499,-8.698134422302246,-3.35667085647583,3.203441858291626,0.732421875,-0.1220703125,0.9307861328125
1.7387499,-8.707711219787598,-3.3231520652770996,3.1962592601776123,0.54931640625,-0.1220703125,0.9918212890625
1.7412499,-8.71728801727295,-3.3063924312591553,3.1938650608062744,0.5340576171875,-0.030517578125,0.885009765625
1.7437498999999999,-8.7268648147583,-3.2992098331451416,3.205836057662964,0.48828125,0.0152587890625,0.9002685546875
1.7462499,-8.731653213500977,-3.3039982318878174,3.2297780513763428,0.274658203125,0.0762939453125,0.823974609375
1.7487499,-8.738836288452148,-3.308786630630493,3.2609026432037354,0.48828125,-0.1220703125,0.885009765625
1.7512499,-8.738836288452148,-3.313575267791748,3.3039982318878174,0.518798828125,0.0457763671875,0.946044921875
1.7537498999999999,-8.738836288452148,-3.3207578659057617,3.3470940589904785,0.54931640625,0.0457763671875,0.7476806640625
1.7562499,-8.729259490966797,-3.3255462646484375,3.3854012489318848,0.579833984375,-0.091552734375,0.6103515625
1.7587499,-8.722076416015625,-3.3279404640197754,3.4189200401306152,0.79345703125,-0.0762939453125,0.6866455078125
1.7612499,-8.712499618530273,-3.3231520652770996,3.4404678344726562,0.91552734375,-0.1373291015625,0.4425048828125
1.7637498999999999,-8.702922821044922,-3.308786630630493,3.4548330307006836,0.8392333984375,-0.18310546875,0.4425048828125
1.7662499,-8.695740699768066,-3.292027235031128,3.4572272300720215,1.0223388671875,-0.2899169921875,0.6256103515625
1.7687499,-8.681375503540039,-3.270479440689087,3.4548330307006836,0.9613037109375,-0.1983642578125,0.6866455078125
1.7712499,-8.669404029846191,-3.251325845718384,3.4524388313293457,0.7781982421875,-0.2288818359375,0.5340576171875
1.7737498999999999,-8.650250434875488,-3.2321722507476807,3.450044631958008,0.3509521484375,0.1678466796875,0.4425048828125
1.7762499,-8.635885238647461,-3.222595453262329,3.4548330307006836,0.2899169921875,0.091552734375,0.4730224609375
1.7787499,-8.619126319885254,-3.224989652633667,3.4620156288146973,0.1678466796875,0.0457763671875,0.6103515625
1.7812499,-8.614337921142578,-3.246537446975708,3.471592426300049,0.1678466796875,-0.06103515625,0.5950927734375
1.7837498999999999,-8.604761123657227,-3.2848446369171143,3.4763808250427246,0.152587890625,0.06103515625,0.42724609375
1.7862499,-8.607154846191406,-3.337517261505127,3.4787750244140625,0.3814697265625,0.0762939453125,0.2593994140625
1.7887499,-8.614337921142578,-3.3901896476745605,3.4811692237854004,0.457763671875,0.18310546875,0.457763671875
1.7912499,-8.628703117370605,-3.4308910369873047,3.4835634231567383,0.762939453125,0.030517578125,0.4119873046875
1.7937499,-8.645462036132812,-3.450044631958008,3.488351821899414,1.2054443359375,0.244140625,0.4730224609375
1.7962498999999998,-8.662221908569336,-3.442862033843994,3.4979286193847656,1.03759765625,0.274658203125,0.5340576171875
1.7987499,-8.671798706054688,-3.4093432426452637,3.5051112174987793,0.946044921875,0.2593994140625,0.4425048828125
1.8012499,-8.674192428588867,-3.3710360527038574,3.5051112174987793,0.823974609375,0.2899169921875,0.30517578125
1.8037499,-8.669404029846191,-3.335123062133789,3.4979286193847656,0.3662109375,0.3509521484375,0.244140625
1.8062498999999999,-8.664615631103516,-3.3231520652770996,3.488351821899414,0.1983642578125,0.54931640625,0.396728515625
1.8087499,-8.664615631103516,-3.337517261505127,3.471592426300049,0.3814697265625,0.5950927734375,0.6256103515625
1.8112499,-8.671798706054688,-3.3686418533325195,3.466804027557373,0.5035400390625,0.213623046875,0.5645751953125
1.8137499,-8.688557624816895,-3.40216064453125,3.4596214294433594,0.701904296875,0.30517578125,0.579833984375
1.8162498999999999,-8.705317497253418,-3.4189200401306152,3.4572272300720215,0.7171630859375,0.42724609375,0.732421875
1.8187499,-8.719682693481445,-3.4165258407592773,3.4524388313293457,0.5950927734375,0.4425048828125,0.823974609375
1.8212499,-8.731653213500977,-3.3925838470458984,3.4548330307006836,0.5645751953125,0.67138671875,0.640869140625
1.8237499,-8.734047889709473,-3.3638534545898438,3.4572272300720215,0.30517578125,0.30517578125,0.457763671875
1.8262498999999999,-8.734047889709473,-3.335123062133789,3.4596214294433594,0.2899169921875,0.0152587890625,0.518798828125
1.8287499,-8.729259490966797,-3.315969467163086,3.4548330307006836,0.2899169921875,-0.0457763671875,0.4730224609375
1.8312499,-8.722076416015625,-3.308786630630493,3.4404678344726562,0.3662109375,-0.1373291015625,0.6103515625
1.8337499,-8.707711219787598,-3.308786630630493,3.423708438873291,-0.1373291015625,-0.0762939453125,0.5950927734375
1.8362498999999999,-8.695740699768066,-3.31118106842041,3.404554843902588,-0.1983642578125,-0.091552734375,0.732421875
1.8387499,-8.681375503540039,-3.315969467163086,3.397372245788574,-0.2288818359375,0.18310546875,0.6866455078125
1.8412499,-8.678980827331543,-3.315969467163086,3.3925838470458984,-0.4119873046875,0.0152587890625,0.701904296875
1.8437499,-8.683769226074219,-3.313575267791748,3.40216064453125,-0.213623046875,0.0457763671875,0.6256103515625
1.8462498999999999,-8.69334602355957,-3.313575267791748,3.404554843902588,-0.06103515625,-0.1068115234375,0.4425048828125
1.8487499,-8.707711219787598,-3.31118106842041,3.406949043273926,-0.1678466796875,-0.1678466796875,0.2899169921875
1.8512499,-8.719682693481445,-3.315969467163086,3.3949780464172363,-0.0152587890625,0.0152587890625,0.42724609375
1.8537499,-8.7268648147583,-3.318363666534424,3.383007049560547,0.1220703125,-0.0152587890625,0.5340576171875
1.8562499,-8.729259490966797,-3.3207578659057617,3.3662476539611816,0.18310546875,-0.3204345703125,0.2593994140625
1.8587498999999998,-8.729259490966797,-3.3207578659057617,3.3518824577331543,0.1373291015625,-0.2288818359375,0.4425048828125
1.8612499,-8.712499618530273,-3.315969467163086,3.337517261505127,0,-0.335693359375,0.396728515625
1.8637499,-8.702922821044922,-3.313575267791748,3.3303346633911133,0.0152587890625,-0.2593994140625,0.5035400390625
1.8662499,-8.69095230102539,-3.3207578659057617,3.337517261505127,-0.0152587890625,-0.0457763671875,0.579833984375
1.8687498999999999,-8.683769226074219,-3.332728862762451,3.3446998596191406,-0.1068115234375,-0.1373291015625,0.5035400390625
1.8712499,-8.69095230102539,-3.375824451446533,3.3734302520751953,0.3509521484375,-0.2899169921875,0.5645751953125
1.8737499,-8.69095230102539,-3.375824451446533,3.3734302520751953,0.3509521484375,-0.2899169921875,0.5645751953125
1.8762499,-8.695740699768066,-3.4093432426452637,3.380612850189209,0.4425048828125,-0.18310546875,0.6103515625
1.8787498999999999,-8.695740699768066,-3.4093432426452637,3.380612850189209,0.4425048828125,-0.18310546875,0.6103515625
1.8812499,-8.678980827331543,-3.3925838470458984,3.3638534545898438,0.7476806640625,-0.2899169921875,0.5950927734375
1.8837499,-8.678980827331543,-3.3925838470458984,3.3638534545898438,0.7476806640625,-0.2899169921875,0.5950927734375
1.8862499,-8.655038833618164,-3.308786630630493,3.332728862762451,0.1220703125,-0.3662109375,0.7171630859375
1.8887498999999999,-8.655038833618164,-3.308786630630493,3.332728862762451,0.1220703125,-0.3662109375,0.7171630859375
1.8912499,-8.652645111083984,-3.222595453262329,3.308786630630493,-0.0457763671875,-0.06103515625,0.5950927734375
1.8937499,-8.652645111083984,-3.222595453262329,3.308786630630493,-0.0457763671875,-0.06103515625,0.5950927734375
1.8962499,-8.662221908569336,-3.2154128551483154,3.3231520652770996,-0.0152587890625,-0.1678466796875,0.5035400390625
1.8987498999999999,-8.662221908569336,-3.2154128551483154,3.3231520652770996,-0.0152587890625,-0.1678466796875,0.5035400390625
1.9012499,-8.65982723236084,-3.270479440689087,3.378218650817871,0.2288818359375,-0.3662109375,0.2593994140625
1.9037499,-8.65982723236084,-3.270479440689087,3.378218650817871,0.2288818359375,-0.3662109375,0.2593994140625
1.9062499,-8.652645111083984,-3.35667085647583,3.445256233215332,0.6256103515625,-0.1373291015625,0.4425048828125
1.9087498999999999,-8.652645111083984,-3.35667085647583,3.445256233215332,0.6256103515625,-0.1373291015625,0.4425048828125
1.9112499,-8.662221908569336,-3.4117374420166016,3.5003228187561035,0.8697509765625,-0.1678466796875,0.244140625
1.9137499,-8.662221908569336,-3.4117374420166016,3.5003228187561035,0.8697509765625,-0.1678466796875,0.244140625
1.9162499,-8.676587104797363,-3.3901896476745605,3.536235809326172,0.732421875,-0.2899169921875,0.3662109375
1.9187499,-8.676587104797363,-3.3901896476745605,3.536235809326172,0.732421875,-0.2899169921875,0.3662109375
1.9212498999999998,-8.674192428588867,-3.3446998596191406,3.5625722408294678,0.457763671875,-0.1983642578125,0.244140625
1.9237499,-8.674192428588867,-3.3446998596191406,3.5625722408294678,0.457763671875,-0.1983642578125,0.244140625
1.9262499,-8.65743350982666,-3.335123062133789,3.5673606395721436,0.213623046875,-0.2593994140625,0.6561279296875
1.9287499,-8.65743350982666,-3.335123062133789,3.5673606395721436,0.213623046875,-0.2593994140625,0.6561279296875
1.9312498999999999,-8.652645111083984,-3.3686418533325195,3.557783842086792,-0.274658203125,0.244140625,0.5035400390625
1.9337499,-8.652645111083984,-3.3686418533325195,3.557783842086792,-0.274658203125,0.244140625,0.5035400390625
1.9362499,-8.669404029846191,-3.4093432426452637,3.56017804145813,0,0.1220703125,0.6103515625
1.9387499,-8.669404029846191,-3.4093432426452637,3.56017804145813,0,0.1220703125,0.6103515625
1.9412498999999999,-8.671798706054688,-3.4356794357299805,3.552995204925537,0.4119873046875,0.091552734375,0.54931640625
1.9437499,-8.671798706054688,-3.4356794357299805,3.552995204925537,0.4119873046875,0.091552734375,0.54931640625
1.9462499,-8.664615631103516,-3.4596214294433594,3.5218706130981445,0.396728515625,0.213623046875,0.6866455078125
1.9487499,-8.664615631103516,-3.4596214294433594,3.5218706130981445,0.396728515625,0.213623046875,0.6866455078125
1.9512498999999999,-8.681375503540039,-3.464409828186035,3.4811692237854004,0.7781982421875,0.396728515625,0.9307861328125
1.9537499,-8.681375503540039,-3.464409828186035,3.4811692237854004,0.7781982421875,0.396728515625,0.9307861328125
1.9562499,-8.705317497253418,-3.406949043273926,3.4380736351013184,0.579833984375,0.274658203125,0.946044921875
1.9587499,-8.705317497253418,-3.406949043273926,3.4380736351013184,0.579833984375,0.274658203125,0.946044921875
1.9612498999999999,-8.700529098510742,-3.315969467163086,3.4117374420166016,-0.152587890625,0.5035400390625,0.9765625
1.9637499,-8.700529098510742,-3.315969467163086,3.4117374420166016,-0.152587890625,0.5035400390625,0.9765625
1.9662499,-8.688557624816895,-3.272873640060425,3.3925838470458984,-0.091552734375,0.3814697265625,0.9307861328125
1.9687499,-8.688557624816895,-3.272873640060425,3.3925838470458984,-0.091552734375,0.3814697265625,0.9307861328125
1.9712498999999999,-8.702922821044922,-3.3039982318878174,3.3734302520751953,-0.1068115234375,0.244140625,1.0528564453125
1.9737499,-8.702922821044922,-3.3039982318878174,3.3734302520751953,-0.1068115234375,0.244140625,1.0528564453125
1.9762499,-8.729259490966797,-3.337517261505127,3.3494882583618164,0.152587890625,0.2288818359375,0.91552734375
1.9787499,-8.729259490966797,-3.337517261505127,3.3494882583618164,0.152587890625,0.2288818359375,0.91552734375
1.9812499,-8.724471092224121,-3.337517261505127,3.318363666534424,0.030517578125,-0.0457763671875,1.007080078125
1.9837499,-8.724471092224121,-3.337517261505127,3.318363666534424,0.030517578125,-0.0457763671875,1.007080078125
1.9862499,-8.686163902282715,-3.31118106842041,3.2800562381744385,0.30517578125,0.0457763671875,0.6256103515625
1.9887499,-8.671798706054688,-3.2992098331451416,3.2632968425750732,0.3509521484375,-0.3662109375,0.9918212890625
1.9912499,-8.664615631103516,-3.28963303565979,3.246537446975708,0.3662109375,-0.152587890625,0.9002685546875
1.9937498999999999,-8.669404029846191,-3.287238836288452,3.2321722507476807,0.30517578125,0.152587890625,0.8697509765625
1.9962499,-8.683769226074219,-3.28963303565979,3.227383852005005,0.274658203125,0.030517578125,0.79345703125
1.9987499,-8.705317497253418,-3.2968156337738037,3.222595453262329,0.6103515625,-0.1373291015625,0.823974609375
2.0012499,-8.729259490966797,-3.3016040325164795,3.227383852005005,0.3814697265625,-0.1220703125,0.823974609375
2.0037499,-8.746018409729004,-3.308786630630493,3.2393548488616943,0.8544921875,-0.4425048828125,0.762939453125
2.0062499,-8.753201484680176,-3.3016040325164795,3.248931646347046,0.823974609375,-0.244140625,0.823974609375
2.0087498999999998,-8.75080680847168,-3.294421434402466,3.248931646347046,0.9002685546875,-0.4425048828125,0.762939453125
2.0112499,-8.734047889709473,-3.2776620388031006,3.248931646347046,0.8697509765625,-0.6103515625,0.8087158203125
2.0137499,-8.707711219787598,-3.268085241317749,3.2417490482330322,0.5340576171875,-0.5340576171875,0.762939453125
2.0162499,-8.683769226074219,-3.268085241317749,3.2369606494903564,0.1678466796875,-0.762939453125,0.7171630859375
2.0187499,-8.671798706054688,-3.2776620388031006,3.24414324760437,0.1678466796875,-0.7171630859375,0.48828125
2.0212499,-8.676587104797363,-3.2992098331451416,3.2561142444610596,0.335693359375,-0.885009765625,0.457763671875
2.0237499,-8.695740699768066,-3.335123062133789,3.2752678394317627,0.701904296875,-0.7171630859375,0.579833984375
2.0262499,-8.71728801727295,-3.3686418533325195,3.2992098331451416,1.007080078125,-0.8544921875,0.6103515625
2.0287498999999998,-8.731653213500977,-3.3949780464172363,3.3207578659057617,1.1749267578125,-1.2359619140625,0.7171630859375
2.0312499,-8.731653213500977,-3.4093432426452637,3.335123062133789,1.15966796875,-1.068115234375,0.6256103515625
2.0337499,-8.722076416015625,-3.4117374420166016,3.3470940589904785,1.3427734375,-1.2054443359375,0.54931640625
2.0362499,-8.700529098510742,-3.40216064453125,3.3494882583618164,1.1444091796875,-1.2664794921875,0.54931640625
2.0387499,-8.683769226074219,-3.3901896476745605,3.354276657104492,1.1138916015625,-1.129150390625,0.6103515625
2.0412499,-8.671798706054688,-3.3734302520751953,3.359065055847168,0.9613037109375,-0.91552734375,0.701904296875
2.0437499,-8.669404029846191,-3.3638534545898438,3.3710360527038574,1.0833740234375,-0.9613037109375,0.4730224609375
2.0462499,-8.674192428588867,-3.354276657104492,3.3925838470458984,0.946044921875,-1.0528564453125,0.67138671875
2.0487499,-8.681375503540039,-3.354276657104492,3.4141316413879395,1.0833740234375,-1.40380859375,0.9307861328125
2.0512498999999997,-8.683769226074219,-3.354276657104492,3.4380736351013184,0.9918212890625,-0.946044921875,0.762939453125
2.0537499,-8.681375503540039,-3.359065055847168,3.450044631958008,0.79345703125,-1.068115234375,0.48828125
2.0562499,-8.671798706054688,-3.35667085647583,3.4620156288146973,1.1138916015625,-1.2359619140625,0.5035400390625
2.0587499,-8.65982723236084,-3.354276657104492,3.4620156288146973,1.3275146484375,-1.15966796875,0.4425048828125
2.0612499,-8.640673637390137,-3.3446998596191406,3.469198226928711,1.312255859375,-0.91552734375,0.6866455078125
2.0637499,-8.62630844116211,-3.339911460876465,3.4787750244140625,1.556396484375,-1.068115234375,0.5645751953125
2.0662499,-8.621520042419434,-3.332728862762451,3.488351821899414,1.2969970703125,-0.9765625,0.48828125
2.0687499,-8.633491516113281,-3.332728862762451,3.5003228187561035,1.617431640625,-0.8087158203125,0.579833984375
2.0712498999999998,-8.655038833618164,-3.3279404640197754,3.512293815612793,1.556396484375,-1.0223388671875,0.8087158203125
2.0737499,-8.678980827331543,-3.318363666534424,3.5218706130981445,1.708984375,-0.9307861328125,0.7171630859375
2.0762499,-8.69095230102539,-3.3063924312591553,3.5218706130981445,1.6632080078125,-1.2664794921875,0.6561279296875
2.0787499,-8.69095230102539,-3.2848446369171143,3.529053211212158,1.5716552734375,-0.9613037109375,0.640869140625
2.0812499,-8.674192428588867,-3.2632968425750732,3.5218706130981445,1.4495849609375,-1.0528564453125,0.54931640625
2.0837499,-8.65743350982666,-3.2417490482330322,3.514688014984131,1.0833740234375,-0.9613037109375,0.42724609375
2.0862499,-8.643068313598633,-3.224989652633667,3.5027170181274414,1.0223388671875,-0.9307861328125,0.54931640625
2.0887499,-8.645462036132812,-3.2178070545196533,3.485957622528076,0.91552734375,-0.9613037109375,0.42724609375
2.0912498999999998,-8.65982723236084,-3.2154128551483154,3.4739866256713867,0.91552734375,-1.0986328125,0.579833984375
2.0937499,-8.686163902282715,-3.2178070545196533,3.469198226928711,0.9002685546875,-0.8697509765625,0.396728515625
2.0962499,-8.710105895996094,-3.222595453262329,3.466804027557373,0.9613037109375,-1.068115234375,0.518798828125
2.0987499,-8.734047889709473,-3.227383852005005,3.464409828186035,0.8544921875,-1.068115234375,0.457763671875
2.1012499,-8.743624687194824,-3.2297780513763428,3.4620156288146973,0.91552734375,-1.28173828125,0.335693359375
2.1037499,-8.75080680847168,-3.2345664501190186,3.4572272300720215,0.8087158203125,-1.4190673828125,0.3509521484375
2.1062499,-8.743624687194824,-3.246537446975708,3.450044631958008,0.640869140625,-1.2359619140625,0.335693359375
2.1087499,-8.736441612243652,-3.2537200450897217,3.445256233215332,0.732421875,-1.0986328125,0.1678466796875
2.1112499,-8.724471092224121,-3.268085241317749,3.4356794357299805,0.5950927734375,-1.3580322265625,0.213623046875
2.1137498999999997,-8.722076416015625,-3.2752678394317627,3.4308910369873047,0.6561279296875,-1.5106201171875,0.1983642578125
2.1162499,-8.7268648147583,-3.2824504375457764,3.426102638244629,0.6561279296875,-1.3885498046875,0.6561279296875
2.1187499,-8.738836288452148,-3.287238836288452,3.423708438873291,0.701904296875,-1.40380859375,0.79345703125
2.1212499,-8.75080680847168,-3.294421434402466,3.421314239501953,0.7171630859375,-1.4495849609375,0.274658203125
2.1237499,-8.757989883422852,-3.2992098331451416,3.423708438873291,0.518798828125,-1.4495849609375,0.1373291015625
2.1262499,-8.753201484680176,-3.3016040325164795,3.421314239501953,0.4425048828125,-1.312255859375,0.1068115234375
2.1287499,-8.741230010986328,-3.3016040325164795,3.4165258407592773,0.7476806640625,-1.5869140625,0.18310546875
2.1312499,-8.724471092224121,-3.3016040325164795,3.4165258407592773,0.7476806640625,-1.77001953125,0.2593994140625
2.1337498999999998,-8.707711219787598,-3.3063924312591553,3.4117374420166016,0.396728515625,-1.4190673828125,0.274658203125
2.1362499,-8.698134422302246,-3.313575267791748,3.4141316413879395,0.5340576171875,-1.5411376953125,0.244140625
2.1387499,-8.700529098510742,-3.3231520652770996,3.4189200401306152,0.701904296875,-1.7852783203125,0.30517578125
2.1412499,-8.702922821044922,-3.3279404640197754,3.4308910369873047,0.9307861328125,-1.3427734375,0.2899169921875
2.1437499,-8.712499618530273,-3.3231520652770996,3.442862033843994,0.7171630859375,-1.40380859375,0.42724609375
2.1462499,-8.71489429473877,-3.313575267791748,3.44765043258667,0.9613037109375,-1.7852783203125,0.091552734375
2.1487499,-8.712499618530273,-3.2992098331451416,3.450044631958008,1.2054443359375,-1.739501953125,0.1220703125
2.1512499,-8.698134422302246,-3.287238836288452,3.442862033843994,0.91552734375,-1.64794921875,0.274658203125
2.1537498999999998,-8.681375503540039,-3.2800562381744385,3.4356794357299805,0.762939453125,-1.5869140625,0.3814697265625
2.1562499,-8.65982723236084,-3.2848446369171143,3.421314239501953,0.701904296875,-1.4801025390625,0.335693359375
2.1587499,-8.647856712341309,-3.3039982318878174,3.4141316413879395,0.5950927734375,-1.5716552734375,0.244140625
2.1612499,-8.650250434875488,-3.335123062133789,3.404554843902588,0.48828125,-1.5411376953125,0.3814697265625
2.1637499,-8.65743350982666,-3.3734302520751953,3.40216064453125,0.640869140625,-1.64794921875,0.3204345703125
2.1662499,-8.667010307312012,-3.4117374420166016,3.40216064453125,0.762939453125,-1.7242431640625,0.5645751953125
2.1687499,-8.669404029846191,-3.4380736351013184,3.406949043273926,0.885009765625,-1.77001953125,0.5645751953125
2.1712499,-8.664615631103516,-3.4524388313293457,3.4117374420166016,1.007080078125,-1.77001953125,0.5340576171875
2.1737499,-8.655038833618164,-3.44765043258667,3.4141316413879395,1.15966796875,-1.617431640625,0.48828125
2.1762499,-8.647856712341309,-3.4332852363586426,3.4141316413879395,0.9918212890625,-1.8310546875,0.6866455078125
2.1787499,-8.638279914855957,-3.406949043273926,3.4093432426452637,1.1138916015625,-1.77001953125,0.823974609375
2.1812499,-8.631096839904785,-3.380612850189209,3.399766445159912,1.0223388671875,-1.6326904296875,0.91552734375
2.1837499,-8.631096839904785,-3.35667085647583,3.3854012489318848,0.7171630859375,-1.77001953125,0.8544921875
2.1862499,-8.643068313598633,-3.3423056602478027,3.3734302520751953,0.885009765625,-2.105712890625,0.946044921875
2.1887499,-8.65743350982666,-3.3423056602478027,3.3638534545898438,0.762939453125,-1.953125,0.762939453125
2.1912499,-8.678980827331543,-3.359065055847168,3.3638534545898438,0.9307861328125,-2.3040771484375,1.15966796875
2.1937499,-8.69095230102539,-3.3854012489318848,3.3734302520751953,0.9307861328125,-2.3345947265625,1.1444091796875
2.1962498999999998,-8.695740699768066,-3.4117374420166016,3.3854012489318848,0.7171630859375,-2.3651123046875,1.129150390625
2.1987499,-8.688557624816895,-3.4356794357299805,3.399766445159912,0.732421875,-2.4871826171875,1.007080078125
2.2012499,-8.678980827331543,-3.4548330307006836,3.4117374420166016,0.8392333984375,-2.38037109375,1.0528564453125
2.2037499,-8.671798706054688,-3.471592426300049,3.421314239501953,0.579833984375,-2.3345947265625,1.2359619140625
2.2062499,-8.664615631103516,-3.4835634231567383,3.426102638244629,0.8544921875,-2.227783203125,1.40380859375
2.2087499,-8.664615631103516,-3.488351821899414,3.421314239501953,1.1138916015625,-2.0904541015625,1.3580322265625
2.2112499,-8.669404029846191,-3.4835634231567383,3.4189200401306152,1.1138916015625,-2.166748046875,1.312255859375
2.2137499,-8.676587104797363,-3.469198226928711,3.4165258407592773,1.5106201171875,-2.25830078125,1.46484375
2.2162498999999998,-8.678980827331543,-3.44765043258667,3.423708438873291,1.40380859375,-2.3345947265625,1.7242431640625
2.2187499,-8.678980827331543,-3.423708438873291,3.4332852363586426,1.3885498046875,-2.349853515625,1.5716552734375
2.2212499,-8.676587104797363,-3.40216064453125,3.442862033843994,1.495361328125,-2.166748046875,1.64794921875
2.2237499,-8.676587104797363,-3.380612850189209,3.445256233215332,1.5716552734375,-2.197265625,1.64794921875
2.2262499,-8.676587104797363,-3.3638534545898438,3.442862033843994,1.64794921875,-2.50244140625,1.6937255859375
2.2287499,-8.688557624816895,-3.3494882583618164,3.4404678344726562,1.5869140625,-2.6397705078125,1.64794921875
2.2312499,-8.707711219787598,-3.3303346633911133,3.4356794357299805,1.678466796875,-2.5787353515625,1.6937255859375
2.2337499,-8.722076416015625,-3.313575267791748,3.4404678344726562,1.64794921875,-2.7313232421875,1.7852783203125
2.2362499,-8.722076416015625,-3.2968156337738037,3.445256233215332,1.6632080078125,-2.777099609375,1.9378662109375
2.2387499,-8.710105895996094,-3.270479440689087,3.4524388313293457,1.5411376953125,-2.7923583984375,1.7242431640625
2.2412499,-8.678980827331543,-3.2537200450897217,3.4596214294433594,1.220703125,-2.685546875,1.7242431640625
2.2437499,-8.65743350982666,-3.2393548488616943,3.466804027557373,1.3580322265625,-2.7008056640625,1.8463134765625
2.2462499,-8.652645111083984,-3.2297780513763428,3.4739866256713867,1.312255859375,-2.593994140625,1.678466796875
2.2487499,-8.669404029846191,-3.2345664501190186,3.4811692237854004,1.28173828125,-2.74658203125,1.5411376953125
2.2512499,-8.705317497253418,-3.2321722507476807,3.4835634231567383,1.40380859375,-3.021240234375,1.5869140625
2.2537499,-8.738836288452148,-3.222595453262329,3.4835634231567383,1.3427734375,-3.2196044921875,1.617431640625
2.2562499,-8.765172004699707,-3.2106244564056396,3.4763808250427246,1.434326171875,-3.2196044921875,1.6326904296875
2.2587498999999998,-8.786720275878906,-3.1938650608062744,3.469198226928711,1.4801025390625,-3.326416015625,1.7242431640625
2.2612499,-8.801085472106934,-3.177105665206909,3.4620156288146973,1.0986328125,-3.3721923828125,1.3275146484375
2.2637499,-8.815450668334961,-3.1675288677215576,3.4596214294433594,0.9307861328125,-3.814697265625,1.312255859375
2.2662499,-8.829815864562988,-3.160346269607544,3.4548330307006836,0.79345703125,-3.9520263671875,1.2359619140625
2.2687499,-8.834604263305664,-3.1651346683502197,3.4548330307006836,0.67138671875,-4.180908203125,1.2969970703125
2.2712499,-8.832210540771484,-3.1699230670928955,3.4404678344726562,0.396728515625,-4.180908203125,1.3580322265625
2.2737499,-8.810662269592285,-3.1747114658355713,3.423708438873291,0.2288818359375,-4.302978515625,1.2359619140625
2.2762499,-8.78193187713623,-3.179499864578247,3.397372245788574,-0.030517578125,-4.302978515625,1.15966796875
2.2787498999999998,-8.75080680847168,-3.1914708614349365,3.3710360527038574,-0.274658203125,-4.241943359375,1.1444091796875
2.2812499,-8.731653213500977,-3.2154128551483154,3.3470940589904785,-0.1678466796875,-4.1351318359375,1.0986328125
2.2837499,-8.7268648147583,-3.248931646347046,3.3303346633911133,0.030517578125,-4.3792724609375,1.190185546875
2.2862499,-8.731653213500977,-3.2824504375457764,3.318363666534424,0.4119873046875,-4.3182373046875,1.068115234375
2.2887499,-8.741230010986328,-3.313575267791748,3.3016040325164795,0.7171630859375,-4.4097900390625,1.190185546875
2.2912499,-8.7484130859375,-3.332728862762451,3.2848446369171143,0.9307861328125,-4.730224609375,1.1444091796875
2.2937499,-8.7484130859375,-3.337517261505127,3.270479440689087,1.0833740234375,-4.5013427734375,0.9307861328125
2.2962499,-8.75080680847168,-3.337517261505127,3.2561142444610596,1.220703125,-4.486083984375,0.885009765625
2.2987499,-8.755595207214355,-3.3303346633911133,3.2585084438323975,1.4495849609375,-4.45556640625,0.8392333984375
2.3012499,-8.772355079650879,-3.3255462646484375,3.270479440689087,1.5869140625,-4.486083984375,0.9307861328125
2.3037499,-8.789113998413086,-3.315969467163086,3.2992098331451416,1.77001953125,-4.8675537109375,0.701904296875
2.3062499,-8.798690795898438,-3.308786630630493,3.332728862762451,2.105712890625,-5.035400390625,0.732421875
2.3087499,-8.808267593383789,-3.287238836288452,3.3662476539611816,2.3040771484375,-4.9285888671875,0.79345703125
2.3112499,-8.798690795898438,-3.2632968425750732,3.3901896476745605,2.0751953125,-4.8980712890625,0.91552734375
2.3137499,-8.786720275878906,-3.2345664501190186,3.4117374420166016,2.044677734375,-5.0506591796875,0.7781982421875
2.3162499,-8.769960403442383,-3.205836057662964,3.4380736351013184,2.1209716796875,-5.18798828125,0.7781982421875
2.3187499,-8.757989883422852,-3.1747114658355713,3.469198226928711,2.227783203125,-5.126953125,0.5950927734375
2.3212498999999998,-8.75080680847168,-3.1483752727508545,3.512293815612793,1.8768310546875,-5.0048828125,0.5035400390625
2.3237499,-8.753201484680176,-3.1220390796661377,3.5625722408294678,1.9378662109375,-5.584716796875,0.67138671875
2.3262499,-8.760383605957031,-3.1100680828094482,3.6080620288848877,1.9683837890625,-5.7373046875,0.518798828125
2.3287499,-8.772355079650879,-3.1076738834381104,3.6559460163116455,1.922607421875,-5.615234375,0.518798828125
2.3312499,-8.78193187713623,-3.114856481552124,3.6942532062530518,1.8768310546875,-5.5694580078125,0.335693359375
2.3337499,-8.798690795898438,-3.1220390796661377,3.7205893993377686,1.8463134765625,-6.378173828125,0.06103515625
2.3362499,-8.813055992126465,-3.114856481552124,3.734954595565796,1.8157958984375,-6.4697265625,0.3509521484375
2.3387499,-8.827422142028809,-3.090914487838745,3.732560396194458,1.6021728515625,-6.5765380859375,0.244140625
2.3412498999999998,-8.834604263305664,-3.0573954582214355,3.713406801223755,1.15966796875,-6.89697265625,0.244140625
2.3437499,-8.834604263305664,-3.0142998695373535,3.6798880100250244,0.6561279296875,-6.988525390625,0.3204345703125
2.3462499,-8.829815864562988,-2.9879636764526367,3.643975019454956,0.1983642578125,-7.293701171875,0.0762939453125
2.3487499,-8.834604263305664,-2.983175277709961,3.6080620288848877,-0.274658203125,-7.4920654296875,0.030517578125
2.3512499,-8.844181060791016,-3.0095114707946777,3.576937437057495,-0.8087158203125,-7.7667236328125,0.42724609375
2.3537499,-8.856152534484863,-3.071760892868042,3.552995204925537,-0.8544921875,-8.575439453125,0.2899169921875
2.3562499,-8.868123054504395,-3.1531636714935303,3.5242648124694824,-0.946044921875,-8.941650390625,0.335693359375
2.3587499,-8.868123054504395,-3.2369606494903564,3.488351821899414,-0.7476806640625,-9.1400146484375,0.4425048828125
2.3612499,-8.853757858276367,-3.31118106842041,3.44765043258667,-0.9765625,-9.33837890625,0.4119873046875
2.3637499,-8.832210540771484,-3.3710360527038574,3.4093432426452637,-0.946044921875,-9.521484375,0.518798828125
2.3662499,-8.801085472106934,-3.4189200401306152,3.3686418533325195,-0.9613037109375,-10.07080078125,0.4425048828125
2.3687499,-8.769960403442383,-3.4572272300720215,3.3255462646484375,-0.823974609375,-10.2691650390625,0.396728515625
2.3712499,-8.738836288452148,-3.4955344200134277,3.2776620388031006,-0.8544921875,-10.223388671875,0.6103515625
2.3737499,-8.71489429473877,-3.5242648124694824,3.220201253890991,-0.701904296875,-10.4827880859375,0.8697509765625
2.3762499,-8.698134422302246,-3.550601005554199,3.155557870864868,-0.640869140625,-10.6658935546875,1.1749267578125
2.3787499,-8.698134422302246,-3.5721490383148193,3.090914487838745,-0.4119873046875,-10.92529296875,1.2969970703125
2.3812499,-8.69334602355957,-3.5960910320281982,3.0358476638793945,-0.0762939453125,-11.322021484375,1.4801025390625
2.3837498999999998,-8.69334602355957,-3.620033025741577,2.985569477081299,0.1220703125,-11.5509033203125,1.4495849609375
2.3862499,-8.69334602355957,-3.643975019454956,2.956839084625244,0.6256103515625,-11.90185546875,1.5411376953125
2.3887499,-8.69334602355957,-3.667917013168335,2.942473888397217,0.885009765625,-12.0697021484375,1.495361328125
2.3912499,-8.705317497253418,-3.687070608139038,2.935291290283203,1.1749267578125,-12.4664306640625,1.6021728515625
2.3937499,-8.71728801727295,-3.7014358043670654,2.937685489654541,1.556396484375,-12.8173828125,1.983642578125
2.3962499,-8.738836288452148,-3.7038300037384033,2.935291290283203,1.922607421875,-13.0462646484375,2.13623046875
2.3987499,-8.753201484680176,-3.7038300037384033,2.937685489654541,2.3193359375,-13.5955810546875,2.5177001953125
2.4012499,-8.762778282165527,-3.6990416049957275,2.935291290283203,2.5787353515625,-13.9312744140625,2.5177001953125
2.4037498999999998,-8.762778282165527,-3.691859006881714,2.9281086921691895,2.5634765625,-14.16015625,2.5177001953125
2.4062499,-8.755595207214355,-3.6942532062530518,2.920926094055176,2.7313232421875,-14.678955078125,2.8076171875
2.4087499,-8.75080680847168,-3.689464807510376,2.9161376953125,3.0059814453125,-15.045166015625,3.0059814453125
2.4112499,-8.755595207214355,-3.6942532062530518,2.913743495941162,3.173828125,-15.5792236328125,3.1280517578125
2.4137499,-8.774748802185059,-3.6942532062530518,2.9233202934265137,3.143310546875,-16.0980224609375,3.1280517578125
2.4162499,-8.796297073364258,-3.706224203109741,2.937685489654541,3.3111572265625,-16.632080078125,3.3721923828125
2.4187499,-8.815450668334961,-3.7181951999664307,2.9688100814819336,3.6468505859375,-17.120361328125,3.6468505859375
2.4212499,-8.825027465820312,-3.7397429943084717,2.9951462745666504,4.1046142578125,-17.63916015625,4.0435791015625
2.4237499,-8.83699893951416,-3.7612907886505127,3.023876667022705,4.2724609375,-18.12744140625,3.936767578125
2.4262499,-8.844181060791016,-3.7828385829925537,3.047818660736084,4.150390625,-18.7835693359375,4.119873046875
2.4287499,-8.846575736999512,-3.801992416381836,3.050212860107422,4.5013427734375,-19.3023681640625,4.364013671875
2.4312499,-8.841787338256836,-3.801992416381836,3.050212860107422,4.8065185546875,-19.8211669921875,4.4708251953125
2.4337499,-8.846575736999512,-3.778050184249878,3.0406360626220703,4.8675537109375,-20.4925537109375,4.6844482421875
2.4362499,-8.858546257019043,-3.734954595565796,3.0334534645080566,4.9591064453125,-21.1029052734375,5.218505859375
2.4387499,-8.892065048217773,-3.6822822093963623,3.0334534645080566,5.0048828125,-21.4996337890625,5.2947998046875
2.4412499,-8.93037223815918,-3.6296098232269287,3.0310592651367188,5.1116943359375,-22.0184326171875,5.523681640625
2.4437499,-8.956708908081055,-3.5673606395721436,3.028665065765381,5.5999755859375,-23.01025390625,5.828857421875
2.4462498999999998,-8.971074104309082,-3.490746021270752,3.0334534645080566,5.462646484375,-23.6968994140625,6.072998046875
2.4487499,-8.983044624328613,-3.397372245788574,3.0550012588500977,5.157470703125,-24.2462158203125,6.2255859375
2.4512499,-9.014169692993164,-3.315969467163086,3.090914487838745,5.035400390625,-25.1007080078125,6.0882568359375
2.4537499,-9.078812599182129,-3.2632968425750732,3.1483752727508545,5.18798828125,-26.123046875,6.134033203125
2.4562499,-9.162610054016113,-3.251325845718384,3.2106244564056396,5.096435546875,-27.130126953125,5.9814453125
2.4587499,-9.248801231384277,-3.2561142444610596,3.270479440689087,5.401611328125,-28.2440185546875,6.0577392578125
2.4612499,-9.394847869873047,-3.2561142444610596,3.3949780464172363,5.157470703125,-30.2734375,6.1492919921875
2.4637499,-9.394847869873047,-3.2561142444610596,3.3949780464172363,5.157470703125,-30.2734375,6.1492919921875
2.4662498999999998,-9.545681953430176,-3.2321722507476807,3.514688014984131,5.18798828125,-32.470703125,6.5155029296875
2.4687499,-9.545681953430176,-3.2321722507476807,3.514688014984131,5.18798828125,-32.470703125,6.5155029296875
2.4712499,-9.696516990661621,-3.1723172664642334,3.5673606395721436,4.6844482421875,-34.9884033203125,6.744384765625
2.4737499,-9.696516990661621,-3.1723172664642334,3.5673606395721436,4.6844482421875,-34.9884033203125,6.744384765625
2.4762499,-9.737217903137207,-3.0142998695373535,3.531447410583496,3.5247802734375,-37.6129150390625,7.2021484375
2.4787499,-9.737217903137207,-3.0142998695373535,3.531447410583496,3.5247802734375,-37.6129150390625,7.2021484375
2.4812499,-9.672574996948242,-2.82515811920166,3.471592426300049,1.40380859375,-39.794921875,7.50732421875
2.4837499,-9.672574996948242,-2.82515811920166,3.471592426300049,1.40380859375,-39.794921875,7.50732421875
2.4862499,-9.641449928283691,-2.7509377002716064,3.426102638244629,-0.1068115234375,-42.0074462890625,7.5531005859375
2.4887499,-9.641449928283691,-2.7509377002716064,3.426102638244629,-0.1068115234375,-42.0074462890625,7.5531005859375
2.4912499,-9.68694019317627,-2.832340717315674,3.397372245788574,-0.5340576171875,-44.8760986328125,7.476806640625
2.4937499,-9.68694019317627,-2.832340717315674,3.397372245788574,-0.5340576171875,-44.8760986328125,7.476806640625
2.4962499,-9.727641105651855,-2.959233283996582,3.3470940589904785,-0.732421875,-47.8057861328125,7.50732421875
2.4987499,-9.727641105651855,-2.959233283996582,3.3470940589904785,-0.732421875,-47.8057861328125,7.50732421875
2.5012499,-9.66299819946289,-3.0142998695373535,3.179499864578247,-0.335693359375,-49.7894287109375,7.8277587890625
2.5037499,-9.66299819946289,-3.0142998695373535,3.179499864578247,-0.335693359375,-49.7894287109375,7.8277587890625
2.5062499,-9.48343276977539,-2.9472622871398926,2.911349296569824,-0.3509521484375,-51.8798828125,7.8125
2.5087498999999998,-9.48343276977539,-2.9472622871398926,2.911349296569824,-0.3509521484375,-51.8798828125,7.8125
2.5112499,-9.311050415039062,-2.8203697204589844,2.669534921646118,-0.5645751953125,-54.1839599609375,7.5531005859375
2.5137499,-9.311050415039062,-2.8203697204589844,2.669534921646118,-0.5645751953125,-54.1839599609375,7.5531005859375
2.5162499,-9.222464561462402,-2.7509377002716064,2.535459518432617,-1.129150390625,-55.419921875,7.4615478515625
2.5187499,-9.222464561462402,-2.7509377002716064,2.535459518432617,-1.129150390625,-55.419921875,7.4615478515625
2.5212499,-9.215282440185547,-2.8395233154296875,2.470816135406494,-0.152587890625,-57.2509765625,6.8817138671875
2.5237499,-9.215282440185547,-2.8395233154296875,2.470816135406494,-0.152587890625,-57.2509765625,6.8817138671875
2.5262499,-9.332598686218262,-3.028665065765381,2.3798365592956543,2.5634765625,-58.837890625,6.2255859375
2.5287498999999998,-9.332598686218262,-3.028665065765381,2.3798365592956543,2.5634765625,-58.837890625,6.2255859375
2.5312499,-9.493009567260742,-3.134010076522827,2.2601263523101807,4.730224609375,-61.6912841796875,5.645751953125
2.5337499,-9.493009567260742,-3.134010076522827,2.2601263523101807,4.730224609375,-61.6912841796875,5.645751953125
2.5362499,-9.524134635925293,-3.1028854846954346,2.1595699787139893,6.439208984375,-63.4765625,5.1422119140625
2.5387499,-9.524134635925293,-3.1028854846954346,2.1595699787139893,6.439208984375,-63.4765625,5.1422119140625
2.5412499,-9.485827445983887,-2.978386878967285,2.075772762298584,7.4615478515625,-65.4754638671875,4.9591064453125
2.5437499,-9.485827445983887,-2.978386878967285,2.075772762298584,7.4615478515625,-65.4754638671875,4.9591064453125
2.5462499,-9.512163162231445,-2.832340717315674,2.027888774871826,7.598876953125,-67.657470703125,4.21142578125
2.5487499,-9.512163162231445,-2.832340717315674,2.027888774871826,7.598876953125,-67.657470703125,4.21142578125
2.5512499,-9.53849983215332,-2.741360902786255,2.032677173614502,8.0108642578125,-69.793701171875,3.7841796875
2.5537499,-9.53849983215332,-2.741360902786255,2.032677173614502,8.0108642578125,-69.793701171875,3.7841796875
2.5562499,-9.50498104095459,-2.719813108444214,2.049436569213867,8.1939697265625,-71.624755859375,3.60107421875
2.5587499,-9.50498104095459,-2.719813108444214,2.049436569213867,8.1939697265625,-71.624755859375,3.60107421875
2.5612499,-9.478644371032715,-2.75812029838562,2.0374655723571777,7.9803466796875,-73.2269287109375,3.3416748046875
2.5637499,-9.478644371032715,-2.75812029838562,2.0374655723571777,7.9803466796875,-73.2269287109375,3.3416748046875
2.5662499,-9.47146224975586,-2.808398485183716,2.0159177780151367,8.5601806640625,-75.6378173828125,2.716064453125
2.5687499,-9.47146224975586,-2.808398485183716,2.0159177780151367,8.5601806640625,-75.6378173828125,2.716064453125
2.5712498999999998,-9.442731857299805,-2.8395233154296875,2.049436569213867,9.1094970703125,-78.5064697265625,2.9754638671875
2.5737499,-9.442731857299805,-2.8395233154296875,2.049436569213867,9.1094970703125,-78.5064697265625,2.9754638671875
2.5762499,-9.41400146484375,-2.7461493015289307,2.0685901641845703,9.124755859375,-80.7647705078125,2.532958984375
2.5787499,-9.409213066101074,-2.6408045291900635,2.0231003761291504,8.209228515625,-82.0465087890625,2.593994140625
2.5812499,-9.425971984863281,-2.540247917175293,1.9393033981323242,7.049560546875,-83.0078125,2.532958984375
2.5837499,-9.461885452270508,-2.4803929328918457,1.8411411046981812,6.04248046875,-83.8165283203125,2.4566650390625
2.5862499,-9.50737476348877,-2.4612393379211426,1.766920804977417,5.67626953125,-84.9761962890625,2.8228759765625
2.5887499,-9.550470352172852,-2.473210334777832,1.7262194156646729,5.950927734375,-86.5936279296875,3.5400390625
2.5912498999999998,-9.57201862335205,-2.4827871322631836,1.7549498081207275,5.9051513671875,-87.40234375,4.5318603515625
2.5937499,-9.603142738342285,-2.473210334777832,1.8100165128707886,5.55419921875,-88.31787109375,4.9285888671875
2.5962499,-9.653421401977539,-2.427720546722412,1.9177556037902832,3.6468505859375,-89.29443359375,4.82177734375
