# Time (seconds),Accel_X,Accel_Y,Accel_Z,Gyro_X,Gyro_Y,Gyro_Z
0.0012499,-7.769743209013839,-1.1758542443397855,-5.576844741953401,-93.1805554605891,-6.965602592504376,-16.836074261652506
0.0112499,-7.4601350037884435,-1.1905501665482479,-5.526210441009271,-91.76339330641109,-7.9278056773866945,-16.118639929239905
0.0212499,-7.14038044345503,-1.2508320620966966,-5.280131063913905,-89.50429049871303,-8.102462151858807,-15.32408114729992
0.0312498999999999,-6.8192105003631625,-1.3110576590900624,-4.854712922272361,-86.18398577188034,-7.342189613285324,-14.07651791769399
0.0412499,-6.556316043173023,-1.2896148399498464,-4.504804084983344,-81.7083893841529,-4.97287362948883,-11.840239064796284
0.0512499,-6.426867680947658,-1.401719220597482,-4.247984612422979,-75.15158377780828,-1.354782765016626,-8.626954562425706
0.0612498999999999,-6.398916106047046,-1.6656000104159179,-3.986971394675315,-65.74370603483769,2.750332749228237,-3.970990788649077
0.0712499,-6.462167925718989,-1.9303059972693537,-3.7726881968078754,-53.67243056461347,7.168245782302886,2.4448788559752095
0.0812499,-6.55974756727512,-2.247814586987674,-3.6718173704755297,-39.04440340319213,11.464319584452285,10.608310934102414
0.0912499,-6.607102999279906,-2.5933666972749463,-3.6579689264675244,-22.069433932562614,14.798449436712644,20.61476901909505
0.1012499,-6.631339689918564,-2.8751276672540897,-3.664296344795999,-3.4163002152786106,16.681091532308667,31.694006476209175
0.1112499,-6.6666046813145226,-3.110341500565269,-3.708434393606719,15.925551772933401,17.187972782349295,43.35007047260919
0.1212499,-6.7569032813262435,-3.2381890688800476,-3.7764135509914225,34.45862717891106,16.580862687393616,55.06187386164581
0.1312499,-6.867483143291991,-3.238520339174503,-3.8085723903959496,51.273596124466984,15.224255940940385,65.76055350554407
0.1412499,-6.930385590061924,-3.1198562255315077,-3.8683417478720927,65.4676676026965,13.762702877318556,74.71523096966928
0.1512499,-6.96663778024965,-2.968350793598819,-3.8924547508324605,77.0158170401613,12.290102902183296,81.88806346350387
0.1612499,-7.057308462812852,-2.815364335187507,-3.873054056570375,86.25172695400873,10.69180948579236,87.16704503968343
0.1712499,-7.269795964562629,-2.6450236270037797,-3.8853338088844565,93.12282092597381,9.023375639099823,90.65654867255107
0.1812499,-7.539514832825677,-2.424412035868098,-3.9300487749238955,98.01402300358843,7.061542603744223,92.60915439133983
0.1912499,-7.75505129340698,-2.281275672419948,-4.024445170499206,101.72531602581816,5.048651820309694,93.77286131974624
0.2012499,-7.986746067648456,-2.316834347829049,-4.117731723594802,105.1561023231827,2.9957521625220207,94.77555621824915
0.2112499,-8.254277175886008,-2.318486457848379,-4.2109352554059445,108.36731843518653,0.5359415550514954,95.61124136006704
0.2212499,-8.388542659486058,-2.2475262401928013,-4.375807574353717,111.18272404356874,-1.3606734844296244,96.08079886892254
0.2312499,-8.484935811173877,-2.44206234560276,-4.420134123845872,115.33858758474635,-2.954842128370307,96.52230507197704
0.2412499,-8.605720390390285,-2.9355583229501256,-4.254592049315982,124.15261291795122,-4.578232722054191,97.24738661147289
0.2512499,-8.559351469273926,-3.44570067821843,-4.134505267326344,138.08676538175231,-5.364491881426951,97.59611230209099
0.2612499,-8.542091342023795,-3.8297045094442916,-4.040088467215978,153.98508795993334,-5.9314432085040885,97.28021470830333
0.2712499,-8.638288388315454,-4.005484788250908,-3.93748001095989,169.99580477849256,-6.434959689377398,96.09508175352097
0.2812499,-8.585368536338843,-3.903429410488897,-3.9652303118542185,183.57203041471624,-5.998523295299524,93.71647182451424
0.2912499,-8.460221925167943,-3.560408825242345,-4.08883689140523,192.53166322690691,-4.441019439474876,89.35339776532885
0.3012499,-8.433426164340911,-3.0723933477666487,-4.23559140530846,196.2724828218902,-2.704338421161586,82.74965142988972
0.3112499,-8.406570204690398,-2.583393995631377,-4.383220731939894,195.30715148429755,-1.5447400488608118,74.30476573895035
0.3212499,-8.312711801298805,-2.073859180931547,-4.483671858062922,189.11972416015468,-0.7401645113217082,64.41056623230276
0.3312499,-8.362324814934022,-1.6382398188982776,-4.479163938474205,177.846870038909,-0.3640010888912203,54.010958326091234
0.3412499,-8.532886870930673,-1.3206819813651385,-4.424848618178662,161.57949499051867,-0.36450609041332865,43.89195891434274
0.3512499,-8.600490553520466,-1.0098113017195922,-4.289471733888733,141.18707648815882,-0.5797331196357091,34.559142038727515
0.3612499,-8.591136425493964,-0.9411681946737432,-4.079928510427814,118.81691853856749,-0.771744481397366,26.561549131949445
0.3712499,-8.630282017378795,-1.1595284691869563,-3.9060444624530435,95.55360502418894,-1.5386827324381758,20.537404851540604
0.3812499,-8.72108766314198,-1.424792715418615,-3.7360439200232194,72.26441651873957,-3.158787252971775,16.150818532472847
0.3912499,-8.847809751887795,-1.6338003126669525,-3.643592816665271,49.6368994623649,-5.268172098936191,12.690871801133175
0.4012499,-8.925051505805076,-1.7001890507133604,-3.6501071447975977,27.923095539630083,-8.315063613977438,9.617357432334083
0.4112499,-8.934556289219172,-1.6399030705388544,-3.6298821355731334,7.112811475199262,-11.97545799814081,6.396695240920229
0.4212499,-8.92180664124138,-1.6026626563982733,-3.6492514481273632,-12.461277573801164,-15.95605852823305,3.0326147222446576
0.4312499,-8.833072780084597,-1.6298557498200705,-3.745546463413208,-30.667182194805477,-20.458015421891258,-0.1845605587739984
0.4412499,-8.740205929154174,-1.7328055080595797,-3.8295060701216745,-47.88905841537929,-25.023126085482996,-2.875337568866213
0.4512499,-8.730691174591161,-1.8168799227438595,-3.8675050970859557,-64.31181806869377,-29.112044327901376,-4.8418289404350805
0.4612499,-8.718555800060248,-1.8411976999820279,-3.8929998661070147,-80.23664556615437,-32.319247920639434,-6.203925735286752
0.4712499,-8.672130595418379,-1.856051814698034,-3.978503741012042,-95.93578808330692,-34.75880340348978,-7.428326429382393
0.4812499,-8.579234530669638,-1.8887198667276712,-4.096328590606014,-111.13822111291472,-36.730199114393834,-8.575285666798855
0.4912499,-8.454935647504195,-1.9908099180681043,-4.156680236108683,-125.17530406241963,-38.190825779703594,-10.070591346831826
0.5012499,-8.346526748758011,-2.0968888548202282,-4.222736490567266,-137.4803578610988,-39.08279516752453,-12.155315482216198
0.5112499,-8.259503648728646,-2.1357082296424807,-4.33920799264788,-147.81453432735822,-39.55139445566281,-14.655239038246815
0.5212499,-8.223644937712727,-2.228963096586314,-4.386009582352201,-155.73450146297463,-39.56547760176973,-17.67528216256366
0.5312499,-8.266097343717732,-2.486390440783446,-4.3770072473443795,-160.50945573631424,-39.08286081686875,-20.63764460921369
0.5412499000000001,-8.3754373334279,-2.7942111176596707,-4.373899932351989,-162.40747232438542,-38.189498137434036,-23.407008449010494
0.5512499000000001,-8.432483571223457,-3.059649276708453,-4.335854675890257,-161.64713179287605,-36.84699704043111,-25.995094386680083
0.5612499000000001,-8.43395516379939,-3.314638615142356,-4.269141956319482,-157.6475101892128,-34.966263931718736,-28.317065429027938
0.5712499000000001,-8.476129309393997,-3.579701487382358,-4.145237817846206,-149.7320758965222,-32.32669499599196,-30.473445600048972
0.5812499,-8.593162714871585,-3.850183309833125,-3.9811767564713647,-138.79559817185125,-29.302222320241786,-32.09665388583784
0.5912499,-8.776489178620904,-4.031088789194991,-3.8710503501437152,-125.58851674455948,-26.333585714291768,-33.010615606877586
0.6012499,-8.933062237641977,-4.178518319906285,-3.7256289067772888,-110.31345268993974,-22.42270138125478,-33.794409301478055
0.6112499,-9.117804693664313,-4.360448218195941,-3.511487094704431,-92.6081844276003,-18.080560364650225,-34.354529982778395
0.6212499,-9.280660282522469,-4.49174016431752,-3.3712920794254657,-73.31617758327985,-14.148684985126984,-34.38090180601812
0.6312499,-9.278169217098796,-4.634891784545472,-3.2291719617059007,-52.24413162106465,-10.306333124371749,-34.12386767359506
0.6412499,-9.199466993511633,-4.664369183234242,-3.059908098024692,-30.347819258703737,-6.760720516464019,-33.74258154174108
0.6512499,-9.21312139530206,-4.555626245444436,-3.022269056265575,-9.259066026032519,-3.72213896451591,-33.53150304968837
0.6612499000000001,-9.361953361604193,-4.409985086987681,-3.1618209102040984,10.263403730835057,-0.7340650749502525,-33.36165472742144
0.6712499000000001,-9.600182182852082,-4.24424273613887,-3.2685858245620727,27.580832582077644,2.06532792497218,-33.14803802210257
0.6812499000000001,-9.761756707465182,-4.047045919816756,-3.2370539132406773,41.531312626206955,5.130704817565344,-32.9499313913072
0.6912499000000001,-9.827656352053452,-3.8730349642237907,-3.1682708236635393,52.15606779689003,9.341508406644458,-32.316136032714496
0.7012499000000001,-9.924444543548566,-3.7360414075783246,-3.1196649148762625,60.535068848526,14.599924443171655,-31.78743019945228
0.7112499,-9.999266435658532,-3.540027231170451,-3.0281012164857115,67.20246090385841,20.047616541434152,-32.316527093082165
0.7212499,-9.995965579800588,-3.254858993290654,-2.896332335000925,72.0354968278213,25.63799542358073,-34.010197618472475
0.7312499,-9.98959606135034,-2.9954239103313545,-2.79507741933446,76.20233993194027,31.61776502074717,-37.40482224130392
0.7412499,-10.001288948501532,-2.859640938344034,-2.7519018947903584,80.18853146454795,36.72324095352724,-42.19517271452635
0.7512499,-10.031276456562598,-2.8266505572875955,-2.7505509397824284,83.99423501055738,40.25753682770956,-47.00216498946752
0.7612499,-10.074980888139713,-2.8414830941389346,-2.725745015171923,87.9651649686289,42.679054081995666,-51.74846143616924
0.7712499,-10.130961996957659,-2.898267373167895,-2.6859692054353346,92.26332627250203,44.01751503295952,-56.13612189527411
0.7812499,-10.23257070645459,-2.920556991252692,-2.736903432904462,96.08304791684623,44.66168346000834,-59.50165671868132
0.7912499000000001,-10.401818985727548,-2.9577611124284933,-2.8280736081479505,99.80502183776998,44.40990754262098,-61.949453832094214
0.8012499000000001,-10.493261475244177,-2.977302114503914,-2.7402595034653134,103.15328398138494,43.1316308379518,-63.644099691352665
0.8112499000000001,-10.337339012005371,-2.8796893725993753,-2.5340682682285767,104.96290725207778,42.2925453623569,-64.58073527582022
0.8212499000000001,-10.136725853372912,-2.7684941381249186,-2.3580469555124255,105.5662557898371,42.124067237147344,-64.94856577916536
0.8312499000000001,-10.032285581505867,-2.685827233765933,-2.2574846295307958,105.46872485704667,41.845629179854825,-64.964532613456
0.8412499,-9.882417007437498,-2.563346675472526,-2.220280949213973,104.37950606145098,41.389646395871495,-64.83678259794358
0.8512499,-9.702769555361298,-2.4291592062671032,-2.1629746013276945,102.37218206820015,41.102527821961175,-64.63901378194284
0.8612499,-9.591927028897656,-2.308774379518467,-2.091491955561261,99.53411597587197,40.87869247864491,-64.22004017463937
0.8712499,-9.507912458217174,-2.2259766842838924,-2.033767135877172,96.00470649839981,40.56857889066868,-63.37789848776762
0.8812499,-9.448306698782906,-2.2034142490048643,-2.027669921161254,92.0913584689236,40.12430748737241,-61.86663837214382
0.8912499,-9.459957769726733,-2.225349704086771,-2.0565200763232228,88.21930756051718,39.29399121064876,-59.40441180060102
0.9012499,-9.488214841373452,-2.283296037119116,-1.984681155710182,84.01209947985083,38.55643846402208,-55.85703140368869
0.9112499,-9.471531014049475,-2.3488898598728682,-1.859131504381314,79.36867342161186,38.120622701455076,-51.32612747271157
0.9212499,-9.403016048403686,-2.41536647088608,-1.761838028823178,74.97266930056756,37.67715298723334,-45.77525283665793
0.9312499,-9.297308490929895,-2.5087003435730497,-1.6760524294330401,71.11748866182451,37.183298547719794,-39.36176868315799
0.9412499,-9.275381692231752,-2.5864963130389262,-1.631753077740587,67.58312684653158,36.50099087085982,-32.38117508616099
0.9512499,-9.378209350019125,-2.6412149182071887,-1.6411217944317529,64.36267359327206,35.6698664514778,-24.79866880690996
0.9612499,-9.46585942093046,-2.7022443668684586,-1.6620052234932847,61.43628285318151,34.92510414982286,-16.945105502032476
0.9712499,-9.504472531118358,-2.7599383644414783,-1.6940784537338731,58.836998112209876,33.69988861732265,-9.404033111808749
0.9812499,-9.443390659784209,-2.803609065766561,-1.7347375180467606,56.33137026894716,32.02643410121675,-2.031251935429805
0.9912499,-9.319819380525633,-2.8527221321116905,-1.791064981874632,54.087445658839854,30.26104446428747,4.697207915598063
1.0012499,-9.202962425341642,-2.85749462199024,-1.811618774573185,52.047078686718315,28.156392318662807,10.021764873254694
1.0112499,-9.04821844524371,-2.8203823388790923,-1.7731961803784506,49.98051997249433,25.848575736527795,14.544468225203204
1.0212499,-8.907935280383496,-2.8235052147785304,-1.7486719156946686,47.77068827926013,23.686903984081074,18.46442924942675
1.0312499,-8.81431254235365,-2.876316938968204,-1.7535652737725052,45.30117993790142,21.82301480758232,21.917347641472503
1.0412499,-8.658290610183176,-2.917768585616485,-1.7677306647021869,42.417543764028515,20.07218470405926,25.154883772416845
1.0512499,-8.502937734128919,-2.9741527795437013,-1.763477601901528,38.95356760443044,18.674320288639496,28.217977560043177
1.0612499,-8.545945842340434,-3.063771359802256,-1.7841657067259111,34.82460872434761,17.82025966587432,31.387075214475587
1.0712499,-8.711086712673154,-3.1111671455618035,-1.858176407956616,30.090295559143225,17.69982746064912,34.434571017228286
1.0812499,-8.821235643247556,-3.14327610370955,-1.8874855146493328,25.252835208838146,18.292926850098354,36.876425580485815
1.0912499,-8.858693485660286,-3.1966087103275047,-1.8588343148839073,21.008210434353916,19.218779250312856,38.72617701006653
1.1012499,-8.908775609789151,-3.248224186982686,-1.8428668575387381,17.50608111885077,20.393130473547153,40.01232687762416
1.1112499,-8.998761378197695,-3.349476965002325,-1.8062735518840816,14.685675417880082,22.220321148546134,41.11342025751396
1.1212499,-9.104176432374288,-3.51331234108813,-1.7777599386666898,12.920758178641007,24.494989693940905,42.353149318962934
1.1312499,-9.17655838203607,-3.6322062054587927,-1.7999909100045315,11.989353294172485,26.832242078705146,43.54696088055365
1.1412499,-9.115452685488897,-3.7288584466134753,-1.7833558379582168,12.248069943002443,29.063123238677907,44.72652891943313
1.1512499,-8.944040652906141,-3.854839605559064,-1.7639784429225565,14.031540054328238,30.987900727168668,45.90654263375762
1.1612498999999998,-8.791742868052182,-3.9861835405931214,-1.7618179163171526,17.009237712749425,32.44715456901146,47.10781174348704
1.1712498999999998,-8.721289488426219,-4.132948994068388,-1.7128728101917403,21.462200309314692,33.55021142172843,48.7727820854419
1.1812499,-8.744263080608842,-4.290210456687177,-1.6913402671732152,27.31906014257928,34.4836731039226,51.12097087847228
1.1912499,-8.855272963391025,-4.418009609448924,-1.7477010401668873,33.825292612597316,35.183830244576534,54.19092464171021
1.2012499,-8.955909495171332,-4.500786919098623,-1.802557222382879,40.38153080842366,35.49159328113809,58.19401401919855
1.2112499,-8.997275836237534,-4.5268405559794065,-1.8258413075774567,46.38547426359128,35.96035401906333,63.031254097371125
1.2212499,-9.123930436135147,-4.4766930653980666,-1.8867400141149238,51.471122537096164,37.030918412617,68.07008890454512
1.2312499,-9.295024698957251,-4.399859239761301,-1.9737269695768365,55.57923916777284,38.00425479991229,73.16738289311854
1.2412499,-9.305294982586991,-4.306693995060326,-1.9698737491195615,58.87089845892353,39.78444161069025,77.59613756740174
1.2512499,-9.340324775470354,-4.100262791968947,-1.937254193871775,61.87032299598608,42.197247404105234,80.44236985487683
1.2612499,-9.528139184802729,-3.8979068748566474,-2.0665766413830053,64.82356699768029,43.50479429661954,81.9570737667231
1.2712499,-9.686843366138907,-4.073435777715426,-2.263796208165447,69.22121606387427,43.28351947890633,83.46950927135336
1.2812499,-9.884804689774068,-4.403903886664284,-2.3185454413026703,74.87687598823865,42.92352499090508,85.96264831851283
1.2912499,-10.358240391856985,-4.573592824573121,-2.258151196467477,80.03789476293669,43.41326458419136,89.9514315220949
1.3012499,-10.991359984632776,-4.827202703349163,-2.202807180212586,85.59391654628635,44.445829058782635,95.17604150467939
1.3112499,-11.369308605336427,-4.990810324236797,-2.169283738830561,90.80926688883751,45.79162971451671,101.04328139957846
1.3212499,-11.391539028936561,-4.9186014280614705,-2.184217636538341,94.18509572339684,47.50216621851956,106.82734096700194
1.3312499,-11.251755553942113,-4.813874860284496,-2.3262032947463385,97.36332896370601,48.7949097267294,110.93631189738856
1.3412499,-11.106621862598503,-4.499933461426216,-2.557446810548627,99.94612856528387,48.25994483758545,111.95515580519394
1.3512499,-10.874281556128192,-4.00495910258021,-2.7373247712222613,100.37259259807226,46.30964513348199,109.69309165628299
1.3612499,-10.575304666237237,-3.573054666799499,-2.9166660629171677,98.61087393422105,43.80403216720686,104.81288534798328
1.3712499,-10.338992159604182,-3.232239569315248,-3.1830523636282537,94.51470931227263,40.73007593749217,98.07530349372355
1.3812499,-10.074044070460529,-2.935271130675321,-3.4963582953470262,88.0930258870556,37.66059125936518,89.94343020748222
1.3912499,-9.749971589279783,-2.6424307001380622,-3.723150840025219,78.18600881779642,34.859465254018694,80.52806880382585
1.4012499,-9.403114508347283,-2.405170521976113,-3.8108402643559893,65.28974745460128,32.63760344727916,70.6371267444166
1.4112498999999998,-9.107876506748283,-2.240469516123087,-3.851077062881307,51.8120043707063,31.850143943199345,61.30883636136246
1.4212498999999998,-8.849711996433687,-2.0892997495232004,-3.8658513474816987,37.97143203036477,31.88529427544342,51.80112471012038
1.4312499,-8.582120472825624,-1.9934979340791543,-3.934053326340226,24.68944088219353,32.49670278580744,42.12329678542642
1.4412499,-8.382931972407745,-2.0024524900588037,-4.037832667523203,12.884870355915695,33.51797037291959,32.4539744146837
1.4512499,-8.275905705874386,-2.091699521835822,-4.098865375024654,3.448769334435709,34.97321398752048,23.319517227082912
1.4612499,-8.184210412596112,-2.281318775997378,-4.1534464921911285,-3.0812185740020146,36.92880438145027,15.564344348768115
1.4712499,-8.069398090775481,-2.592084692551565,-4.174212712918336,-6.6185812500132775,39.05883156036509,9.468693941727913
1.4812499,-7.987962056443073,-2.9467034314357443,-4.125861628929652,-6.790711692892838,41.192422239338846,5.402531954003207
1.4912499,-7.92942090579824,-3.313351896559147,-4.061250796935466,-3.5746276402970047,43.46665137188494,3.343735914900334
1.5012499,-7.845787423975553,-3.652900576764885,-4.040038749563245,2.9729444399240674,45.51478431744495,3.184227626592049
1.5112499,-7.716647644524914,-3.9001300661509974,-4.06280570721121,12.853295886036452,46.99271152847005,4.476669449423519
1.5212499,-7.546578889133208,-4.064588666542802,-4.106572873218215,25.00687828447217,47.63796629468086,6.427483186541888
1.5312499,-7.335066840081576,-4.102230998265003,-4.126994936670839,38.509541856137666,47.43798244837003,8.718452892947434
1.5412499,-7.104601565869493,-4.027838340975945,-4.149853720976307,52.665654906816805,46.93417203202231,11.229829839059018
1.5512499,-6.9456094371195665,-3.9179503067337746,-4.225055019555147,65.70476023983579,46.06912630669905,13.683142101294328
1.5612499,-6.7794896627183245,-3.7468408716105532,-4.2952348837069705,78.0739188653586,45.28220138890457,16.25310056007825
1.5712499,-6.676619670652087,-3.6142062327349396,-4.282561212637123,88.10745805985061,45.02881707124059,18.83838495224488
1.5812499,-6.69254627353693,-3.6063077485640433,-4.251030091597337,97.27045809406707,45.077373762580216,21.131785671003513
1.5912499,-6.67325467351068,-3.762831167997273,-4.2834701082644395,108.49015902578577,45.45315184085857,22.634336276222776
1.6012499,-6.731184302795572,-4.083988664314614,-4.382428488655445,122.708893907991,45.639498844080265,23.43614038195589
1.6112499,-6.8760238271166525,-4.480457807514141,-4.498460671400804,140.69631828478256,44.85333299921448,23.86125830216511
1.6212499,-6.822602250165307,-4.7671353842306265,-4.710865566811688,160.35439757925607,43.65173071327487,24.922649581537634
1.6312499,-6.58774538738808,-4.959183878140493,-4.914605600693563,178.54298892639358,43.119221033158986,27.69297947619328
1.6412499,-6.375655264531785,-5.065467079173249,-4.956112606005678,193.42352074461832,44.51733329189792,31.959064500156753
1.6512499,-6.311982389730903,-5.03054342350513,-4.849108788686308,202.90420756304567,47.861502240436565,36.86537108358429
1.6612499,-6.370586383747124,-5.029350191845653,-4.614246778757623,206.98659476393104,52.193828446228466,41.18754826367088
1.6712498999999998,-6.48963707887579,-4.878432687383498,-4.457879111128188,205.99783379129116,56.75515967758293,43.408656338274085
1.6812499,-6.643301982491127,-4.444926414752056,-4.552761509260002,200.32738761107873,60.84322800265458,42.35979443601857
1.6912499,-6.779798537383946,-4.081752623068363,-4.80733538812205,191.66318834051077,63.209436216785065,38.36091857567498
1.7012499,-6.94946768336585,-4.010269127043384,-5.023757964445009,181.84896395210998,63.022178312350086,32.807395902486654
1.7112499,-7.218857095720449,-4.064385015404744,-5.0847154860748205,171.34639657501418,60.74782812759344,26.527682560937087
1.7212499,-7.40949296625523,-4.069276972698191,-4.959841617889759,159.60030732718232,57.32065187702994,20.265032138435334
1.7312499,-7.379326250393154,-4.092291994449305,-4.727259983703776,147.2285863671568,53.94793806967585,14.412948314615978
1.7412499,-7.30943346628077,-4.177854964136023,-4.445877159299474,134.73244974730312,50.905727816967264,9.243338297783176
1.7512499,-7.290454610650038,-4.346160815234367,-4.194372750955936,122.9384539288781,47.45545612005875,4.858771384579896
1.7612499,-7.248138369330142,-4.5188625461879095,-4.1069652497345315,111.94806630361508,43.79963757592866,0.9728725524098812
1.7712499,-7.164289152141247,-4.624192565319705,-4.083928963451557,101.73816046114788,40.48202475355915,-2.5670475756904767
1.7812499,-7.05350253017373,-4.723221381553632,-4.000864858849526,92.52338560935702,37.248533790560764,-5.829547342145213
1.7912499,-6.98401894301331,-4.8813887392915305,-3.913033021260462,84.69088491705348,34.09764327290843,-8.82644722677347
1.8012499,-6.941234958460076,-4.925968342580378,-3.890575530660732,77.55124872141279,30.8292792664752,-11.633372588982686
1.8112499,-6.876868844142193,-4.901738694997755,-3.922438736963713,70.49014533635949,27.502534390099367,-14.070533487524369
1.8212499,-6.820883498476186,-5.123660097715054,-3.994668311259558,65.27366983713999,24.61266364456687,-16.27644445968056
1.8312499,-6.8320732398643385,-5.306999009224414,-4.089085981996832,61.56838949344546,21.954315927525336,-18.31437152949676
1.8412499,-6.8295166908234295,-5.2013204656399,-4.147518536421702,57.59599283642541,19.40841434923345,-20.123876178725443
1.8512499,-6.729889715869137,-5.076175978178058,-4.14341558305945,53.072720964675064,17.582961274241743,-21.95471715647131
1.8612499,-6.61448282951708,-5.046625648789822,-4.108801632371358,48.98793210812454,16.2168594008997,-23.701596086040134
1.8712499,-6.493151192759154,-4.972935974479942,-4.06968671925814,44.760072154817024,14.72724745625049,-25.09465094546564
1.8812499,-6.3955158069774996,-4.950429330540627,-4.098590987469533,40.40890301046725,13.11979841387186,-26.401481103269408
1.8912499,-6.386588803038423,-4.937760593018139,-4.16351923118064,36.08595104768259,11.72273201691936,-27.337480339541035
1.9012499,-6.401608008372893,-4.8993662289999165,-4.142472522389574,31.5616314601522,10.593829771957648,-27.69167917847988
1.9112499,-6.336298371301256,-5.016911992597038,-4.077949115428852,28.404654378200462,9.407066090865072,-27.476187513073207
1.9212499,-6.223870056854788,-5.154011529905294,-4.041856104794282,26.88095994783439,7.8037112170839125,-26.995633195785594
1.9312499,-6.069640966524521,-5.238575870551579,-3.9873691886480014,26.495982225291826,5.77773707486409,-26.408762542558424
1.9412499,-5.889614503519257,-5.353872007236482,-3.9110560927103903,27.79534549318167,3.769935983107276,-25.209804767177232
1.9512499,-5.7637457950082815,-5.4332350303614065,-3.865209763336739,30.05145313759455,2.0043407791125394,-23.36148040650972
1.9612499,-5.723539224846009,-5.452748861504049,-3.833254979072127,32.00118696542814,0.30304294648213526,-21.17344907680216
1.9712499,-5.783889681724808,-5.450273341599464,-3.84044973419988,33.03645024310767,-1.4093726445970989,-18.767207993606515
1.9812499,-5.841623179753072,-5.408011722494812,-3.851954904093974,33.45605030549088,-3.008047391236668,-16.40778561070977
1.9912499,-5.821066519433813,-5.322605132920721,-3.7999096031727255,33.18730699877686,-4.172111505290969,-14.267185508510059
2.0012499,-5.840380713668891,-5.309792581746848,-3.7419427414678976,31.876183912634637,-5.26800946237153,-12.334276518962858
2.0112499,-5.98873906303486,-5.364294036654695,-3.7110145628384306,30.02184453977745,-6.625195179435909,-10.66471671558682
2.0212499,-6.164339370827658,-5.371404213415459,-3.759187814820844,27.759809744426043,-7.970911104460925,-9.59813698849907
2.0312499,-6.299789106394179,-5.406569745928761,-3.8269786329076476,25.565653653941695,-9.513687927001001,-8.963024601090371
2.0412499,-6.4051317338622065,-5.562291111708172,-3.788152349789256,23.610006276055973,-11.02919844470946,-8.605969077119695
2.0512499,-6.457050414494589,-5.690044364874362,-3.687815593960606,21.72257072066518,-12.572347193082125,-8.838888132061175
2.0612499,-6.450254815885123,-5.724031089678451,-3.6156628037473255,20.276314268630884,-14.653241289163406,-9.460679288264643
2.0712499,-6.39403623984341,-5.893108010977531,-3.5699421763929147,20.133642181023088,-16.85847051726073,-10.151440062094292
2.0812499,-6.424321168270711,-6.132177475508492,-3.4720176995916745,20.56278666790927,-19.039555585246156,-10.729965171601194
2.0912499,-6.583334366264698,-6.268904216723812,-3.3222062274373085,20.822645795777813,-21.62737392539806,-10.843399411979492
2.1012499,-6.7551162848211295,-6.362171551877209,-3.2652605546495006,20.698837331034593,-24.260937813484603,-11.07241331848293
2.1112499,-6.968405139374279,-6.455359201375587,-3.245973464928077,19.28202676598382,-26.70395943762738,-11.658406659987122
2.1212499,-7.310425002336448,-6.483097959966911,-3.191178779497343,15.512885934751278,-29.293136127455977,-12.451008026000803
2.1312499,-7.701111628661245,-6.4407649335345365,-3.218273441608841,11.184527439349061,-32.3610950094218,-14.665985508017268
2.1412499,-8.09617352053517,-6.2462567928223836,-3.1031793977543822,4.430674597377844,-36.41043787650966,-17.917844192056823
2.1512499,-8.610245690134006,-6.020731239778884,-2.866545156680559,-8.42828680034617,-39.86762443813064,-20.33006527105468
2.1612499,-9.324379123198673,-6.262091922354475,-2.846431131910065,-23.966189818614215,-42.00420321149874,-22.220835407744467
2.1712499,-9.924968919323309,-6.5409594125773305,-2.8554648460219205,-40.40506361157964,-43.69097408062772,-23.973397844230824
2.1812499,-10.122441411960862,-6.315779152126189,-2.785050317883837,-59.84442233992134,-44.679929052659695,-26.21016321698693
2.1912499,-10.262407232108322,-6.120069018918946,-2.6753668556468746,-80.47533970531258,-44.805231915609475,-29.300780664261012
2.2012499,-10.759513634092727,-6.266261633811395,-2.779773076539457,-101.10626050957731,-44.65213566133617,-32.690673218473954
2.2112499,-11.430480011103732,-6.4349887135155175,-3.320974343475472,-125.02195885765619,-44.807971919806626,-36.52543252553037
2.2212499,-11.770303273998685,-6.519168519798707,-3.930514777547128,-150.56763820656997,-45.114554059675285,-40.59035012413486
2.2312499,-11.628069578306157,-6.716515352704624,-4.354478903389801,-173.29692769418796,-45.52857697750449,-45.570405295380674
2.2412499,-11.072656035321184,-6.876512656902337,-4.621970506099105,-191.01621685188707,-46.04566718703552,-52.715288918737976
2.2512499,-10.310226862085923,-6.966356063898883,-4.664038229585042,-202.478947865108,-45.87711978720917,-62.18234659972527
2.2612499,-9.67378756491133,-7.198065483658538,-4.544198759248191,-206.3509560352959,-44.28071742984282,-72.80786175901848
2.2712499,-9.245213317504334,-7.462856638662817,-4.49122913157815,-203.29641061374102,-41.114863941737006,-83.4974923365424
2.2812499,-8.893459067827019,-7.737399976081566,-4.50446290527958,-194.50360893588868,-37.1017343517183,-92.95896903513398
2.2912499,-8.57121703680004,-8.0798827441172,-4.535963791822394,-180.32158535144518,-32.21554760674065,-100.17129074625602
2.3012499,-8.42473281536434,-8.369575666801678,-4.6430024361840445,-161.92176170556613,-26.923787545392088,-105.08580655739722
2.3112499,-8.396483037635342,-8.500867382041292,-4.864163741065204,-140.251486789524,-21.496322695220798,-107.75680753932583
2.3212499,-8.185962201443164,-8.29800943478217,-5.150434668732199,-117.38251033243424,-15.229157844557776,-108.78870724062257
2.3312499,-7.834422223125768,-7.904315318058215,-5.236902385522472,-94.95189029539539,-7.926815948949019,-108.87143151604569
2.3412499,-7.517947979622733,-7.522418795035558,-5.0854257338971145,-72.80206878067936,0.0035033428593261515,-108.34919596030407
2.3512499,-7.302282686687844,-6.98046369057346,-4.946047420485324,-52.396147270298634,8.496105034513564,-107.3312893193595
2.3612499,-7.128741197911937,-6.340318242400931,-4.885058577215916,-35.09674911742508,17.307815683241152,-105.57288085681212
2.3712499,-6.913072991430103,-5.855235509962449,-4.8570651403414615,-18.15064597168738,26.386457025619556,-103.253934128572
2.3812499,-6.672822142389728,-5.501188916209066,-4.825267171826077,-0.1995101511941716,35.12256604858823,-100.13746371001507
2.3912499,-6.483651434739661,-5.240249335955225,-4.799894869313253,15.458736694947882,41.85409948623608,-95.90722855143105
2.4012499,-6.396779994950017,-5.049543909570115,-4.785544515563819,29.590341429279555,47.35635040318002,-90.22500177367402
2.4112499,-6.391456652882661,-4.839372018369932,-4.7768235130403385,42.99094813728248,52.1914176827102,-83.27996901329944
2.4212499,-6.368386201453809,-4.639642231899348,-4.769508506950695,54.93334895487753,56.28795228257177,-75.3606080732698
2.4312499,-6.270789495111566,-4.538939121924282,-4.7037262304949286,65.03444229882938,59.884271561620714,-66.53548483638747
2.4412499,-6.116237070046611,-4.412684665052331,-4.556963153216048,72.99523287678554,63.038868476122865,-57.06121221085883
2.4512499,-5.945835242295114,-4.259501346477879,-4.4106392835702,78.85657061005112,66.27072974905515,-47.48430517534389
2.4612499,-5.883849377186792,-4.11587318809794,-4.3178376315619555,81.98894059653725,69.75415777009219,-37.94179032779836
2.4712499,-5.924557398872213,-3.8623332592526345,-4.240579918251328,81.07476435530256,73.70833470001469,-28.47812585816173
2.4812499,-5.951392820917398,-3.543178168788985,-4.207842828909297,76.1136634739963,77.64764261016433,-19.791963118956918
2.4912499,-5.941274600218102,-3.243557103050523,-4.229712355501083,67.75603927018683,81.5024422198332,-12.229147633376437
2.5012499,-5.981337047940073,-2.9160384399605506,-4.198570956846559,55.230333477561366,85.55473247516181,-5.409356377435231
2.5112499,-6.043267496767589,-2.6636518249437824,-4.148242816154338,39.0761018165055,89.71037071563683,0.7197924683556701
2.5212499,-6.052526662246031,-2.6219853173080594,-4.102230074918327,21.51642788791511,93.51717126167642,6.166562011825036
2.5312499,-6.001257357599044,-2.7790468112156574,-4.126222918372133,4.550095273725002,95.89504648165122,11.665264412890028
2.5412499,-5.970981340640001,-3.138387333999808,-4.189033195051747,-10.390892167453096,96.23515517002605,17.43887217040453
2.5512499,-5.8947537623945045,-3.4923595158842273,-4.083217253566986,-23.259493320085966,95.30167859211552,23.232724556341637
2.5612499,-5.703084781455383,-3.791787006036178,-3.882670745767254,-33.36169664005189,93.78091133637167,28.868562962495492
2.5712499,-5.562205707093781,-4.154915105247523,-3.7318717687346146,-40.09438531574486,91.5654639815837,34.61883293136262
2.5812499,-5.501282053176969,-4.580677630245043,-3.647576603749265,-43.90167711656381,88.80763279705498,40.34747603691064
2.5912499,-5.546628598079009,-4.923126334759317,-3.632560108888806,-45.0980952060614,85.46945502961374,46.12063278115617
2.6012499,-5.67302982616583,-5.210341322205103,-3.6470528557120763,-43.56516356782803,82.09379430156007,52.07430871537054
2.6112499,-5.778230215097017,-5.626417876161861,-3.6641610485515796,-39.743724762677004,78.64870326105401,58.47550621339027
2.6212499,-5.844819549343262,-6.041151007211018,-3.6857483758053284,-34.24356989346912,75.2371636198927,65.40865295003799
2.6312499,-5.855790185578175,-6.277744247694634,-3.708910800672921,-27.965503813996634,72.00846424685201,71.9621151125486
2.6412499,-5.813515573611111,-6.427686023880118,-3.7611994646434126,-21.051864262717544,68.78496520978786,77.87819831395788
2.6512499,-5.765523395265247,-6.5320401364358665,-3.8089194218704963,-13.70061509439174,65.70803000423041,82.80787935064947
2.6612499,-5.7076324508476715,-6.52368642352193,-3.816438715125414,-6.866578854899924,62.67082691397624,86.38811805399104
2.6712499,-5.656853462038373,-6.484806423169905,-3.888720815938294,-0.37883297125010157,59.781500632745626,88.73649225739716
2.6812499,-5.642268195751499,-6.529492739640854,-4.051589578221439,6.141131919292029,56.6196728622705,90.07160953546126
2.6912499,-5.627569659572685,-6.576459140347122,-4.186475288121406,12.19082110492657,52.96506710385839,90.7661991953043
2.7012499,-5.627598917107886,-6.672877665453106,-4.331404474095323,17.293389251878448,49.7300298654565,91.37224170566891
2.7112499,-5.69954557160026,-6.795173926812431,-4.544671475563939,20.938263072268292,46.99745011490966,92.26853543407648
2.7212499,-5.73393445287159,-6.767681517439131,-4.710086476270731,22.271097926851613,45.14756460241733,93.12103692122527
2.7312499,-5.6192370231324205,-6.673489914387901,-4.754169838640688,21.777452144268597,44.33474952589509,93.75794137471927
2.7412499,-5.394354675034303,-6.587725426218663,-4.738600781956733,20.278685195962726,44.240493790561864,93.73569067965782
2.7512499,-5.2084217988186765,-6.517780940134734,-4.7474146089950615,18.411328535947952,44.648387568285415,93.11013340673247
2.7612499,-5.170652585053039,-6.5471185829659,-4.807590600132105,16.64262073389074,45.0808293521493,92.18471874244163
2.7712499,-5.237938349470304,-6.732625871124158,-4.895414253938907,15.995634485892175,45.42658103700582,91.2874693282929
2.7812499,-5.266036371335653,-7.165934493093798,-5.05600433249667,18.86921020945573,45.84259499416764,90.53742992950579
2.7912499,-5.1932324160887955,-8.021169210002993,-5.234097524687259,28.68399856310879,46.02361305022835,90.31773346738372
2.8012499,-5.073534591491597,-9.262616876288364,-5.221758624253349,48.24255799531423,46.210009790371565,91.36912632366437
2.8112499,-5.004542401327495,-10.706672373347745,-5.051220725987573,77.23661823968278,46.97799293692751,93.86254719030917
2.8212499,-4.985288891503825,-12.18786994862351,-4.933140504590385,114.22378505971368,48.38962196078477,97.35298019296252
2.8312499,-4.925216561337016,-13.220335123852381,-4.800247343231061,157.16942352538155,49.95441762646215,100.77003970328975
2.8412499,-4.715155821471722,-13.107773572849677,-4.6371748656734635,201.94706231718004,52.30951808395728,100.187308708948
2.8512499,-4.325668387805345,-12.638401852712846,-4.71815813300684,248.6095905289002,57.740224836296484,92.64690131227684
2.8612499,-4.269843696550949,-12.84088808010976,-4.910504975914213,298.6488817703184,64.12542210270135,81.49467635109943
2.8712499,-4.306578270147011,-13.208796594021043,-5.182078185727925,348.8723387369622,69.51876612728319,71.2860423370452
2.8812499,-4.11999565965239,-13.572601077260297,-5.536590026772048,395.96693254300334,74.12090004277444,63.99735678548039
2.8912499,-3.9791888215970066,-13.91226022722633,-5.588243017215281,438.9880520926449,77.26111942635852,60.34940368236514
2.9012499,-3.614272522568731,-13.65841145800996,-5.517627581153812,476.7013170636825,80.68895610950048,59.22025824178366
2.9112499,-3.140780086815635,-12.850724467748622,-5.511575469504354,498.51081049140396,85.0181731008472,58.83994185173253
2.9212499,-2.841718947962724,-11.753271314996738,-5.4212962378626655,500.5955474199432,89.63724361284389,57.718042653601124
2.9312499,-2.6944063685122384,-10.479038186136243,-5.212020472408607,499.6932884771942,94.07822670462137,55.046027494701924
2.9412499,-2.655809411487665,-9.16766214886721,-4.934305149988077,499.7413141013041,98.15080220192729,50.77351632712737
2.9512499,-2.6829825292940246,-7.925374405277602,-4.559800983718289,501.0176078075722,102.24505114721215,45.41643877307549
2.9612499,-2.842088266236902,-6.766007127637436,-4.12740348608297,494.596601594614,106.40038671501537,39.55476878779693
2.9712499,-3.2314902320623524,-5.619976624744803,-3.710813043112713,466.82838780194413,109.38241309483085,33.653026457281165
2.9812499,-3.5716908349201195,-4.595598116966103,-3.160492420683185,428.1079872233382,111.1675998001924,28.167414901926886
2.9912499,-3.6821325333683186,-3.6993241471955325,-2.4417671676307147,384.09071321723195,112.79465809081881,23.39999174017006
3.0012499,-3.843301675584795,-2.7871894627490668,-1.7037028720918133,333.2741488228407,113.95658280205718,19.375430054618608
3.0112499,-3.9760469493634445,-1.9186324901529286,-1.1028321515207407,278.42724801343826,114.77831546849289,16.106748505304473
3.0212499,-3.9658453895015207,-0.9040746231057286,-0.7088721960478516,217.16701076679618,115.31268338445646,13.490574056553562
3.0312499,-4.01183991192963,0.38197723398539285,-0.45728668754813284,140.68974244872135,115.24000017465214,11.620324479112618
3.0412499,-4.102162813172248,1.4515762922993345,-0.3295420362737603,59.22294569351344,115.17097996731935,11.13220685713605
3.0512499,-4.018420664393091,2.129914547958255,-0.4784422248973716,-19.986022966772502,116.6058228748208,12.091558703442761
3.0612499,-3.8118713313639434,2.82223280773608,-1.0188331992879531,-101.64323304769627,120.8997558231625,13.748238066900852
3.0712499,-3.972734754190338,3.2836557319911868,-1.6592752026499262,-186.63211392422127,125.96210570269338,16.418526427447418
3.0812499,-4.602141380932581,2.666826916823205,-2.200120501534003,-267.2507947487566,129.17304914089445,21.308485504369866
3.0912499,-5.509637584541051,1.2781724784116648,-2.918888786249969,-338.68280411880016,129.89331084916657,29.88072044085635
3.1012499,-6.484288379366899,-0.3140726887162501,-3.740656186641179,-398.89634651147026,128.42859368070594,42.76291237230345
3.1112499,-7.510930369523153,-1.917478433760509,-4.375064274395134,-447.6518219054538,124.06741589747084,59.46428552851946
3.1212499,-8.716538220894888,-3.511694626183482,-4.904547991664133,-485.3054013412669,116.19096412566722,79.66082234734142
3.1312499,-10.082229607738139,-5.018942782326156,-5.395323204473132,-500.664445165663,104.63058869366542,102.87521266846774
3.1412499,-11.468170318806537,-6.169860324990314,-5.824460510311253,-500.03592485167974,89.28263208581343,127.72199574263698
3.1512499,-12.66463417136207,-7.0745827253957545,-6.178974740973351,-499.86957128065194,70.11485413959606,152.13712164551478
3.1612499,-13.659730961968469,-7.841714562380443,-6.498383906369657,-499.73849939628593,46.439212537560564,174.37870570484262
3.1712499,-14.40133309330183,-8.518807180884624,-6.797804520278766,-501.03009496697854,19.159705059998753,192.96148940861337
3.1812499,-14.870944767067533,-9.144303700568651,-6.865678626884974,-493.1410664121626,-10.212462567445618,206.57552036040738
3.1912499,-15.274241924271271,-9.76248619124783,-6.626744895031114,-458.37726130443815,-42.692648724099556,215.13535243765457
3.2012499,-15.708684499534739,-10.29878148970077,-6.296509644346355,-409.1599207916497,-74.0491134732092,218.27444294012093
3.2112499,-16.122716556415106,-10.434934796517641,-6.1812691471976615,-354.8555427261803,-101.2763419696211,215.61688205824058
3.2212499,-16.14478060573445,-10.15676222175723,-6.204290778129908,-293.71099748398314,-124.41504108840343,207.101897414208
3.2312499,-15.6407613883832,-9.593986520536605,-6.16977711824058,-229.82479250648984,-142.4792822827578,192.73120036376642
3.2412499,-14.658594157265194,-8.720876897914845,-6.0629338370856685,-165.5520219461537,-155.47873073918194,173.60692495591692
3.2512499,-13.164942417061724,-7.321181837743257,-5.83382351767253,-107.20755749809997,-161.50020623097998,150.83557829865737
3.2612499,-11.673830849569372,-5.715128922844089,-5.625093357499094,-57.37718368690862,-160.25571873323082,126.29787563054784
3.2712499,-10.576552419373622,-4.526637173162816,-5.472444030237892,-16.176624222287863,-153.44693083422897,101.66228827058798
3.2812499,-9.640372456063657,-3.6790578882897016,-5.364209106982779,15.419719698620911,-141.33338451373322,78.68904528810064
3.2912499,-8.880433496453948,-2.8768152821184927,-5.2429821237222365,37.06561563052013,-124.7759187882113,58.15668451223055
3.3012499,-8.2894372778012,-2.253942720740217,-5.080466219051335,49.201142654452624,-105.37740309821567,39.88459524996871
3.3112499,-7.889984842300285,-1.8996204601956763,-4.855760509165648,54.286447922675364,-84.89593768443471,24.15671444064012
3.3212499,-7.71398768108776,-1.846476591453443,-4.782800800274126,55.727297796872385,-64.89581466882879,10.70822813546751
3.3312499,-7.576038709850352,-1.9050579347323136,-4.873581809648837,54.468722887696636,-47.18549784769905,-1.4996776156208904
3.3412499,-7.297467740921076,-1.8812660098456826,-4.973219305901038,51.52198667534612,-31.827321850946554,-12.302156988197579
3.3512499,-7.162273389932319,-1.8969134307815998,-5.181588423342966,48.39101791899537,-19.184344750549347,-21.24504019240541
3.3612499,-7.3716591182859625,-2.1226924536109837,-5.4673763424779604,46.25823111708776,-11.356067098826951,-28.21616740627173
3.3712499,-7.446498301350999,-2.4245848924413957,-5.620448765969226,45.77803498906614,-7.702937256373796,-33.307889921386874
3.3812499,-7.232052763368648,-2.678050141101603,-5.627169789782129,46.558861989987165,-6.022971393068228,-36.51340472053449
3.3912499,-6.970557575448576,-2.893548478214032,-5.557485489970954,48.59028027130992,-5.6158863352288035,-38.091340977345595
3.4012499,-6.719296523691347,-2.947995167269656,-5.478013140848099,51.30347013424197,-5.7232415181670495,-38.819707629263185
3.4112499,-6.462157958209044,-2.768313236400661,-5.36695010668041,53.57499917403498,-6.1705599613886895,-39.523218259392685
3.4212499,-6.162694490990597,-2.5473469613476882,-5.260085726529093,55.016187138209396,-6.639206520672469,-40.554410000170414
3.4312499,-5.933668365163723,-2.307832092434536,-5.254580036984969,54.65584702600515,-7.123677389036356,-41.97744611649834
3.4412499,-5.826491461212408,-2.042304853009825,-5.3183540198248425,52.25049706759859,-8.030261398550882,-43.712310476923754
3.4512499,-5.798299976784719,-1.8340308486850412,-5.409711585887338,47.989160985321035,-8.83195074319729,-45.43302029018187
3.4612499,-5.916899303645774,-1.6365531008358005,-5.562281555287847,41.27249341510577,-9.335175429475225,-46.79004883427119
3.4712499,-6.1165948932181475,-1.4997034925289,-5.701866072154928,32.25522798584074,-9.740517353387007,-47.56858154699858
3.4812499,-6.324427270045611,-1.4024339488289532,-5.761152506053528,21.22778582176205,-9.892113124964245,-47.71820885351627
3.4912499,-6.6239875013258915,-1.2683544832572067,-5.838846031257065,8.132485480141288,-9.751024338333448,-47.369369321914725
3.5012499,-7.087690658048857,-1.16284260396936,-5.9733053514331536,-6.224563115808887,-9.426346931390366,-46.76401924290562
3.5112499,-7.486344088366375,-1.106297947241967,-6.053940477593578,-21.80279898431182,-8.471323707772969,-45.65292537126935
3.5212499,-7.714834235757594,-1.1156315137420079,-6.0830756526927585,-38.82920850965229,-6.562147709743314,-43.34018870794997
3.5312499,-7.929796653624191,-1.087045320327598,-6.1492550011382185,-57.121050058441284,-4.346642294015742,-40.401577012189755
3.5412499,-8.052931624206252,-0.8311977967289136,-6.1610011768963755,-75.7691864820679,-2.630124180114982,-38.982436708577204
3.5512499,-7.958836152128754,-0.5390193405291149,-6.14017682689624,-93.46184600583261,-0.9725408091612665,-40.00876085748293
3.5612499,-7.844841939928048,-0.5010283144748751,-6.131864646414657,-107.88409611148883,0.1792718929191953,-43.27105499753796
3.5712499,-7.742104739444916,-0.6658114181571038,-6.047412288347677,-118.14817996681549,0.47390958280936524,-48.054270011396795
3.5812499,-7.546605015615488,-0.9413645306300306,-5.950876227393058,-124.429611441729,0.36312193080523036,-53.27661665333856
3.5912499,-7.34777874099285,-1.3257727660697196,-5.811550733391914,-126.60592806832943,-0.17769957755991206,-58.17918673376799
3.6012499,-7.11436122350118,-1.7579580479135952,-5.571571267826261,-125.22364409891286,-0.958631672682652,-62.09614590640803
3.6112499,-6.837140103504417,-2.133582498224173,-5.237707307870214,-120.95222824468843,-1.616793468842416,-64.43548072152426
3.6212499,-6.646617412591851,-2.4454067184984836,-4.9485357046813,-114.36458067958574,-1.6630891032091426,-65.00604828864219
3.6312499,-6.6348392791801265,-2.7089839075034883,-4.760965644341371,-105.60279072082362,-1.484290849153503,-64.17324399765235
3.6412499,-6.739400874460556,-2.8630966747723723,-4.613503455050998,-95.40145007780737,-1.3311707954143994,-62.3747256925951
3.6512499,-6.908099320029079,-2.9590452703317944,-4.46561356997265,-84.51236842823327,-0.8021932549908922,-59.77611670095955
3.6612499,-7.1350739128437235,-3.059467639120983,-4.371772966716474,-73.224438110464,0.058194829763504624,-56.416011060774
3.6712499,-7.385725469544999,-3.141834926243685,-4.322986895847737,-62.12758730934377,1.115397561633322,-52.43865926790274
3.6812499,-7.611787521635546,-3.2064042541572633,-4.198119110369057,-51.49978232935468,2.6388027030385697,-48.178176348299374
3.6912499,-7.79595469079282,-3.2496870382070897,-4.058520598248507,-41.366634622265124,4.4266133529543765,-43.75624061933921
3.7012499,-7.9267716660846785,-3.278750987114411,-3.989781890098329,-31.691826821318784,6.686266413112559,-39.348976367552865
3.7112499,-8.042723929886183,-3.305868631854169,-3.9050069550382127,-22.36102301751499,9.242202769247212,-35.36333921523605
3.7212499,-8.15911272280948,-3.363319217052125,-3.8003196917939,-13.436423121070364,11.666241426632535,-31.79438166176312
3.7312499,-8.23888232233093,-3.4583791524015535,-3.8505049372567015,-5.26064613262044,15.000254266517663,-28.42509691501323
3.7412499,-8.396732510036319,-3.579859221845796,-3.9172789284204783,1.1193455371432828,19.261882793839575,-25.501012878954974
3.7512499,-8.674551705801495,-3.7643649697964094,-3.7797298472819234,5.11702844549512,23.876176035958572,-23.1298796718767
3.7612499,-8.989105058953113,-3.9966914639739164,-3.6048082948173574,7.855173942525972,28.783481842690186,-21.57418035779355
3.7712499,-9.430562110269568,-4.236121074979923,-3.516663356259169,10.466789841207133,33.30119138677439,-21.055743273073464
3.7812499,-10.117178851862954,-4.569955958996181,-3.4651377040471028,13.668769373197778,36.42499871275215,-20.9770132599231
3.7912499,-11.052836150069986,-5.02882328274433,-3.4539127063408532,18.291001201923297,37.05771477752695,-20.551516043357896
3.8012499,-12.05324566307651,-5.5097508556185115,-3.4999706724887956,24.43594681440442,34.28012988312231,-19.21474240973821
3.8112499,-12.791638676068654,-6.02895907859882,-3.6072450780491248,30.403966413323126,29.214083850196097,-16.82699257937911
3.8212499,-13.281370645410671,-6.455118405715616,-3.674992618657064,36.26049731816725,23.350424956178244,-13.657630952141654
3.8312499,-13.591315729162112,-6.58430156629624,-3.670972649808212,41.31254164815613,16.587905393119467,-10.350322797832995
3.8412499,-13.559676600712768,-6.442028692618276,-3.6486537978056806,44.90450606005545,8.986984848870101,-8.376899917287428
3.8512499,-13.234506163010703,-6.054778491643889,-3.515853874256986,47.349762404977966,0.7102179554066106,-9.535011150385197
3.8612499,-12.692534297906924,-5.441666436739099,-3.306138838242961,47.024374076416635,-7.043166695661787,-14.096056852785887
3.8712499,-12.023281555487769,-4.773775782562978,-3.1110889990269555,43.89493776545816,-14.57835059145572,-21.995774816533682
3.8812499,-11.376218598002742,-4.123718964402827,-2.957345500503283,38.22225480685733,-21.447511751946376,-32.64293325345998
3.8912499,-10.747186944791082,-3.5078380157857447,-2.772925674603921,29.4304240894295,-27.041302203144912,-45.070415984275016
3.9012499,-10.059297739376213,-3.029306584161386,-2.594848919869976,17.583052276175156,-31.632743324584755,-58.00194910169246
3.9112499,-9.426018749424179,-2.69708101571354,-2.5096959427937735,3.6532485916588673,-35.392808996546805,-70.49886558967421
3.9212499,-8.957393693068799,-2.4116881656207485,-2.3784708469717915,-12.948094237026783,-38.25977317671562,-81.95641683546926
3.9312499,-8.598366470181402,-2.185438812284251,-2.206047662951421,-31.71425662377698,-40.09698567763564,-91.84456192402818
3.9412499,-8.444196626989728,-2.008808092512054,-2.1451021160984505,-51.54443563502012,-40.716209333444425,-100.2184323835356
3.9512499,-8.536559097267483,-1.913632840795076,-2.1337752662619334,-72.14178344155225,-40.1437164257066,-106.76385678366391
3.9612499,-8.704128294373225,-1.996506049593445,-2.155699402856676,-92.66540039172534,-38.34834440187159,-111.10975764686862
3.9712499,-8.842566660367583,-2.181794369306257,-2.2222708103540656,-112.17035746702199,-35.68526206960147,-113.19609569349679
3.9812499,-8.925046329776368,-2.419338805036105,-2.2315446491272226,-129.91227221349772,-32.18281772974379,-113.32610351875219
3.9912499,-9.037590881099069,-2.7286838764921453,-2.2289666335148155,-145.51529164383172,-27.458917739294012,-111.83889503750287
4.0012499,-9.25535675879236,-3.0235139850250103,-2.2301848157757647,-157.91056829959822,-22.226365699989838,-109.25086354631219
4.0112499,-9.437810977927585,-3.260391973711145,-2.1349707802650575,-166.2727715073697,-16.409536075042663,-106.4861488589949
4.021249900000001,-9.404280301317291,-3.4197813106859334,-1.974647579985566,-171.1077346004685,-10.048074689095047,-104.1032704481211
4.031249900000001,-9.213929886351966,-3.5528954565109316,-1.8175159081723045,-171.76605951223556,-4.237583978454101,-102.26462639280474
4.0412499,-9.042181141677474,-3.7782452015489705,-1.7101537976333603,-168.34372597241082,0.8672365198315406,-100.9415722552925
4.0512499,-8.899747686827572,-4.056856318909455,-1.587397795682507,-160.945753998604,4.752113904377769,-99.64854367312601
4.061249900000001,-8.827274259598148,-4.272413566060969,-1.4517840251361103,-150.302739486181,7.68741863105957,-97.80623348758762
4.071249900000001,-8.892151349874027,-4.418044704444468,-1.3987068817461372,-137.3549254510895,10.243366976884424,-95.49751081060897
4.0812499,-9.118358687407104,-4.577369122373847,-1.4311139776883144,-122.32002963996116,11.700245155985023,-92.6129751044261
4.0912499,-9.330753869433856,-4.7268256008340135,-1.4242863987244931,-105.55656505388555,11.877038948228343,-89.0924743424714
4.1012499,-9.405500951258421,-4.782451744628262,-1.324413041095922,-88.2299061018913,11.75855282331368,-84.97623856021902
4.111249900000001,-9.467724163073818,-4.737866907942797,-1.1966192371497468,-71.16961714918752,11.345881711563221,-80.35252016215807
4.1212499000000005,-9.556587080717422,-4.597382417929728,-1.1735290642924106,-55.07770768195958,11.051766599611884,-75.66724844163478
4.1312499,-9.666737013916075,-4.397447366437345,-1.2351486542750065,-40.191932990036605,10.721714878433728,-71.12628496044037
4.1412499,-9.718090554962822,-4.1259466944398016,-1.2308235478461687,-27.191006504153155,9.979760813480548,-67.04383478292509
4.151249900000001,-9.69179136903509,-3.819261518253514,-1.2003576410294723,-16.751537741495884,9.514597638239241,-63.45669121735742
4.1612499000000005,-9.773625036169774,-3.569144142486866,-1.2545180605460047,-8.641181577537012,9.279447734933992,-60.09905133087834
4.1712499,-9.956652791931663,-3.359477254464614,-1.3716534150160582,-2.530537218482745,8.752024300309635,-56.94146806540187
4.1812499,-9.999248267655913,-3.1893196752606294,-1.4125389288008638,1.821813345802188,7.9124104316221,-54.14261939221393
4.191249900000001,-9.873485971307549,-3.0301752084259537,-1.352204999627651,4.3380558927667865,6.726787046681621,-51.229479883264446
4.2012499000000005,-9.777284446233567,-2.911554631089462,-1.2831193912540855,5.312238519538132,5.51140041075927,-48.040226640624745
4.2112499,-9.794485802535641,-2.8440989153957554,-1.2723031931270903,5.406374750424275,4.0773489101060285,-44.86487854070812
4.2212499,-9.809571743958555,-2.7548418414414417,-1.3321029225148653,4.421491704355862,2.3052807127783255,-41.58681842827797
4.231249900000001,-9.709775053678582,-2.690125959492353,-1.3939055639501157,2.815609285334984,0.4086728753205188,-38.29417262510053
4.241249900000001,-9.519928653506748,-2.6370091936553792,-1.3733721235885594,0.798427090207436,-2.0566991035932265,-35.116752895403
4.2512499,-9.250163114410643,-2.579472846743818,-1.3505584570498919,-1.865389882494362,-4.733241554979436,-31.86696421188374
4.2612499,-9.009236576493269,-2.588730998243509,-1.4856774007881048,-4.322934359647417,-7.247315870571014,-28.83299135963516
4.271249900000001,-8.776084669085318,-2.581064564904316,-1.6926815728233378,-6.718105892533367,-9.771939880156658,-25.905632240772416
4.281249900000001,-8.452602881093858,-2.5634428255621957,-1.8039248203878493,-9.221082494547373,-11.031502283839073,-22.634174258343574
4.2912499,-8.219128436483123,-2.638095513750631,-1.871152933900415,-11.226353236866698,-10.4290771145528,-19.203039746471834
4.3012499,-8.05675110116727,-2.76350084290759,-1.936510192328775,-12.208229932917979,-8.593669466206391,-15.464736761338006
4.311249900000001,-7.873290714034776,-2.8727327423363267,-1.948525889352786,-12.17566442318331,-5.480328947562464,-11.144426227062821
4.321249900000001,-7.736724312596881,-3.0460398265180455,-1.933487285946346,-10.841902506145292,-1.4200411146990775,-6.317846222560224
4.3312499,-7.651160799757294,-3.2870563618964344,-1.9850152045333544,-7.441380089138994,3.109088210873071,-0.776219642365899
4.3412499,-7.680451475016862,-3.5396772563986314,-1.9947062694411621,-2.1630292998217895,6.678717601953319,5.631746099112305
4.351249900000001,-7.815899436712346,-3.849748813975578,-2.013766548932559,5.026302414220442,8.128106327402984,12.673325143644163
4.361249900000001,-7.988261918577236,-4.059013172604109,-2.3100996489456787,14.126773586382873,7.97574475715007,19.80128350631921
4.3712499000000005,-8.209223092198895,-4.074731981427082,-2.718552082261223,23.804427184500287,5.767132673992695,26.571419239926538
4.3812499,-8.37105604073552,-4.037305936184032,-3.0144181200541875,33.42980890384587,1.5286988919748974,32.34414219731784
4.3912499,-8.583714677332214,-3.932117555285486,-3.1977007304765017,42.54309196755089,-4.449890002147232,37.08480034888963
4.401249900000001,-9.02950826353288,-3.7824500036170208,-3.3061880375538535,50.13266249075498,-11.474813155408667,41.53512931744304
4.4112499000000005,-9.710609290259294,-3.6441527654375374,-3.5181086432868995,55.23435457059441,-18.308369163441963,46.22806822595434
4.4212499,-10.453991912513686,-3.4609800693687154,-3.962576813381213,57.04362082141163,-24.95546994847913,51.16178224828257
4.4312499,-10.988453828117535,-3.2268741292667644,-4.503030400001886,55.40547614085476,-31.29138555550761,56.00850343305373
4.441249900000001,-11.238700652697945,-2.9116379191278274,-4.883065533727194,49.78061590577393,-37.16217034682349,60.617134107306555
4.4512499000000005,-11.144566894870419,-2.5499755988518316,-5.071140997959976,40.29199430104581,-42.125494374306186,64.07459891074774
4.4612499,-10.763193972832712,-2.145195973279149,-5.232592566693105,28.136992685983216,-45.982315821997766,65.5836217170542
4.4712499,-10.295575729473619,-1.7392699902534432,-5.403863363485833,13.855052544174988,-48.67813735599078,65.1583561875415
4.481249900000001,-9.7988170502999,-1.4839254730892988,-5.580115778597585,-2.035253716769263,-50.40533569371365,63.40338099884836
4.491249900000001,-9.265004123204475,-1.4039617410204186,-5.6928881126664015,-18.703662736506516,-51.51021515209215,60.92612415315175
4.5012499,-8.703373930751326,-1.4703789262434184,-5.826449948122256,-34.92892679194593,-51.39299702359899,58.34895693648887
4.5112499,-8.244676194871499,-1.6163290383225877,-5.960149812813591,-50.491979762098545,-50.05108585081002,56.2143196607359
4.521249900000001,-7.931472553492586,-1.835063710474657,-5.912962777475697,-65.41085178808392,-47.5801448460785,55.088963330777005
4.531249900000001,-7.604249845108179,-2.124037664077775,-5.75230644062447,-78.84793399972708,-43.829230163527825,54.71927854592418
4.5412499,-7.218333361205848,-2.375207990643235,-5.599288219113681,-90.14249934277802,-39.14476477811279,54.70163249479376
4.5512499,-6.835458758146741,-2.6378087144164444,-5.477853982476585,-98.72356471576201,-33.87601792418145,54.69768315451796
4.561249900000001,-6.510952793900867,-2.956482559685878,-5.3912680735138245,-103.65622536726586,-28.70303730970628,54.329500535595244
4.571249900000001,-6.25760811504426,-3.2372280468556007,-5.251236319023865,-104.77892918784465,-24.331344205753666,53.361195971787325
4.5812499,-6.045238107153957,-3.516392973152564,-5.042776855866636,-101.81564801082816,-20.699783310024024,51.65210118967147
4.5912499,-5.949964907216057,-3.8138964140060696,-4.897118400947112,-94.53841465905928,-17.633383832686135,49.31035963016788
4.601249900000001,-6.067530849159368,-4.099393765342964,-4.785609343716882,-83.31009466367003,-15.680318827656851,46.719822729171305
4.611249900000001,-6.416605158576785,-4.382377822003922,-4.684830397278395,-68.58528141255341,-14.692849194483706,44.151406572997324
4.6212499000000005,-6.980486258596236,-4.557308054571721,-4.686261418096883,-51.58794983709934,-14.262729689796329,41.806603891854806
4.6312499,-7.716273214828626,-4.616989580085474,-4.745300088594798,-33.80350068701078,-14.243273314066842,40.2556390853337
4.6412499,-8.540867274880508,-4.676018107930461,-4.807819425806325,-16.404501321573807,-14.643703425032916,39.40617704875004
4.651249900000001,-9.260280834927729,-4.637720101460184,-4.855938867511739,-1.0124783759170528,-15.195520023822208,39.53489848639372
4.6612499000000005,-9.890982076737076,-4.474053030005034,-4.937733145174522,11.65291849811288,-15.338158125315056,40.69119884647528
4.6712499,-10.487577879923517,-4.25550794394773,-5.0228677802740895,20.874705247378845,-15.26954457566061,41.97783585700873
4.6812499,-10.808279507727416,-4.0127323268171065,-5.048750872269018,26.029031481047053,-15.361244523642354,42.923668484368555
4.691249900000001,-10.786799292381739,-3.73902627591743,-5.072955952359965,28.2061332708421,-15.95458496306569,43.17168997536635
4.7012499000000005,-10.543979868286543,-3.4075536040378904,-5.113468815028334,27.44291588978767,-17.25104487072057,42.107668784820476
4.7112499,-10.202009991710465,-3.0664200735208422,-5.115232035682695,23.60754790408554,-19.23210875787502,39.85798306699816
4.7212499,-9.771613407970777,-2.7689067719085916,-5.099023820217043,16.93719914554381,-21.612890445114168,36.59728995176465
4.731249900000001,-9.305271242929726,-2.452325245223177,-5.04734601803878,7.199310172749521,-23.998710400171948,32.58680008629986
4.741249900000001,-8.900564656044793,-2.1596845573365093,-4.931249039626588,-5.592631220327543,-25.995535979854925,28.183527572425305
4.7512499,-8.573135786584768,-1.9826732190012237,-4.83084151751875,-21.143107309397237,-27.47020806815673,23.8707758608889
4.7612499,-8.297525835738993,-1.9114978247466656,-4.767084407400095,-38.65366019302239,-28.28124063524179,19.82673426903329
4.771249900000001,-8.062305848881337,-1.9153140292988782,-4.712775725150477,-57.001086440859176,-28.56252935095464,16.19269601461057
4.781249900000001,-7.838787290782862,-1.9957147403683622,-4.615254354141633,-75.45507887963328,-28.417804788146153,12.933135959618316
4.7912499,-7.6777173531159555,-2.130604572287766,-4.493007440131185,-93.01366590971634,-27.897211513878865,9.97083803799947
4.8012499,-7.587237319501747,-2.324432206881781,-4.423375346670073,-108.41215730466274,-27.65338745238271,7.055301207681754
4.811249900000001,-7.511615445157626,-2.5521789091014315,-4.352129606915744,-121.14122367265831,-27.22360748625852,4.113591855945379
4.821249900000001,-7.472281270884252,-2.8398897868302186,-4.218347284874422,-130.75883844470343,-26.685265182955103,1.3001343551048372
4.8312499,-7.44908938557798,-3.199728488603889,-4.065669946999229,-136.75051528882736,-26.703526657098596,-1.6789959029193628
4.8412499,-7.4117721736884175,-3.4818965130897963,-3.960515059592895,-138.8211104146242,-27.269752205652328,-4.457130337445889
4.851249900000001,-7.354479302531799,-3.70289029759868,-3.9079790243426906,-137.72257313158028,-27.961753783176523,-7.0315956996499285
4.861249900000001,-7.289826351525635,-3.8988006308729006,-3.8853903332848536,-134.06692538222117,-28.484757766824966,-9.45116941594886
4.8712499000000005,-7.2263339077728395,-4.05049721878376,-3.765270781118815,-128.62261946134458,-28.706569657583522,-11.591628100638314
4.8812499,-7.138970567509268,-4.153985117141847,-3.5198223959691948,-121.79737859486687,-28.458003577970683,-13.589460256706873
4.8912499,-7.066411812370788,-4.200797043485614,-3.294790529816763,-113.9034323096533,-27.58592395876092,-15.633847433930042
4.901249900000001,-7.039432773836871,-4.208836667296764,-3.150258493320272,-105.52892889516363,-26.543260227205455,-17.484163633966048
4.9112499000000005,-7.025634540611895,-4.182206004504606,-3.0965451017749985,-97.01879336608631,-25.74866826420998,-19.359997181395386
4.9212499,-6.997386021002912,-4.083147308915385,-3.078938792602569,-88.95614449539538,-25.372036487340946,-21.527032050813364
4.9312499,-6.998672366798721,-3.9238175047600516,-3.0463657218366476,-82.02696383636417,-25.24630234095128,-23.756763875086637
4.941249900000001,-7.103234643492193,-3.815131251442424,-2.9976864466771382,-76.20983018724553,-25.42175212352535,-26.0732700991192
4.9512499000000005,-7.295513546640221,-3.757034723505011,-2.9383959345908024,-71.63607204221746,-25.94559631230778,-28.276673097180982
4.9612499,-7.535988993747527,-3.6657600175472593,-2.889692677713051,-68.68966962622973,-26.225974233172348,-30.132722831564188
4.9712499,-7.84770074363206,-3.56970221274513,-2.9166253627150134,-67.25687189077793,-26.09228504241297,-31.826586238888627
4.981249900000001,-8.189084520972369,-3.474968000190966,-3.0141247196999936,-67.03425168459339,-25.858332780842936,-33.632435269781
4.991249900000001,-8.408637126077094,-3.3493742558806456,-3.02672242982459,-67.68678057176169,-25.568663616390655,-35.96803729635185
5.0012499,-8.511338837710431,-3.2285294341489363,-2.9308748753517353,-69.0790242616578,-25.161726128858984,-38.79838708990179
5.0112499,-8.647639063575287,-3.1625219977243186,-2.848603193526829,-70.82413807474275,-24.73206688158238,-42.04119508416398
5.021249900000001,-8.86440732944433,-3.162386979748586,-2.8077544763103015,-71.92433132743697,-24.386366834896865,-45.521846856430656
5.031249900000001,-9.31415370576495,-3.2846442930487516,-2.7672037632732494,-71.62806030075673,-24.825826668634633,-48.56526706715596
5.0412499,-10.148275006776993,-3.5197112432156237,-2.7689455118279565,-70.25982535534223,-25.60131887958364,-50.25988150204225
5.0512499,-11.143888457897216,-3.728713698583859,-2.935685727833275,-68.65092500583211,-25.761609335315644,-50.178997866762785
5.061249900000001,-11.847345083691744,-3.823679593527739,-3.1739453663367203,-67.55736535864324,-25.392943016739608,-48.856782176974306
5.071249900000001,-11.889250323405866,-3.799296873368357,-3.2945169163437824,-67.44022790374913,-24.73155029227237,-47.637357672355904
5.0812499,-11.353626629135022,-3.6905139682344883,-3.183657314616699,-67.15908767791335,-24.785172840262753,-47.976096109353776
5.0912499,-10.708127827410582,-3.4915962089789625,-2.824321982024757,-65.87835317115065,-25.435996027614735,-50.50402085629599
5.101249900000001,-10.384034596347771,-3.2560688204455763,-2.449060837039235,-64.35109384031983,-25.214790664900598,-54.782007955282275
5.111249900000001,-10.390867111587571,-3.108773782438907,-2.3013097769586373,-62.70769257085584,-24.503947715688696,-60.14596360797817
5.1212499000000005,-10.386013691257784,-3.044205609090254,-2.3759059750077833,-60.82005825941379,-24.66300946646103,-65.54569216196944
5.1312499,-10.269704617468953,-3.0326037744620877,-2.4568051657247754,-59.59476101888741,-25.6924980965506,-69.80003342179633
5.1412499,-10.334408704403973,-3.093502424720299,-2.4378680922979807,-59.23940902346872,-26.917724284417783,-72.36195448279936
5.151249900000001,-10.675901744585397,-3.1482822010394145,-2.4218574406235227,-59.48410910832583,-28.066346820267857,-73.55852172172108
5.1612499000000005,-10.957962733090312,-3.081443217316724,-2.478132676387556,-60.9851033886675,-28.784494112958537,-73.64966066387181
5.1712499,-11.016069906201876,-2.9651212242624334,-2.5751136068068585,-63.79104004497385,-29.098368364643004,-73.14757521904663
5.1812499,-10.983594469936634,-2.8193053284155463,-2.6572075875456918,-67.9796732308805,-29.005524881934146,-72.84203667227438
5.191249900000001,-10.85923942844347,-2.6263532294875818,-2.63811226941595,-73.8588173905998,-27.91603763757412,-73.0283768273802
5.2012499000000005,-10.618694409389365,-2.418075621721028,-2.5394030555253573,-81.20681267802895,-25.665111670480037,-73.90470346987199
5.2112499,-10.283090467478118,-2.264218960304946,-2.431636364046071,-89.1694138094629,-22.510175725708397,-76.15726717807236
5.2212499,-9.819788264636516,-2.1830967012602613,-2.288056450417317,-96.8397278384691,-18.618916005954112,-79.78783085700293
5.231249900000001,-9.326593855661567,-2.1825578777051424,-2.1406727072236875,-103.36309991524092,-14.350355354230793,-84.17294420084338
5.241249900000001,-8.947223787773167,-2.2890507908168285,-2.0170391271681,-107.67309861788837,-10.383456196123346,-89.42946487892488
5.2512499,-8.652266105617532,-2.4378949696399266,-1.9052598250086865,-109.3787006791722,-7.140852938929082,-95.1735570079679
5.2612499,-8.496709854425037,-2.5405412999270505,-1.8089692542804463,-109.10638416625349,-4.666607150806958,-100.74947074182094
5.271249900000001,-8.578920828107993,-2.6865588766091633,-1.7746236284268035,-106.97036208945846,-2.5120719826769036,-105.50091286171671
5.281249900000001,-8.803730008890364,-2.9250740584461723,-1.7843070117682287,-102.82720984356435,-0.8131996155702369,-108.98376186358269
5.2912499,-9.050005008064563,-3.0718406800668006,-1.795102929059051,-97.80498530323682,0.19431858585719963,-110.55400818213737
5.3012499,-9.293205430004408,-3.1748065549407203,-1.801825307190346,-92.60723067904345,1.5761812164357847,-110.07075067463875
5.311249900000001,-9.656467441946036,-3.3286487863530403,-1.822202252329077,-87.11534149758484,3.396241537427686,-107.82341988740602
5.321249900000001,-10.00565774729645,-3.418425924238412,-1.81230332509655,-81.53049157575096,5.148635394747049,-104.19529286012825
5.3312499,-10.154831875830023,-3.4284483423689998,-1.717424962236758,-76.03267296257515,7.225157656709271,-99.44546274673519
5.3412499,-10.218905132333937,-3.4094082539246164,-1.599990400606269,-70.60721721443174,9.61043943668358,-94.23722584585298
5.351249900000001,-10.288768263582774,-3.348168738939872,-1.5343516333950773,-65.46880902975096,12.024422858973777,-89.09497986999095
5.361249900000001,-10.333905770964256,-3.252461087680105,-1.4966030221128812,-60.59286292386796,13.990892178675841,-84.1104521319719
5.3712499000000005,-10.33005518698088,-3.1679212311963796,-1.4674668698206108,-56.09054166247738,15.420576464266068,-79.38438251716934
5.3812499,-10.310450020971576,-3.1303046374748407,-1.4502602464652734,-51.4618880796796,16.09593247583561,-75.02650580096498
5.3912499,-10.331718078532731,-3.11113310084636,-1.4653601798492129,-46.57625848171243,15.976982723978688,-70.74012853877716
5.401249900000001,-10.395482766981617,-3.11663302072869,-1.4884407352870777,-41.99307843029093,15.352990885149218,-66.11956464095664
5.4112499000000005,-10.43149817524631,-3.1823091200364324,-1.4873638965762284,-37.44347028815507,14.024463660265692,-61.0485586474921
5.4212499,-10.343708232821811,-3.194478492002251,-1.4659763040358358,-33.186358915174225,12.054892141942998,-55.70326067705076
5.4312499,-10.149380182864224,-3.1310212392874623,-1.4316917716644497,-29.837104093776638,9.829519293243454,-50.395479873518
5.441249900000001,-9.964947411661768,-3.052656762880746,-1.4207325722900361,-27.456829158632083,7.377110877487593,-45.07450996810452
5.4512499000000005,-9.830270859130648,-2.946361482187429,-1.4654311540153897,-25.95175715002118,4.687026071194812,-40.217171052232
5.4612499,-9.662020828520662,-2.745748799068526,-1.541851754429751,-25.793781066060767,2.1104463339877784,-36.152659736807216
5.4712499,-9.443408722462657,-2.5335488831739927,-1.5791449963701147,-27.079593074274015,-0.26626085856860576,-32.97137881529667
5.481249900000001,-9.195528190817928,-2.3841054457830846,-1.5824374696449626,-29.88956638423232,-2.7689370758971887,-30.49953700244573
5.491249900000001,-8.949541754553882,-2.26163096216817,-1.5795930802048825,-34.134430817213676,-4.954231704293396,-28.399133606243172
5.5012499,-8.797995039929976,-2.2050310473360497,-1.61192462051635,-38.87380834526268,-6.587797070609043,-26.714803070958986
5.5112499,-8.660519296294924,-2.2059497586284724,-1.6312119656675432,-43.759810613286945,-8.429588961776423,-25.025791621332395
5.521249900000001,-8.48342660032828,-2.202532272219788,-1.6185736112041347,-48.90010919776641,-9.947557569774997,-23.235373103873556
5.531249900000001,-8.361343685362904,-2.2434134913875146,-1.6329096486813561,-54.317329645406,-11.161003086035992,-20.96902991550298
5.5412499,-8.280840864426816,-2.374337809779912,-1.6610663340493128,-59.36699429869611,-12.448658083323162,-18.31670140929117
5.5512499,-8.188852506118826,-2.473252947880044,-1.6806866526509663,-63.89280504781569,-13.693031654341711,-15.305629809865218
5.561249900000001,-8.052246194759771,-2.5231687919538692,-1.6738391453920054,-68.20994910155594,-14.492854960065351,-12.238020650253171
5.571249900000001,-7.947514212770453,-2.622296683142979,-1.6568890152320805,-71.8564929399201,-15.083344859704148,-9.214213350638305
5.5812499,-7.898145584587564,-2.7540532580072403,-1.6507722534548748,-74.57719336978366,-15.63336995309705,-6.170517775026037
5.5912499,-7.8438117419816145,-2.908300607969204,-1.6311550516627353,-76.04850204898976,-15.961488383033576,-3.292002561613674
5.601249900000001,-7.82347892986004,-3.0561075838795717,-1.638219733124329,-76.02287495498757,-16.10473002281562,-0.48392354079307237
5.611249900000001,-7.920580075995233,-3.1738684966037667,-1.7257698064568,-74.8695095063524,-16.12302975916145,2.304055910343353
5.6212499000000005,-8.13295838063023,-3.292824724166653,-1.8416376827790684,-72.4976125570813,-16.18910336458204,4.784956139788926
5.6312499,-8.323640274076388,-3.399508294733063,-1.9413644340355813,-69.22204871296015,-16.2921338948276,7.2711756829182645
5.6412499,-8.448851479086509,-3.4806317849625685,-2.0038539508114424,-65.22183599413488,-16.135017556518225,9.742762580994684
5.651249900000001,-8.588902493214936,-3.5349261083631696,-2.056297712329681,-60.16933004028832,-15.912456965400503,12.112521238450897
5.6612499000000005,-8.830603031718999,-3.5465484667547216,-2.147453347588568,-54.873466487687864,-15.754575664024056,14.33699895743259
5.6712499,-9.093401290620964,-3.5557824528076325,-2.2794121476424394,-49.67957897965629,-15.567766476869044,16.01243750946022
5.6812499,-9.264963281647024,-3.552099758798627,-2.4183426330691815,-44.24367763468742,-15.433963813189331,17.16028278532092
5.691249900000001,-9.39130104958954,-3.5116692280405166,-2.559709731020353,-38.834176630252536,-15.419672512399787,17.868076592694695
5.7012499000000005,-9.56751281116988,-3.4575722142799,-2.7254905735752875,-33.552666170694124,-15.534767243556471,18.25300331661486
5.7112499,-9.803756690882677,-3.4210029548406884,-2.89640190891975,-28.377637175200544,-15.79594608294565,18.198080215102184
5.7212499,-10.080490175421112,-3.3958524383940207,-3.0302383861643962,-23.424562556999696,-16.372051422022423,17.761761590697752
5.731249900000001,-10.428685762679619,-3.350446109572689,-3.161852343689228,-18.623437995701533,-16.994055363374088,17.277917838769916
5.741249900000001,-10.92370272492863,-3.2868088905240556,-3.327191807158624,-14.38090602592377,-17.69555419125231,16.72280628480096
5.7512499,-11.474628586118175,-3.222426672483254,-3.5689281501797776,-10.97805720513101,-18.530055835296665,16.057058603465364
5.7612499,-11.803397345949039,-3.1145899235288317,-3.912893674808186,-8.653735407934583,-19.520137416502575,15.075779112213693
5.771249900000001,-11.762361449934211,-2.9196609478654407,-4.241762951657865,-7.4828736688399164,-20.61020352864718,13.373828287844322
5.781249900000001,-11.40931269512342,-2.668381501201057,-4.43203190566659,-7.4932760261365114,-21.79051952636906,10.713594355108437
5.7912499,-10.904509282205904,-2.4242050903609518,-4.557174317260279,-8.225303621937504,-22.770628995012725,6.790754021970327
5.8012499,-10.433402455181971,-2.1749437473874202,-4.600566676044928,-9.306118707911251,-23.25607048899577,1.9091505816652856
5.811249900000001,-10.03950687556759,-1.9703079716673622,-4.628197697383424,-11.042591088241517,-23.111600316523873,-3.151584961988021
5.821249900000001,-9.68580837077005,-1.9324417009652528,-4.7770466954026345,-12.953142558289317,-22.82072266145013,-7.622294489464313
5.8312499,-9.322165227489133,-1.9659424768685938,-4.954918543711305,-14.49658804377239,-22.561289845390117,-10.85585674022111
5.8412499,-8.911333159087668,-1.9224816671871203,-5.09821484810295,-16.574051985619036,-21.91626937628706,-12.798285203398486
5.851249900000001,-8.405471360390395,-1.880545757138698,-5.280333454820783,-19.452555704539062,-20.766065357411712,-13.622856104628555
5.861249900000001,-7.7211585834009195,-1.845871823110134,-5.476105649232105,-23.05344382755098,-18.647754072236737,-13.52987282666284
5.8712499000000005,-6.909372942854295,-1.7860614435775575,-5.511880937224967,-27.546793745423262,-15.253106244946656,-12.943750544096352
5.8812499,-6.105128639239333,-1.7335717187407071,-5.379371244718152,-32.0742288596992,-10.736263102375137,-12.144319821911134
5.8912499,-5.397624932313517,-1.677453165616174,-5.185399064374405,-36.245691633788546,-5.240219295221761,-11.134958128284286
5.901249900000001,-4.908604569753926,-1.8104360682452882,-4.889023248144196,-38.66953542027734,0.27689018332799725,-9.959632289570447
5.9112499000000005,-4.649342276005626,-2.0018033616595483,-4.593562383484951,-38.66589913523566,5.485637369867231,-8.42995414739272
5.9212499,-4.66081478276833,-2.1972749298750722,-4.527824996959416,-36.06249795915245,9.62956065280818,-6.301828897752141
5.9312499,-5.078812424444855,-2.49854775263168,-4.6575665647959354,-30.29164986426786,11.409886358696046,-3.3743158279948653
5.941249900000001,-5.824181081275021,-2.654129826617168,-4.886112304362381,-22.70997012403462,10.27868624951351,0.5059240254642644
5.9512499000000005,-6.648499814199138,-2.7459412773482037,-5.132669288687605,-14.522556053955297,6.489772965346016,5.657430947386617
5.9612499,-7.457883482378282,-2.921258748124605,-5.294298183108794,-6.280551461329219,0.6769817854466081,12.253588554703855
5.9712499,-8.234823530710543,-3.020809764463627,-5.3829539174316805,0.4980465425311396,-5.971850675390274,20.648525009636764
5.981249900000001,-8.982269047301182,-3.120314401702454,-5.508871144434329,5.051960722155143,-12.311301780270611,31.208819302268445
5.991249900000001,-9.656821618402168,-3.2918039125985663,-5.6685966363096645,7.333335872526188,-18.2957624019371,43.457276915760445
6.0012499,-10.079870938131256,-3.381498073986161,-5.696306491000335,7.466456057470066,-23.62309322742205,56.54410665971986
6.0112499,-10.086055458976098,-3.2960190519043846,-5.584245368070744,5.427917127897609,-27.842254336950926,69.08925721478302
6.021249900000001,-9.788835348738363,-3.0454391019421077,-5.4632533272517705,1.0656382730082552,-30.691396389119088,79.39759930220286
6.031249900000001,-9.515078537420314,-2.7232044937049733,-5.320966892481499,-5.3406826313299804,-32.25278500478585,86.61310137917867
6.0412499,-9.403020356442001,-2.42058906303834,-5.189391353163951,-13.689186243748141,-32.75173102099183,90.63636387067638
6.0512499,-9.35882106813441,-2.1518422473461127,-5.117458331466354,-24.241193828503615,-32.24847040666786,91.60572648548415
6.061249900000001,-9.27216341646776,-1.9014610557726594,-5.034995482347291,-37.022150266544365,-31.093278406953605,89.61236007042439
6.071249900000001,-9.094395338270605,-1.7068305866223554,-4.903671238905967,-51.34934922340181,-29.44137641885893,84.9782814106965
6.0812499,-8.889638295496697,-1.6696076361106038,-4.7717156263831635,-66.12226942716312,-27.062043157346334,78.33866775620501
6.0912499,-8.697876829668552,-1.7659968540207092,-4.685551888433114,-80.016432012807,-24.87632190560054,70.05814287397041
6.101249900000001,-8.451311740037863,-1.8900955366951062,-4.569385951617756,-92.70279217868158,-23.568717731854374,60.67889980920916
6.111249900000001,-8.077307380890032,-2.107015538878492,-4.3801083304840915,-103.73946496276201,-22.220883915425116,50.80717636087597
6.1212499000000005,-7.742351102699514,-2.4054940656597372,-4.210127170154456,-111.75453599883086,-21.543030921926093,40.54994653859395
6.1312499,-7.446128586004298,-2.670966307697364,-4.066473659734498,-116.96956483909361,-21.96972597980935,29.993947833421522
6.141249900000001,-7.159556873616661,-2.916151578660184,-3.921429362282948,-119.96308031909642,-22.93930668719608,19.64994461522947
6.151249900000001,-6.974886157015921,-3.1569966162666643,-3.83056423673529,-120.74816827740234,-23.92028221233215,9.97534367923385
6.1612499000000005,-6.920484660939075,-3.351862454831545,-3.813385122533952,-119.88059171025209,-24.976921143666566,1.0991170479887709
6.1712499,-6.895564049831602,-3.4746712409239544,-3.791993603383587,-118.08987181903512,-25.98493262212983,-6.4902467819266745
6.1812499,-6.81314779526956,-3.5878157104555948,-3.7244165178427275,-115.50503873832231,-26.435950147988663,-13.014605322992152
6.191249900000001,-6.725575296099526,-3.6441832759598194,-3.607315408466324,-112.60155040544447,-26.479329493768375,-18.683041870782336
6.2012499000000005,-6.761233931375972,-3.642343913506165,-3.5138980530419537,-109.52685213778555,-26.444555301761675,-23.39362236650848
6.2112499,-6.934890858145971,-3.595772227947554,-3.515083724099158,-106.6949469482098,-26.006867132326143,-27.417419608440454
6.2212499,-7.242780082277814,-3.5624811133541816,-3.565134908236385,-104.28540623417463,-25.51311651675257,-30.853515974219548
6.231249900000001,-7.6449024680050455,-3.5535535349220444,-3.620861003667985,-102.21171650900762,-25.444066232089096,-33.37517526735653
6.241249900000001,-8.075029039341752,-3.5304911075482854,-3.687723424134434,-101.12203378020035,-25.689113977471845,-35.05059862161288
6.2512499,-8.562237171185526,-3.5123773538460816,-3.7454708460654884,-101.43964358446108,-26.124955653049106,-36.09682372875041
6.2612499,-9.077454554644024,-3.4769280102978275,-3.8131843367862817,-102.6900202744437,-26.990859788291466,-36.79165312802817
6.271249900000001,-9.54583036023662,-3.375408169844918,-3.9073385814037436,-104.5643326350565,-28.222339281623647,-37.749933686413826
6.281249900000001,-9.98817104660075,-3.2259236668280087,-3.951466810990236,-107.75053898410407,-29.801348227571967,-39.14682836928993
6.2912499,-10.462530425260082,-3.0923401380336495,-3.965064437289676,-111.87128287835415,-31.410073300387495,-40.99476063749694
6.3012499,-11.035698922037325,-2.919067102157346,-4.02653283908961,-117.68120353084714,-33.12858672780138,-43.46190799124923
6.311249900000001,-11.526269556731695,-2.7092374812634223,-4.056759637450711,-125.39630818104276,-34.78273097875737,-46.461606565099686
6.321249900000001,-11.63757645001604,-2.5501002001420665,-4.016697480029921,-133.95534140348641,-36.44213689871797,-49.915789827957575
6.3312499,-11.400652917652128,-2.346628093070704,-3.798355599746292,-144.63862015776306,-39.16733397475448,-53.64400981598425
6.3412499,-10.941157491858206,-2.121714524891011,-3.5738599194827834,-157.51892779988117,-42.767728191002256,-57.49632484152201
6.351249900000001,-10.487736525662166,-1.8593935641248347,-3.6260137179605296,-172.34081253809595,-46.01256748302366,-61.92869442405488
6.361249900000001,-10.216330612604725,-1.5557675977056284,-3.7947143670192727,-190.12422047311637,-48.458899669586096,-66.5690078613784
6.3712499000000005,-9.960331589198047,-1.3780582857767287,-3.894885028508906,-210.8870740402139,-50.21498415761789,-70.82313590567007
6.3812499,-9.55714608539805,-1.3645193342457242,-3.955793119531323,-233.35943534540306,-50.85791508947063,-74.4688249618695
6.391249900000001,-9.164960492120485,-1.4725437330334,-3.97611743812394,-256.6808969861436,-49.854558268115476,-77.32941355513111
6.401249900000001,-8.783476590334098,-1.7586246621204455,-3.867187416719314,-279.0818076740716,-47.23211940424484,-79.24450311076774
6.4112499000000005,-8.340705689593648,-2.1822353414943394,-3.7783740909473753,-298.66788599073016,-42.73207286275606,-80.2979594967576
6.4212499,-8.096141846319718,-2.5845827658020966,-3.6660787495227996,-314.50108428958777,-37.40765150014836,-80.84060235868832
6.4312499,-8.10446232953989,-3.0015553556615346,-3.4688689097153427,-325.44058340672785,-31.466538709076637,-80.8535907093644
6.441249900000001,-8.274145235204436,-3.460500187096947,-3.4602785974519983,-331.05401595097874,-24.54084677996914,-80.50543839510773
6.4512499000000005,-8.594845973812458,-3.887629430636411,-3.676500914456629,-331.5750870118622,-16.712368256195493,-79.96183323776526
6.4612499,-8.962192934068135,-4.2374476422898715,-3.570676853889736,-327.7527258216778,-8.850815635746631,-79.10317973670193
6.4712499,-9.062451490997242,-4.701507567737098,-2.9691439792592575,-317.89503457841937,-0.039779699091189294,-77.26430968698493
6.481249900000001,-9.001487066779434,-5.22242099321144,-2.4967750040878935,-301.23650998897415,8.78364773883269,-74.80505016265087
6.491249900000001,-9.092085109512807,-5.487928785732371,-2.2289660241934963,-280.7599590826634,15.843876375972023,-72.18746195464895
6.5012499,-9.276185680872372,-5.657367438129818,-1.9481780081133615,-256.0361776928215,22.118921905377434,-70.00042811421716
6.5112499,-9.6358996140308,-5.716331468028586,-1.7467671262389954,-227.5810072230232,26.792903452538788,-68.69513139917663
6.521249900000001,-10.043937901208222,-5.742136381584103,-1.5824774369548882,-197.39906380040875,29.456100100711033,-66.77223534579099
6.531249900000001,-10.46581149645036,-5.962150275831731,-1.3126207867427806,-166.42215572482553,31.480447732689413,-62.88744836965525
6.5412499,-11.074572655970705,-6.156446701146831,-1.1437370458039124,-136.27497108138047,33.47073777680366,-56.56746672102639
6.5512499,-11.643760663135888,-6.2164563302623455,-1.114862966867185,-108.010810500075,35.7327855657181,-47.98774617246524
6.561249900000001,-11.89810057822042,-6.230185713026214,-1.0402691223110314,-82.06846278152076,38.51026306000818,-37.400146618340145
6.571249900000001,-11.909343128105519,-6.175805284868689,-0.9912824044186744,-58.5209637552898,41.89349552441473,-25.799153482914857
6.5812499,-11.71217288239913,-5.940279525153327,-1.0263552277676151,-37.386714146038,45.40297557407825,-14.743901974417046
6.5912499,-11.243667241600042,-5.436915713211891,-1.0081671855830028,-19.738580076665322,49.54203143247948,-5.75194024428953
6.601249900000001,-10.63100353446158,-4.895378969651118,-0.8742983275700908,-5.511151484001039,54.876430443898926,0.30075584802561933
6.611249900000001,-10.040324525442697,-4.463381982915471,-0.7306347595799657,6.180609847466791,60.55071384325677,3.362692364546342
6.6212499000000005,-9.436885219531282,-4.017435254082321,-0.6835062281351288,15.00468135971152,66.18694312250857,3.913178888106957
6.6312499,-8.904449242856154,-3.680738541226627,-0.7242108144815382,21.626382019976717,71.91856771274334,2.323088744209193
6.641249900000001,-8.566713614698497,-3.5326614809970893,-0.8548048801914004,26.95491905811203,77.41975396003761,-0.5529907717622858
6.651249900000001,-8.339280115585881,-3.4935112364015604,-0.9968451786026133,31.462268150906905,82.46492882798519,-4.09217106567108
6.6612499000000005,-8.163519132612015,-3.558486782079872,-1.0634476012369416,35.99304505621052,87.07633760481497,-7.705469794518796
6.6712499,-8.065340054948757,-3.7283971218346568,-1.07885257564189,41.53890891721467,91.50421987063433,-11.033509050932437
6.6812499,-8.066367280771068,-4.000755266938337,-0.9661766707096988,48.65311184364766,95.44801880768846,-13.718500762040401
6.691249900000001,-8.177534259267487,-4.301054360236859,-0.7595407170674294,57.771244532665314,99.0021369791455,-15.685191023601584
6.7012499000000005,-8.401843012742043,-4.552375646126178,-0.6007391407615849,68.81975414481427,101.87859805367702,-17.261216878613197
6.7112499,-8.747692191082932,-4.7919016104004974,-0.548435273512205,81.56904263869973,103.7464223691943,-18.54648360953974
6.7212499,-9.157591218072099,-5.009728382746482,-0.6109370586500054,95.98131650689598,104.51559870595135,-19.600272918302842
6.731249900000001,-9.613777491325083,-5.163523407266655,-0.7036095578031376,111.24311325073445,104.44314166761494,-20.535015272249105
6.741249900000001,-10.160877360147836,-5.296329678601162,-0.8348556343958133,127.33442928959744,104.7477155160355,-21.504561919255938
6.7512499,-10.686308511597334,-5.368117692102143,-1.126600619242206,144.64082502504158,106.43920481152563,-22.883698062268678
6.7612499,-11.149303415580857,-5.372174034590056,-1.3877715635871546,162.70839094469827,109.82143207210763,-24.883521368773536
6.771249900000001,-11.455686942859035,-5.540397326979481,-1.106563733670285,182.33312561356578,114.71131986842053,-26.760025321942223
6.781249900000001,-11.423357448044946,-6.017684105260903,-0.3840478296712955,203.96284988223553,119.34919586416693,-27.877335709243447
6.7912499,-11.109886693397376,-6.524002643394048,0.03888780263145942,228.49819576672476,121.90614888140493,-28.739964370205165
6.8012499,-10.962845186153237,-6.711046566927686,-0.09845606807947407,256.2415894194142,119.43143105171008,-30.36195312905362
6.811249900000001,-11.017878736899888,-6.5933695656114235,-0.5210825569228448,283.42301945671693,109.17985821078307,-33.29962457454298
6.821249900000001,-10.886187432951559,-6.27373077287914,-1.0812538644292553,309.0304030387179,92.81813097764828,-38.141060241734145
6.8312499,-10.688032821722972,-5.606977407466428,-1.8464323391099553,330.3935828643702,72.91562991348039,-44.753135826598175
6.8412499,-10.590088524092664,-4.985366356540706,-2.728762892266459,345.22943128934645,52.384767189265226,-52.68810890372432
6.851249900000001,-10.645307132273453,-4.4056115366748685,-3.3851886725532445,356.0486746987805,33.38282493276249,-59.39122006252085
6.861249900000001,-10.816880795243549,-3.448799084078181,-3.475454875091083,359.18067518777127,15.255249858388511,-62.842397221456636
6.8712499000000005,-10.777827875802545,-2.5327365995376874,-3.081866772209584,352.11173220492907,-2.3245764422394917,-63.03491665320852
6.8812499,-10.36365396664396,-1.9203683971566847,-2.565720323332973,337.3282765247852,-17.203743586034875,-60.432346346506215
6.891249900000001,-10.135107955321827,-1.3297694711646348,-2.0795828794646454,315.37396816351713,-28.946261307800075,-55.747776746165854
6.901249900000001,-10.35142127137107,-0.7578542880196867,-1.8601065485902746,286.7678625885812,-38.22849493197704,-49.69347165454956
6.9112499000000005,-10.684357374227353,-0.25594639239799966,-2.1147720827303615,252.62552062163124,-44.91028146664043,-43.139455246482136
6.9212499,-11.005413302334297,0.38394471266915103,-2.5980268459563907,212.51123029737877,-50.445313113016766,-36.9743265927329
6.9312499,-11.129195771390538,1.088054551234503,-2.932969991426615,165.99921780763484,-55.87011108969437,-31.648202120920537
6.941249900000001,-10.963661191420124,1.4311151622330596,-2.9339826806369205,115.49472373410751,-60.10679807716675,-26.695831349491666
6.9512499000000005,-10.77721503877433,1.4551443278663962,-2.7690765701996054,63.16824705801048,-63.26877163112921,-21.996146978305585
6.9612499,-10.58679076391115,1.4512154845585958,-2.57500404995229,10.02324837490863,-66.21372483878555,-17.58585476982654
6.9712499,-10.248819291894364,1.2018889349758606,-2.3811840666847206,-41.903571129736555,-69.15635366985583,-13.027499814942624
6.981249900000001,-9.88096378065491,0.470736652994662,-2.4635115845324034,-89.57686977392153,-72.05428073446159,-7.428959303675426
6.991249900000001,-9.605075464888163,-0.5016428240464919,-2.856449817063501,-130.87738090928224,-75.37362650475706,-0.6297198617144651
7.0012499,-9.404707769867775,-1.2999421341954045,-3.251583424129104,-166.61488950603572,-79.73669247441187,6.849350058758931
7.0112499,-9.158319888875289,-1.9543617958504658,-3.5994156151758143,-197.15230501599063,-84.30571418829898,14.08707264408264
7.021249900000001,-8.782004903584456,-2.5586079242736024,-4.037758540752726,-222.30837019724197,-88.76789689751716,20.061473599542854
7.031249900000001,-8.28985545158587,-2.9806258547432334,-4.53410083798931,-243.75643729973797,-92.83098983320129,24.492722934788674
7.0412499,-7.824599008657856,-3.3255590650428837,-4.946383282349472,-262.1492601016172,-96.728725661827,27.653880608369814
7.0512499,-7.4194554955901,-3.6586611351825353,-5.388088556859922,-277.4287567969406,-100.4982899719328,29.051448018088813
7.061249900000001,-6.9667707500211185,-3.828288798936812,-5.890295211507903,-290.6312960179886,-103.05428047939408,28.977881122196024
7.071249900000001,-6.517323995484179,-3.796497732372154,-6.227407669157625,-303.01275911838985,-104.32829595424235,27.315585007488554
7.0812499,-6.0809466675495845,-3.674255420557826,-6.562377392346091,-315.0509838718245,-103.56239874436172,24.1255993732339
7.0912499,-5.75707148474524,-3.588960704081017,-7.00377620304944,-325.0810320464954,-100.8876091617173,19.570835216293077
7.101249900000001,-5.5040026654699785,-3.5178528508224196,-7.372615172679498,-332.8992886926194,-97.81559454852467,14.380371236402251
7.111249900000001,-5.15758645560277,-3.5158434127029485,-7.834289369818379,-337.55743871947004,-92.81919574312936,10.01889398240478
7.1212499000000005,-5.017544155206839,-3.5600563848117703,-8.369774437487111,-339.1465982825382,-85.34645777678341,7.188954447635919
7.1312499,-5.3751016495352495,-3.713224332406727,-8.403759642521994,-338.7910490540353,-77.02179646691934,6.464505042522477
7.141249900000001,-6.041129799569655,-4.139541791464816,-7.893658295127961,-331.6023918855348,-68.77509943235695,8.922988944522606
7.151249900000001,-6.660004252878752,-4.697161076215663,-7.514017721343907,-316.3134651356773,-62.22065964936706,14.194929932558587
7.1612499000000005,-7.205177464386488,-5.3489362734859816,-7.4676234592389825,-293.45439532461666,-57.33199851858994,21.511084368012856
7.1712499,-7.978718584999876,-6.05967298050511,-7.554865528241901,-262.28285637172814,-54.961782371704615,30.228486598491926
7.1812499,-9.02582064904658,-6.5213991546749766,-7.707564155031854,-224.60738191393384,-56.46450881740492,39.02247831415297
7.191249900000001,-9.843741064498001,-6.799927562167266,-7.847387419104465,-181.74019910842077,-59.47568601553634,46.62772031980676
7.2012499000000005,-10.288493555393487,-7.043582824256008,-7.880419064179084,-134.5805682330615,-62.612496231956904,53.189202064395
7.2112499,-10.366541189592938,-7.044854227650309,-7.7761181072384,-86.4809817918287,-65.08009275190881,58.12194779615624
7.2212499,-9.8472056898244,-6.612492876872002,-7.490503156574161,-41.00032445070128,-65.76505868964081,60.34043022280306
7.231249900000001,-8.906746745562925,-5.7671191493356035,-7.1628842292782045,-1.8829677020763875,-63.53733509245197,59.19026804818786
7.241249900000001,-8.091508456773441,-4.721523765915742,-7.0328904511221175,28.021164775410952,-57.971058485651405,54.419133356719286
7.2512499,-7.556425910840448,-3.8474828575063245,-6.9645959661618155,48.72157991366612,-49.89954194465993,46.61731300030054
7.2612499,-7.132237576307188,-3.183999044914216,-6.705265086040981,60.17745486875424,-40.05733485113083,36.48921735285997
7.271249900000001,-6.7678892833950135,-2.595634884895042,-6.361606185422094,62.53737954136089,-29.492623483611503,25.034810460214583
7.281249900000001,-6.538976183931845,-2.170525709389258,-5.95089785110104,57.37306804174612,-18.836938930388154,12.604530957248075
7.2912499,-6.553232363591981,-1.8940688790657623,-5.4389630872928345,46.321001748042,-9.239716257684787,-0.4582205750656605
7.3012499,-6.852107845191645,-1.780216628300147,-5.007640970087513,32.876368448651704,-3.379107488871096,-11.65454525541694
7.311249900000001,-7.365905277634196,-1.807492438011863,-4.68167076630707,16.296985470194556,-1.97139428836247,-22.382920545343524
7.321249900000001,-7.833668087363953,-1.858119399684358,-4.456372535275888,-2.0532787811077458,-4.592317423292332,-31.93129504488617
7.3312499,-8.057114001000205,-1.9146338694738334,-4.326252030686203,-19.98108655815958,-10.31718603000478,-39.4420521808622
7.3412499,-8.11191943921651,-1.8845542303112726,-4.27847545176983,-39.49152195561016,-17.504646122076277,-46.46934910116738
7.351249900000001,-8.113020775796251,-1.7855757592000887,-4.3411272205927185,-59.94048966814741,-24.559921509168717,-52.86296856118805
7.361249900000001,-8.075933368993807,-1.671987642551299,-4.334736038419117,-79.48497544085626,-30.687818606125944,-58.60973437045958
7.3712499,-8.079282266357877,-1.5242246204960102,-4.06934215175286,-99.75207017568013,-35.763138135173136,-63.54055643270187
7.3812499,-8.10753278262524,-1.5470638455464902,-3.6142879949647,-120.63810447660012,-39.94026025231918,-67.1873615264692
7.391249900000001,-8.002090505880481,-1.8875152641545936,-3.1641771044247786,-139.46563053245845,-42.8572316863899,-68.8714645098235
7.401249900000001,-7.8234887600631895,-2.3931065466290535,-2.862688860369757,-154.65077164104096,-44.59499206397729,-68.52674949282444
7.4112499,-7.765139385293456,-2.8642674388083,-2.7426965399273406,-165.96562757067133,-46.39008704576049,-66.53659071680896
7.4212499,-7.754512091522761,-3.2733510893974014,-2.883585967585633,-172.85717161674287,-48.264410552127025,-63.418737862922875
7.4312499,-7.745767268942295,-3.5726475944513236,-3.204040742589396,-175.54614086911383,-49.41330410925527,-60.20917803608156
7.441249900000001,-7.895126490831819,-3.8111892653484993,-3.3528032493256883,-174.2969874264814,-49.44349703497902,-57.696864968539714
7.4512499,-8.071637338830703,-4.178001497834987,-3.45051086731105,-167.29580345759246,-47.94661646677426,-56.33563961361057
7.4612499,-8.117000427494116,-4.729594772695058,-3.420154599265275,-153.81785032191624,-44.93231241478483,-55.48115905402641
7.4712499,-8.082013693246251,-5.532826084794018,-2.9000259320573623,-134.19641489167293,-40.79920758069732,-53.184959969075116
7.481249900000001,-7.9241931408524104,-6.528101707643645,-2.092638043511014,-108.34733325398929,-35.5693789599452,-47.772389457183834
7.491249900000001,-7.716096887266099,-7.488113361302333,-1.3668138998543333,-76.5499929436062,-29.79422152692905,-38.92168463308585
7.5012499,-7.678191238432242,-8.103041379758382,-1.0115025733008187,-40.78068565169824,-25.445004161731706,-28.182749602134155
7.5112499,-7.796921216576669,-8.057478033679443,-1.486306543925724,-4.062228747521507,-23.848079646275025,-18.65675524458078
7.521249900000001,-7.9532287198617,-7.185763078371793,-2.5203248663145006,29.018669090233747,-25.786055269524688,-13.42772770737603
7.531249900000001,-7.989603040579487,-6.010972867070373,-3.31859928467012,54.44547102790347,-30.547697575393315,-12.925524633571314
7.5412499,-7.994928300608086,-4.9976906887762915,-3.705360352411625,71.36369238597324,-36.40863876500961,-15.961214841798421
7.5512499,-8.205530560946235,-4.037838801218761,-3.897381833075646,78.79335046762878,-41.9704913029207,-21.18812016665803
7.561249900000001,-8.644768032928528,-3.2401262295488973,-3.978867149580735,76.51062647640728,-46.496731723523595,-26.903850191306265
7.571249900000001,-9.336488253853792,-2.638158106256632,-3.913588328105436,65.4771771258059,-49.40209904265466,-32.35264507823064
7.5812499,-10.341114828564171,-2.1743631357430413,-3.748161547943243,46.64909623772416,-50.341820554340536,-36.58482079625115
7.5912499,-11.631741216146818,-1.929925401098247,-3.6810824158859705,21.060505833843823,-49.80776846420882,-38.75355722724138
7.601249900000001,-12.953799607775595,-1.7954036268961409,-3.7870350530001597,-9.591031613812056,-49.444145115931306,-39.106562557188404
7.611249900000001,-13.93267472922312,-1.587756881982633,-3.9655655918473975,-44.78824355645257,-49.738178512029,-38.72391355502388
7.6212499,-14.458128104173806,-1.325820581531449,-4.218450969073214,-82.31844363155545,-50.58878395344696,-39.13957277615458
7.6312499,-14.585645194571809,-0.9856109348253386,-4.50354487256686,-119.93966418636086,-51.98911709475795,-42.14376280000452
7.641249900000001,-14.373866599408347,-0.6839465028554712,-4.650837721877509,-156.05948771676807,-53.492615377119634,-48.506000409021595
7.651249900000001,-13.788220214542367,-0.5613941708910739,-4.656220239950943,-188.39917250004933,-54.38269804072064,-58.17954633611786
7.6612499,-12.921931715221488,-0.6477294961749127,-4.451831098385989,-216.72301785805737,-55.92522273874616,-70.3618235756004
7.6712499,-11.80107239101984,-1.1150988014591219,-4.018497368875757,-239.69405243931152,-58.343226509744355,-82.696310014147
7.6812499,-10.619856507561394,-1.856370017148212,-3.7134359488618363,-256.2389022711171,-59.96024561393005,-93.63901615583681
7.691249900000001,-9.687820065933616,-2.4004856826367256,-3.6968901118102004,-267.5744660820017,-60.3009499468937,-102.92228551414644
7.7012499,-8.9215072475997,-2.7515871609710802,-3.72142216513035,-274.4817895733433,-60.265038771034554,-111.02653642037859
7.7112499,-8.236032318683602,-3.0641144718599915,-3.5914071459289905,-277.3704690951369,-59.92210252468353,-118.006635241392
7.7212499,-7.633768189612888,-3.3046456814531724,-3.449312917928547,-276.4630657643491,-58.874165202164036,-123.8239756292436
7.731249900000001,-7.162706933218164,-3.475481367498376,-3.3381307742362507,-272.3459914464783,-57.327351208767375,-128.6172548670148
7.741249900000001,-6.843568887650396,-3.636225660029988,-3.2113879712710247,-265.6252484737321,-55.247738326668404,-132.05906761690895
7.7512499,-6.585220396574407,-3.8135668586107094,-3.041217090338827,-256.3294459281582,-52.55844092858169,-133.89482991935867
7.7612499,-6.365060647379923,-3.95274492715258,-2.718686856112486,-245.4810064275049,-49.44093975055336,-133.98904238254886
7.771249900000001,-6.228193432416293,-4.080849296333351,-2.3495363444084654,-233.37646280265184,-46.17707294622647,-132.19073345622846
7.781249900000001,-6.22414939259773,-4.188412147202916,-2.1870344319354587,-219.73130312513874,-43.05828498197764,-128.31916256007918
7.7912499,-6.39877146794174,-4.252398178497792,-2.129641183997023,-205.58385534660403,-40.49740574477628,-122.27640917682203
7.8012499,-6.682018473549536,-4.285152947076509,-2.084537603802525,-191.47566820711762,-38.06249171469487,-114.22306001648796
7.811249900000001,-7.0266032471260855,-4.305507785084833,-2.1233224420566046,-177.6838738967052,-35.46498293820617,-104.30371853061133
7.821249900000001,-7.42366845520907,-4.3466857288629654,-2.185685625378799,-164.43633648269017,-32.284542354147234,-92.55539377609621
7.8312499,-7.745766557760355,-4.459559445278028,-2.070611063372504,-151.71174056754373,-28.523672251997972,-78.89791372819099
7.8412499,-7.807385981218902,-4.6519080467994645,-1.8297888616269866,-138.5875990253169,-24.132354658022077,-63.64213563255591
7.851249900000001,-7.675768134061364,-4.882889929191825,-1.5850653067645732,-123.84898401065999,-19.206155805967228,-47.409184692612
7.861249900000001,-7.544609497988064,-5.127471972929834,-1.4385547939123322,-106.93453219772712,-13.891961851283828,-30.801822265393298
7.8712499,-7.498122266102296,-5.349337189957217,-1.518040650695963,-87.54945746317293,-7.7584159354499915,-14.564944199450867
7.8812499,-7.539761496642174,-5.463101491224177,-1.6525380070686464,-66.45124826537769,-0.21838117273062474,1.0547854382404034
7.891249900000001,-7.696906362566195,-5.479252106711733,-1.591087556476732,-45.24746614117235,8.897166094477559,16.09033251795041
7.901249900000001,-7.905137705464011,-5.543564290521851,-1.3349946615903552,-24.15659946517453,19.64221739452955,30.59667708257304
7.9112499,-8.074994990255027,-5.6758989710837655,-1.0195026513607566,-2.6833041275839546,31.344368659758487,44.433809316586
7.9212499,-8.140669532368843,-5.801694606828298,-0.8166080215540239,19.359960415781952,43.22369810548625,57.2550660599775
7.931249900000001,-8.161414573057112,-5.87176893491701,-0.8268279262453202,41.94125115335542,54.312906574851034,68.2905635990413
7.941249900000001,-8.218134775220195,-5.821457386512879,-0.9266193518809409,64.44899215912102,63.88187860756248,76.5517469134877
7.9512499,-8.316112500510812,-5.682098460050343,-1.0005048121020026,86.77854530169665,71.12491223983704,81.48754140506023
7.9612499,-8.415735498098195,-5.483804905687841,-1.0807155826843435,108.22385092022009,75.84148363148554,83.03750550909518
7.9712499,-8.517315495340828,-5.142945688004197,-1.1753843844064584,127.9900440590894,77.80659739702922,80.76234170077062
7.981249900000001,-8.636496787407694,-4.770644888100386,-1.2487540826335417,147.01500824359195,76.57517861626977,73.93322623620136
7.991249900000001,-8.775019267440706,-4.452185607521516,-1.294924576515142,163.03662032223627,73.00630119405497,64.49730198602758
8.0012499,-8.94135335831626,-4.166085762708834,-1.4050621136033428,175.49591562226405,67.86391792407318,53.60559711326395
8.0112499,-9.178652556255358,-3.911200956226524,-1.5259777132905092,184.93540109895193,60.80918345771402,41.25357557171368
8.021249899999999,-9.555515174815914,-3.6045315205668733,-1.6097741060381505,190.60366851294168,52.457030835501364,28.763376640137945
8.031249899999999,-10.02061748542928,-3.235331567371099,-1.813825937515182,191.7245836609086,43.97554805819837,16.795099977819323
8.0412499,-10.499984174904816,-2.8297189167356844,-2.08003693802368,187.66388742298298,35.83140869862361,5.541779522142436
8.0512499,-10.883082801050614,-2.3946726221618895,-2.180615432567021,178.16538540837115,28.309888178774436,-4.622842825485764
8.0612499,-11.138425883086637,-1.94476662400101,-2.1093734128153545,163.46612630309258,21.463164858134434,-13.93942754480308
8.0712499,-11.403158942429513,-1.507275906526469,-2.055587086447918,144.12298100299105,15.477843533775024,-22.57488267546855
8.0812499,-11.678873762384459,-1.0985127608380303,-2.1721698393084865,120.91585635120148,10.527301606235532,-30.91443224655185
8.0912499,-11.953180242652131,-0.7255373421019037,-2.3459918123725334,94.5011987007841,6.1980117536643435,-39.03268086282275
8.1012499,-12.237698668751486,-0.45588945397678393,-2.496672081865154,65.75886564544783,2.969718706194547,-46.61087521733448
8.111249899999999,-12.489844378679843,-0.48309389806607317,-2.6506256462057864,36.86265522715715,0.44727022007091527,-53.41893139707063
8.1212499,-12.746399134533165,-0.6851867907647919,-2.6660406307657167,8.95904618091991,-2.208493848621375,-59.228172763859675
8.1312499,-13.052833213897488,-0.9416989967410975,-2.604435949992791,-16.728980170305544,-4.66833045309785,-63.258965092547996
8.1412499,-13.348579071554747,-1.293329335974607,-2.735922847301134,-40.26659707443719,-7.744501714708467,-65.55832817358929
8.1512499,-13.284540786387367,-1.6200268785357081,-3.2064275116130316,-62.11530740780563,-12.362570408803464,-66.90624461093698
8.1612499,-12.679853932287175,-1.8369296577520111,-3.7938159008865333,-79.6919704698459,-18.086861941501184,-67.52025368403562
8.1712499,-11.783234497735508,-1.987806896919694,-4.194871710546056,-94.45708926146835,-24.458075391685302,-67.6802747672728
8.1812499,-10.82062540931825,-2.117145851235914,-4.397794587681943,-107.932594208292,-31.423402855248362,-67.65655363620459
8.191249899999999,-9.904178070292987,-2.1965843909888583,-4.543637956516864,-120.24844442783788,-38.597065137686926,-67.44114346122004
8.201249899999999,-9.096416261011731,-2.238737411082222,-4.82670960356498,-131.8400301301679,-45.75170042500762,-66.98636464427915
8.2112499,-8.338770548785867,-2.2309792538994735,-5.390952176753893,-143.53809728891687,-52.54434380357891,-66.23966429193015
8.2212499,-7.621718463570595,-2.160782120879757,-6.121396586369122,-155.61121866162674,-58.92351502857671,-65.37780263790984
8.2312499,-7.019734497376227,-2.0702635687759643,-6.720727990797245,-168.33029051583082,-65.17014891570649,-64.50775439018226
8.2412499,-6.554486366124923,-1.9256343156698028,-6.945038877772951,-182.31288478308448,-70.06705033423408,-63.485840234897445
8.2512499,-6.30013998583979,-1.8853202421803874,-6.805554845384127,-196.68401722291958,-72.97860813958582,-62.05404746184411
8.2612499,-6.265369639282457,-2.002403405814241,-6.459904641836932,-209.7269709053583,-74.43561478039736,-60.03090718470622
8.271249899999999,-6.28838663698382,-2.0662864223886213,-6.187982005727086,-221.0022272947968,-74.16881104024678,-58.00858879711275
8.281249899999999,-6.410608458821311,-2.0925290293433227,-6.14048268110945,-230.38247944526952,-72.71102088276109,-57.09646572870919
8.2912499,-6.6417079910742105,-2.0576105598359162,-6.236069443618936,-236.9890461528942,-71.457657594866,-58.048331567312125
8.3012499,-6.773536862910126,-1.939529235584758,-6.366877440297589,-241.2289287811574,-70.32515376092232,-60.98132816879389
8.3112499,-6.7586108660135205,-1.8818942391019928,-6.325852627653814,-243.5375207097986,-68.81530139605178,-65.38343843915075
8.3212499,-6.656651094170529,-1.9356361694870772,-6.049576001781393,-244.0282474337924,-66.5218561670151,-70.25975777707568
8.3312499,-6.525476558355098,-2.084323998603219,-5.611210401983989,-242.68385934471672,-63.208456415128865,-74.69775149944694
8.3412499,-6.438953801685443,-2.256853496563674,-5.242678893566689,-239.92874880175125,-59.235190448400544,-77.92329963838992
8.3512499,-6.457224241128629,-2.455464375565705,-5.14826639292857,-235.0557762127964,-54.95465616443012,-79.54976380843391
8.361249899999999,-6.588744691854057,-2.67351849899098,-5.2057544276893495,-227.93753110475484,-50.81226265562855,-79.54207539727561
8.3712499,-6.732301600759354,-2.814435749433278,-5.223006582302613,-219.2883184526511,-47.67273591686196,-78.18487234102491
8.3812499,-6.747934491474909,-2.9488603782895053,-5.173138746119341,-208.52507169970477,-45.120234318845114,-75.98741788555017
8.3912499,-6.768234933091391,-3.1560379275400976,-5.028085684603475,-194.6733284276028,-42.97752222611531,-72.78560821521025
8.4012499,-6.825549339536772,-3.419588962232351,-4.923289184262515,-177.19958965316766,-41.37420986774038,-68.7328081448305
8.4112499,-6.776792646164926,-3.6933020179273215,-5.003922288596711,-156.320806999608,-39.3127992704833,-63.7792811661423
8.4212499,-6.68878613927524,-3.883373090776965,-5.17391919052844,-131.83831049942773,-35.54453336282358,-57.68415022755482
8.4312499,-6.581816571547631,-3.936726931237283,-5.28778060731572,-105.15276116212068,-29.03433133760286,-49.90710131027473
8.441249899999999,-6.459717648918427,-4.012586040565578,-5.09925061337199,-78.07482385902456,-19.77919981204979,-40.072474725294036
8.451249899999999,-6.508110659647312,-4.184585816018964,-4.543223277023893,-49.52804008230314,-9.248542933398953,-27.614191482064903
8.4612499,-6.682624239752982,-4.470732473806419,-3.8685800546519196,-19.394331770518356,0.5574570561398011,-12.366437889673433
8.4712499,-6.748800037015002,-4.923751776975433,-3.4003344019763038,12.522196530574977,9.676614726257442,4.8663358593548685
8.4812499,-6.84981287672929,-5.240017094101598,-3.4739356833785826,44.46472834174424,17.924050437383755,22.840085406589846
8.4912499,-7.357846200798926,-5.119528921417417,-4.087414366857169,74.46111675790632,22.317608243994325,39.57014747708325
8.5012499,-7.98620099463065,-4.751087665128438,-4.725367630354252,101.11861915090839,22.23131159704583,53.726261494215564
8.5112499,-8.317583652693513,-4.44821231900709,-5.169657183452179,123.93571795220329,19.575546777850054,64.79881672145112
8.521249899999999,-8.416555395987302,-4.11399956798322,-5.464916223676183,141.63837485406816,14.69907380346729,73.23532462925071
8.531249899999999,-8.265680608722299,-3.688266960560845,-5.585808831802143,153.66806057533876,9.30461671027491,79.30326049320938
8.5412499,-7.979562321167533,-3.273209833945316,-5.540821343064299,160.82490890016604,4.445174696733372,83.05109853840675
8.5512499,-7.764620227651064,-2.8036268917923484,-5.234205138452292,162.81996909676658,-0.18307037633207512,84.64699498213349
8.5612499,-7.473550568545022,-2.3782195071922736,-4.844133763310949,160.05119193483497,-3.608032827747493,84.22402762839526
8.5712499,-7.157535679280998,-2.086906458517604,-4.549437760345378,153.68844422963554,-6.248246230420317,81.9605954983388
8.5812499,-6.9313612553551085,-1.8299627754609782,-4.390165131303367,144.49441712960206,-9.255566451364752,78.12280555262178
8.5912499,-6.77224853491105,-1.606699780657262,-4.483720408049946,132.3486796838765,-13.110809779107846,73.19574014324718
8.6012499,-6.741281266966795,-1.4149156112637873,-4.692368773851318,117.28217114462984,-18.032672872212714,67.61362944955208
8.611249899999999,-6.814461416880682,-1.1657880633688542,-4.825648881023611,98.74362107791886,-23.658801048512583,61.45992735073296
8.6212499,-6.916519943245876,-0.8657882038326299,-4.9015681444392145,76.23481387100585,-30.122599968457866,54.74579850430797
8.6312499,-6.979498661833045,-0.5599494954392593,-5.003302500668923,49.71490827261135,-37.04818899129862,47.365343223108965
8.6412499,-7.054641820279339,-0.25745956781109314,-5.113240728524519,19.07130853059051,-43.74071708198647,39.77734102229335
8.6512499,-7.239342643343412,-0.032610986053621095,-5.284237705814744,-15.045586860216527,-49.74895731655012,31.719226062875517
8.6612499,-7.424006264160536,0.08826295625376601,-5.517295865683948,-51.72746773752042,-55.138601276899436,23.01150193001568
8.6712499,-7.525285857726367,0.10424261605250129,-5.646669059775636,-89.57301665973388,-59.603284008176125,13.815767713552976
8.6812499,-7.6960995832565455,0.007161434831832058,-5.7570622641572875,-126.78528907751837,-62.97032787338672,4.1363868534857735
8.691249899999999,-8.022104984666766,-0.2670575347606269,-5.920256600495883,-161.77382243951251,-65.72676205039176,-5.41498506575357
8.7012499,-8.445300347351914,-0.6846066880452434,-6.09913405820672,-193.29345926038482,-68.5041451677067,-14.57395334346367
8.7112499,-9.003652357209873,-1.0725391743960362,-6.452870347427706,-220.47235953995278,-71.97544698844456,-23.530189343521233
8.7212499,-9.597307745790047,-1.4029669583283364,-6.999504086909209,-243.39226559538045,-75.9250390372802,-32.519790720886476
8.7312499,-10.083362163904157,-1.6775562539383213,-7.475292861242596,-262.4144789285781,-79.9982725194765,-41.64760047817863
8.7412499,-10.370349415025323,-1.9291650895040493,-7.695482491332709,-277.05928481797224,-83.9324328309605,-51.22874535678859
8.7512499,-10.371294521714042,-2.10920267428671,-7.732987687165381,-287.3888980754394,-86.5933881793103,-61.242902932912024
8.7612499,-10.243849156179502,-2.2210662187727603,-7.64297894526405,-293.84596489035937,-88.01073175689372,-71.39395462316597
8.771249899999999,-10.112202511042712,-2.392054635364429,-7.4642125964184,-296.29292558641305,-88.08689711802046,-81.03940071424323
8.781249899999999,-10.018238996811972,-2.604170417662468,-7.277861707401378,-294.64467117611747,-86.79940579623202,-89.45428345571648
8.7912499,-10.060445324057994,-2.841163948635029,-7.162765740735147,-289.51268331466014,-84.74223206535761,-95.75134902907871
8.8012499,-10.365511235908587,-3.280857680795808,-7.065684644574507,-279.8568454688083,-82.11184606041488,-98.94007071462464
8.8112499,-10.797255213016049,-3.7948159415099356,-7.015636026297992,-266.20633122404894,-79.30664686436415,-97.89195027201107
8.8212499,-11.083970242018541,-4.171810382301393,-7.015741535320528,-251.22206333890483,-76.88109564980333,-93.18115792449059
8.8312499,-11.106687283560715,-4.457768620362562,-6.966656838196735,-234.81278968290962,-74.93969047327674,-85.76663655516313
8.8412499,-10.7683547509884,-4.563509378045862,-6.779566032379174,-217.99909062682653,-72.90773989548241,-76.97562984166223
8.8512499,-10.09153029878098,-4.3993434253871495,-6.404018464562143,-201.50002241663762,-69.7792293239437,-68.63866341356763
8.861249899999999,-9.298594179484613,-3.99689798631416,-5.899891349998541,-185.62767835254087,-65.65546253959812,-62.30756060132687
8.8712499,-8.572125996386555,-3.4950433110689607,-5.418538833915647,-171.0690979995238,-60.5763325612367,-58.3976811057089
8.8812499,-7.991882104554343,-3.093481413541364,-5.05279129111334,-157.665285087205,-54.62507164280433,-56.66170415366311
8.8912499,-7.619212021772923,-2.867307312242578,-4.732445162662754,-144.986917130055,-48.63722551505608,-56.313732147184346
8.9012499,-7.342827402464038,-2.706098917081109,-4.4924100097817234,-133.44783991858608,-43.291031680749775,-56.38894386469214
8.9112499,-7.121359496561603,-2.5909234151507077,-4.402543742587698,-122.98946842270651,-38.97748269978485,-56.41620798974168
8.9212499,-6.962597357326175,-2.55575213750497,-4.365302526670884,-113.60966461165849,-35.99771511566834,-55.660014185051644
8.9312499,-6.826015669469425,-2.604563091856556,-4.250197800266523,-105.38432601950124,-34.21948811048244,-53.80064630125429
8.941249899999999,-6.656090438423935,-2.654649490326952,-4.046000577168226,-98.17850798724989,-33.08850236430651,-50.919726701003476
8.9512499,-6.440870855631171,-2.6203835492284697,-3.8491753079644244,-92.18025976125016,-32.00403554045665,-47.069161791129694
8.9612499,-6.270970483829759,-2.5666955021607927,-3.700719840625912,-87.33034545274727,-30.955292278205754,-42.83610772432299
8.9712499,-6.175460660187338,-2.5719132841834664,-3.476524515931178,-83.08002621181056,-29.264680506617644,-37.56819133787111
8.9812499,-6.127343416433569,-2.632273279471662,-3.146780736803012,-79.34316577673074,-26.59956668510558,-31.32399144182272
8.9912499,-6.079128490096886,-2.709834930583778,-2.873710799485302,-76.25542370342905,-23.144537517945494,-24.967094728006014
9.0012499,-6.014644203846764,-2.7696219311233445,-2.744156055097085,-73.13012389957947,-19.377474225520977,-18.113943329171654
9.0112499,-5.967385725860991,-2.8421654921962958,-2.727274866610467,-69.8031410148478,-15.471862590536027,-10.678237641279466
9.0212499,-6.021311390066886,-2.9629485659039165,-2.8180362356902817,-66.16351758688127,-10.88817822521931,-2.827047329820747
9.0312499,-6.143239034465017,-3.049482529827321,-2.92556859632578,-62.33754086385656,-5.425985106301047,5.583490962583844
9.0412499,-6.183044322358132,-3.1312380774046713,-2.8927012604748503,-58.70409392778187,2.230968730147004,14.696399638660196
9.0512499,-6.250572092488965,-3.3412851989359442,-2.713319850177296,-54.863861024184885,12.49441603069655,24.98287042494234
9.0612499,-6.466379382466347,-3.7191784692703984,-2.41091043484547,-49.25328401572891,24.401380086426684,36.63906184101011
9.0712499,-6.708098274772894,-4.236038249148324,-2.0459556789235744,-40.80231361097027,37.5297662377245,49.74304845917641
9.0812499,-6.960890922729175,-4.760084270282787,-1.7536246292766597,-29.05260082921734,51.0743096081538,63.85445145980152
9.0912499,-7.313065484231467,-5.266919147915964,-1.5968783025880158,-12.94739908433642,64.00622667849511,78.28042906763243
9.1012499,-7.775514734638837,-5.759454229097085,-1.5330214412545742,7.962921524450596,75.42509169236102,91.8906817066564
9.1112499,-8.291509105697887,-6.0648134493132515,-1.4828633394869237,32.47754822368901,84.85637850908262,103.4136623819237
9.1212499,-8.818926994430207,-6.2357829427319285,-1.4258092471581167,59.686678893731404,92.61316376976052,112.2303949618663
9.1312499,-9.468165265400907,-6.538173934292779,-1.307249867569333,90.3678794516447,98.32508347670603,118.05478031077966
9.1412499,-10.170312472857011,-6.910717558663822,-1.1247385795080755,124.06010202319497,101.8818622263887,121.10209292917416
9.1512499,-10.705107170172477,-7.2402821671228486,-1.0310275969015852,159.74071188665476,103.32897995903548,121.3526629170376
9.1612499,-11.086735551718386,-7.6176419890107505,-1.0640558492846282,197.27098774214653,102.09418068469702,118.3951557863279
9.1712499,-11.313802656693685,-7.872497707054422,-1.2128387486589298,235.92160571214723,97.82458341954299,112.50282896851087
9.1812499,-11.388639882175026,-7.866657321791482,-1.4639725977405145,272.9258062169516,90.70348274260729,103.24029734385275
9.1912499,-11.558457875418002,-7.660349810322076,-1.822183652354705,307.49938528704354,79.95648165595443,90.27785096685498
9.2012499,-11.774094616613212,-7.118534524740929,-2.3932200022234915,336.9997326395283,64.68266740452304,73.7759125540366
9.2112499,-11.783937910390256,-6.289921127317667,-3.255875039709965,358.1013411954111,46.71396455866662,53.74528889030777
9.2212499,-11.781839806997558,-5.108953916751572,-4.40956966237221,371.7939843154145,27.08721153839302,32.04681250029952
9.2312499,-11.58589359013125,-3.7490868872919876,-5.555083814587597,376.4760090226803,8.168744110214377,10.306493820571736
9.2412499,-11.167409182192761,-2.383635435808711,-6.1069142313805775,370.0048520303784,-7.524915463884758,-10.054572429553275
9.2512499,-10.910911835551737,-0.9561254775723178,-5.690228730143281,348.7940471671062,-20.723561364851832,-28.057337551063704
9.2612499,-10.407286296839244,0.07971154175791674,-4.898343309791172,314.6415267678889,-29.072617701512076,-44.140397119280514
9.2712499,-9.703836550529637,0.8989777835845427,-4.193561044793717,270.48949635101917,-30.942165857558656,-59.88262986686521
9.2812499,-9.534826925737674,1.8017046978469191,-3.271172262505308,215.23452049813113,-28.855573197549248,-75.46495002291145
9.2912499,-9.877382573627676,2.1788386505499298,-2.504037468156982,154.00175646485462,-23.250259572383666,-89.99856962187745
9.3012499,-10.385150745309884,1.929006962760115,-2.187834259295789,93.73236373797329,-14.760001411119172,-102.65897086893472
9.3112499,-10.806567627616477,1.4426449455705903,-2.297005160075123,36.804028507306974,-7.3548016924859905,-112.28565210396035
9.3212499,-10.861885803614042,0.7101136042803552,-3.035726002341832,-13.555885944858405,-3.6620349117065176,-118.55244021152792
9.3312499,-10.693705275162708,0.02061075954400822,-3.8413318448736087,-56.97065698270996,-3.6957687264731147,-122.20935194412338
9.3412499,-10.669205073550486,-0.6922929159717798,-3.7703577369156878,-93.80369503108268,-5.586015287961198,-123.34859094762402
9.3512499,-10.698313289933735,-1.801655740291136,-3.1660973259094334,-120.380260950922,-7.78646128081245,-121.81275930518159
9.3612499,-10.496721475546606,-2.880790150306774,-2.8653268019505322,-137.10911314030244,-10.02970123403281,-117.9312528914
9.3712499,-10.213297297992115,-3.6801855834114283,-2.7990494740980147,-146.54840801949854,-12.37839583498054,-112.252708661021
9.3812499,-9.999411747853152,-4.410181378931409,-2.7041325360493778,-148.32557109917843,-14.700696614152088,-105.40641765617697
9.3912499,-9.677949362481062,-5.000586099166184,-2.807702096731495,-142.7054528157919,-16.27319768511221,-99.07990736091827
9.4012499,-9.348908716732062,-5.309052987710084,-2.7609979197308263,-131.73805387208836,-17.474787580431318,-93.66853588234876
9.4112499,-9.177578279665218,-5.580690996516705,-2.3772353393240073,-116.21496734799737,-18.292508361432922,-88.49978901213024
9.4212499,-9.220393749498431,-5.819949175686405,-2.1458872692655526,-96.82638000960033,-18.620442530299812,-83.45553590652413
9.4312499,-9.430137521835611,-5.902720127476553,-2.184429241926913,-75.6117628915807,-18.951878966245403,-78.24578310106364
9.4412499,-9.737765421465463,-5.95830872841976,-2.1355836469537586,-54.062775732664996,-20.644892358163354,-73.04599572760667
9.4512499,-10.02835354339609,-5.72582304387455,-2.1505688480891623,-34.095106824362844,-24.183148294886315,-68.52595388910964
