# Time (seconds),Accel_X,Accel_Y,Accel_Z,Gyro_X,Gyro_Y,Gyro_Z
0.0012499,8.180987358093262,-3.4308910369873047,0.8355764150619507,-10.6048583984375,-7.50732421875,10.8489990234375
0.0037499,8.214506149291992,-3.466804027557373,0.8619126081466675,-9.521484375,-6.9732666015625,11.1846923828125
0.0062499,8.255207061767578,-3.490746021270752,0.871489405632019,-8.4228515625,-6.16455078125,11.749267578125
0.0087499,8.303091049194336,-3.5027170181274414,0.871489405632019,-7.14111328125,-5.4168701171875,12.481689453125
0.0112499,8.35336971282959,-3.5003228187561035,0.8571242094039917,-6.0577392578125,-4.69970703125,13.00048828125
0.0137499,8.403648376464844,-3.4955344200134277,0.828393816947937,-5.096435546875,-3.936767578125,13.641357421875
0.016249899999999998,8.451532363891602,-3.490746021270752,0.8044517636299133,-4.21142578125,-3.2501220703125,14.2974853515625
0.0187499,8.494627952575684,-3.490746021270752,0.7757213711738586,-3.173828125,-2.4871826171875,14.7552490234375
0.021249900000000002,8.53293514251709,-3.49314022064209,0.7541735172271729,-2.349853515625,-1.8310546875,15.44189453125
0.023749899999999997,8.56645393371582,-3.4979286193847656,0.727837324142456,-1.64794921875,-1.1138916015625,15.8538818359375
0.0262499,8.592789649963379,-3.4955344200134277,0.7086837291717529,-0.79345703125,-0.4425048828125,16.41845703125
0.028749900000000002,8.619126319885254,-3.488351821899414,0.689530074596405,0.0762939453125,0.152587890625,16.9830322265625
0.031249899999999997,8.645462036132812,-3.4811692237854004,0.6751648783683777,0.5035400390625,1.03759765625,17.425537109375
0.0337499,8.674192428588867,-3.471592426300049,0.6631938815116882,0.946044921875,1.5869140625,17.822265625
0.0362499,8.707711219787598,-3.464409828186035,0.6584054827690125,1.4801025390625,2.197265625,18.00537109375
0.0387499,8.736441612243652,-3.4620156288146973,0.6536170840263367,1.64794921875,2.838134765625,18.1732177734375
0.0412499,8.762778282165527,-3.4620156288146973,0.6607996821403503,1.89208984375,3.662109375,18.6004638671875
0.0437499,8.779537200927734,-3.464409828186035,0.6607996821403503,2.166748046875,4.21142578125,19.0277099609375
0.0462499,8.793902397155762,-3.469198226928711,0.6655880808830261,2.1209716796875,4.913330078125,19.2108154296875
0.0487499,8.798690795898438,-3.4763808250427246,0.667982280254364,2.44140625,5.5084228515625,19.287109375
0.0512499,8.80587387084961,-3.488351821899414,0.6703764796257019,2.5634765625,6.1492919921875,19.3023681640625
0.053749899999999996,8.80587387084961,-3.5027170181274414,0.6751648783683777,2.685546875,7.0037841796875,19.22607421875
0.0562499,8.808267593383789,-3.5194764137268066,0.6799532771110535,2.8839111328125,7.6141357421875,19.2413330078125
0.0587499,8.810662269592285,-3.536235809326172,0.6919242739677429,3.0364990234375,8.0108642578125,19.1650390625
0.061249899999999996,8.810662269592285,-3.552995204925537,0.7038952708244324,3.204345703125,8.7738037109375,18.7530517578125
0.0637499,8.808267593383789,-3.5745432376861572,0.7206547260284424,3.3416748046875,9.5062255859375,18.37158203125
0.0662499,8.80587387084961,-3.600879430770874,0.7422025203704834,3.5858154296875,10.0250244140625,18.157958984375
0.0687499,8.801085472106934,-3.6391866207122803,0.768538773059845,3.997802734375,10.4827880859375,17.9595947265625
0.0712499,8.791508674621582,-3.6798880100250244,0.7996633648872375,4.5166015625,10.9405517578125,17.3492431640625
0.0737499,8.78193187713623,-3.7277719974517822,0.8307880163192749,4.94384765625,11.7340087890625,17.02880859375
0.0762499,8.772355079650879,-3.7684733867645264,0.8595184087753296,5.462646484375,12.481689453125,16.4642333984375
0.0787499,8.760383605957031,-3.8139634132385254,0.8834604024887085,6.04248046875,12.87841796875,16.265869140625
0.0812499,8.757989883422852,-3.8522706031799316,0.9074024558067322,6.65283203125,13.48876953125,15.7012939453125
0.0837499,8.760383605957031,-3.8977603912353516,0.9409212470054626,7.38525390625,13.9617919921875,15.3656005859375
0.0862499,8.769960403442383,-3.9432501792907715,0.9744400978088379,8.23974609375,14.2669677734375,15.2130126953125
0.0887499,8.777143478393555,-3.993528366088867,1.015141487121582,8.8958740234375,14.7705078125,14.9688720703125
0.0912499,8.78432559967041,-4.048594951629639,1.048660397529602,9.5977783203125,15.228271484375,15.1824951171875
0.0937499,8.786720275878906,-4.098873138427734,1.0821791887283325,10.406494140625,15.777587890625,14.862060546875
0.0962499,8.793902397155762,-4.141968727111816,1.1085153818130493,11.199951171875,16.29638671875,14.6636962890625
0.0987499,8.810662269592285,-4.165910720825195,1.1300631761550903,11.90185546875,16.5252685546875,14.83154296875
0.1012499,8.827422142028809,-4.175487995147705,1.1516109704971313,12.664794921875,16.7388916015625,14.6636962890625
0.1037499,8.844181060791016,-4.165910720825195,1.1635819673538208,13.36669921875,17.0440673828125,14.6331787109375
0.1062499,8.856152534484863,-4.144362926483154,1.1779472827911377,14.129638671875,17.486572265625,14.5416259765625
0.1087499,8.858546257019043,-4.1180267333984375,1.1875240802764893,14.984130859375,17.822265625,14.495849609375
0.1112499,8.856152534484863,-4.089296340942383,1.1971008777618408,15.56396484375,18.1121826171875,14.7247314453125
0.1137499,8.851364135742188,-4.062960147857666,1.2114660739898682,16.1895751953125,18.3258056640625,14.312744140625
0.1162499,8.83939266204834,-4.034229755401611,1.2258312702178955,16.845703125,18.463134765625,14.3280029296875
0.1187499,8.827422142028809,-4.010287761688232,1.2497732639312744,17.4713134765625,18.5089111328125,14.3890380859375
0.1212499,8.803479194641113,-3.9839515686035156,1.2641384601593018,17.791748046875,18.707275390625,14.16015625
0.1237499,8.769960403442383,-3.957615375518799,1.2832920551300049,18.4326171875,18.5699462890625,14.2059326171875
0.1262499,8.7268648147583,-3.936067581176758,1.2880805730819702,18.61572265625,18.585205078125,14.1448974609375
0.1287499,8.681375503540039,-3.9193081855773926,1.2856862545013428,18.9361572265625,18.6004638671875,14.22119140625
0.1312499,8.643068313598633,-3.9049429893493652,1.2737152576446533,19.3023681640625,18.5699462890625,14.3585205078125
0.1337499,8.611943244934082,-3.88818359375,1.2545616626739502,19.439697265625,18.4783935546875,14.4500732421875
0.1362499,8.5903959274292,-3.864241600036621,1.235408067703247,19.6685791015625,18.524169921875,14.495849609375
0.1387499,8.571242332458496,-3.8355112075805664,1.216254472732544,19.4244384765625,18.4478759765625,14.7552490234375
0.1412499,8.559270858764648,-3.801992416381836,1.2042834758758545,19.34814453125,18.096923828125,14.83154296875
0.1437499,8.542511940002441,-3.7684733867645264,1.1899182796478271,19.1192626953125,17.852783203125,14.83154296875
0.1462499,8.518569946289062,-3.737348794937134,1.1875240802764893,18.8446044921875,17.5628662109375,15.1824951171875
0.1487499,8.494627952575684,-3.708618402481079,1.192312479019165,18.73779296875,17.333984375,15.5029296875
0.1512499,8.470685958862305,-3.6846764087677,1.2114660739898682,18.6004638671875,17.1356201171875,15.411376953125
0.1537499,8.432378768920898,-3.6607344150543213,1.2545616626739502,17.7764892578125,16.66259765625,15.93017578125
0.1562499,8.4108304977417,-3.6583402156829834,1.278503656387329,17.608642578125,16.2200927734375,16.326904296875
0.1587499,8.391676902770996,-3.6511576175689697,1.3024457693099976,17.2576904296875,15.8843994140625,16.5252685546875
0.1612499,8.362946510314941,-3.643975019454956,1.3263877630233765,16.937255859375,15.5487060546875,16.90673828125
0.1637499,8.33182144165039,-3.627215623855591,1.3503297567367554,16.66259765625,14.9383544921875,17.486572265625
0.1662499,8.293514251708984,-3.6104562282562256,1.3694833517074585,16.143798828125,14.4805908203125,18.0511474609375
0.1687499,8.26478385925293,-3.598485231399536,1.3766659498214722,15.7928466796875,13.7939453125,18.4478759765625
0.1712499,8.245630264282227,-3.5936968326568604,1.3766659498214722,15.13671875,13.5040283203125,18.829345703125
0.1737499,8.243236541748047,-3.598485231399536,1.3694833517074585,14.923095703125,13.275146484375,19.59228515625
0.17624990000000001,8.255207061767578,-3.600879430770874,1.357512354850769,14.556884765625,12.9241943359375,20.0347900390625
0.1787499,8.271966934204102,-3.598485231399536,1.3455413579940796,14.22119140625,12.5274658203125,20.5841064453125
0.1812499,8.29590892791748,-3.5913026332855225,1.3407529592514038,13.9312744140625,12.1307373046875,21.392822265625
0.1837499,8.312667846679688,-3.576937437057495,1.3407529592514038,13.275146484375,11.505126953125,22.003173828125
0.1862499,8.329427719116211,-3.555389642715454,1.3407529592514038,13.18359375,10.7574462890625,22.8729248046875
0.1887499,8.343792915344238,-3.533841609954834,1.3455413579940796,12.8936767578125,10.1470947265625,23.62060546875
0.1912499,8.35097599029541,-3.514688014984131,1.338358759880066,12.3443603515625,9.7198486328125,24.2156982421875
0.1937499,8.360552787780762,-3.4979286193847656,1.3263877630233765,11.71875,9.5672607421875,25.0091552734375
0.1962499,8.374917984008789,-3.4835634231567383,1.3024457693099976,10.9405517578125,9.09423828125,25.6195068359375
0.1987499,8.389283180236816,-3.4739866256713867,1.2737152576446533,10.498046875,8.5296630859375,26.397705078125
0.2012499,8.42040729522705,-3.4572272300720215,1.2521674633026123,9.58251953125,8.0718994140625,27.099609375
0.2037499,8.461109161376953,-3.4404678344726562,1.235408067703247,8.8043212890625,7.843017578125,27.496337890625
0.2062499,8.516175270080566,-3.4141316413879395,1.2330138683319092,8.0108642578125,7.568359375,27.984619140625
0.20874990000000002,8.580819129943848,-3.3877954483032227,1.2401964664459229,7.2021484375,7.0648193359375,28.6102294921875
0.2112499,8.652645111083984,-3.3518824577331543,1.2521674633026123,6.072998046875,6.9427490234375,29.144287109375
0.2137499,8.719682693481445,-3.3207578659057617,1.2737152576446533,5.126953125,6.7901611328125,29.4036865234375
0.2162499,8.789113998413086,-3.2968156337738037,1.3048399686813354,4.1046142578125,6.591796875,29.84619140625
0.2187499,8.856152534484863,-3.2824504375457764,1.3431471586227417,3.1890869140625,6.561279296875,30.1513671875
0.2212499,8.913613319396973,-3.2848446369171143,1.3910311460494995,2.227783203125,6.5460205078125,30.1361083984375
0.2237499,8.966285705566406,-3.2968156337738037,1.4413094520568848,1.4190673828125,6.28662109375,30.364990234375
0.2262499,9.006986618041992,-3.3207578659057617,1.4939818382263184,0.7781982421875,6.1492919921875,30.853271484375
0.2287499,9.030928611755371,-3.35667085647583,1.5442601442337036,-0.1373291015625,6.28662109375,30.8074951171875
0.2312499,9.047688484191895,-3.406949043273926,1.5873557329177856,-0.9765625,6.0882568359375,30.9600830078125
0.2337499,9.050082206726074,-3.464409828186035,1.6136919260025024,-1.495361328125,6.0882568359375,31.0821533203125
0.2362499,9.05487060546875,-3.5242648124694824,1.6280571222305298,-2.166748046875,6.1798095703125,31.2957763671875
0.23874990000000001,9.05487060546875,-3.581725835800171,1.6304513216018677,-2.960205078125,6.3018798828125,31.43310546875
0.2412499,9.062053680419922,-3.641580820083618,1.625662922859192,-3.3416748046875,6.317138671875,31.280517578125
0.2437499,9.066842079162598,-3.6966474056243896,1.6184803247451782,-3.5247802734375,6.500244140625,31.67724609375
0.2462499,9.07641887664795,-3.756502389907837,1.6160861253738403,-3.72314453125,6.317138671875,31.707763671875
0.2487499,9.0859956741333,-3.8067808151245117,1.6160861253738403,-3.6773681640625,6.2408447265625,31.5093994140625
0.2512499,9.100360870361328,-3.861847400665283,1.623268723487854,-3.753662109375,6.4544677734375,31.43310546875
0.25374990000000003,9.117119789123535,-3.909731388092041,1.6352397203445435,-3.8299560546875,6.683349609375,31.768798828125
0.25624990000000003,9.136273384094238,-3.957615375518799,1.6543933153152466,-3.7994384765625,6.622314453125,31.7535400390625
0.25874990000000003,9.160215377807617,-4.01268196105957,1.6759412288665771,-3.41796875,6.4849853515625,31.8145751953125
0.26124990000000003,9.184157371520996,-4.07014274597168,1.7070658206939697,-3.143310546875,6.6070556640625,31.7230224609375
0.26374990000000004,9.205705642700195,-4.129997730255127,1.7357962131500244,-2.899169921875,6.53076171875,31.8145751953125
0.26624990000000004,9.227252960205078,-4.1874589920043945,1.7741034030914307,-2.50244140625,6.5460205078125,31.768798828125
0.26874990000000004,9.244012832641602,-4.235342979431152,1.8100165128707886,-1.7852783203125,6.4849853515625,31.79931640625
0.27124990000000004,9.260771751403809,-4.268861770629883,1.845929503440857,-1.1749267578125,6.500244140625,31.829833984375
0.27374990000000005,9.279925346374512,-4.290409564971924,1.8770540952682495,-0.5950927734375,6.4239501953125,31.646728515625
0.27624990000000005,9.296685218811035,-4.290409564971924,1.900996208190918,-0.0457763671875,6.4544677734375,31.494140625
0.27874990000000005,9.311050415039062,-4.280832767486572,1.922544002532959,0.4119873046875,6.65283203125,31.18896484375
0.28124990000000005,9.32541561126709,-4.264073371887207,1.9393033981323242,0.518798828125,6.5765380859375,31.0211181640625
0.28374990000000005,9.337387084960938,-4.24970817565918,1.9560627937316895,0.823974609375,6.591796875,30.57861328125
0.28624990000000006,9.349357604980469,-4.242525577545166,1.9704279899597168,1.4801025390625,6.4239501953125,30.57861328125
0.28874990000000006,9.35654067993164,-4.244919776916504,1.9823989868164062,1.9378662109375,6.2713623046875,30.3802490234375
0.2912499,9.363722801208496,-4.24970817565918,1.98958158493042,2.349853515625,6.2408447265625,30.0750732421875
0.2937499,9.366117477416992,-4.259284973144531,1.987187385559082,2.50244140625,6.3018798828125,29.815673828125
0.2962499,9.368511199951172,-4.266467571258545,1.9847931861877441,2.685546875,6.1798095703125,29.266357421875
0.2987499,9.373299598693848,-4.264073371887207,1.9776105880737305,2.899169921875,6.1798095703125,28.839111328125
0.3012499,9.370905876159668,-4.259284973144531,1.9823989868164062,3.1585693359375,6.256103515625,28.4423828125
0.3037499,9.368511199951172,-4.244919776916504,1.9991583824157715,3.3721923828125,6.04248046875,27.9083251953125
0.3062499,9.363722801208496,-4.235342979431152,2.0231003761291504,2.960205078125,5.9814453125,27.34375
0.3087499,9.35654067993164,-4.225766181945801,2.0614075660705566,2.74658203125,5.9661865234375,26.7486572265625
0.3112499,9.351752281188965,-4.2329487800598145,2.1116859912872314,2.6397705078125,5.8746337890625,26.0772705078125
0.3137499,9.349357604980469,-4.23773717880249,2.164358377456665,2.5482177734375,5.7525634765625,25.32958984375
0.31624990000000003,9.351752281188965,-4.259284973144531,2.2146365642547607,2.3040771484375,6.0577392578125,24.8260498046875
0.31874990000000003,9.35654067993164,-4.278438568115234,2.2649147510528564,2.50244140625,6.134033203125,24.0631103515625
0.32124990000000003,9.366117477416992,-4.290409564971924,2.3032219409942627,2.2735595703125,6.0577392578125,23.25439453125
0.32374990000000003,9.370905876159668,-4.292803764343262,2.3367409706115723,2.044677734375,5.9967041015625,22.674560546875
0.32624990000000004,9.370905876159668,-4.28322696685791,2.365471363067627,2.0904541015625,6.256103515625,21.7437744140625
0.32874990000000004,9.35654067993164,-4.268861770629883,2.38462495803833,1.9989013671875,6.317138671875,21.2554931640625
0.33124990000000004,9.337387084960938,-4.261679172515869,2.4013843536376953,1.6632080078125,6.3323974609375,20.5535888671875
0.33374990000000004,9.315838813781738,-4.264073371887207,2.4133553504943848,1.3275146484375,6.4697265625,19.622802734375
0.33624990000000005,9.29189682006836,-4.288015365600586,2.434903144836426,1.312255859375,6.3018798828125,18.890380859375
0.33874990000000005,9.27034854888916,-4.314351558685303,2.4612393379211426,1.373291015625,6.3018798828125,18.24951171875
0.34124990000000005,9.241618156433105,-4.350264549255371,2.494758129119873,1.373291015625,6.3629150390625,17.88330078125
0.34374990000000005,9.208099365234375,-4.388571739196777,2.535459518432617,1.129150390625,6.3934326171875,17.425537109375
0.34624990000000005,9.169792175292969,-4.426878929138184,2.5737667083740234,0.946044921875,6.3629150390625,16.876220703125
0.34874990000000006,9.119514465332031,-4.474762916564941,2.612074136734009,0.9613037109375,6.28662109375,16.6168212890625
0.35124990000000006,9.062053680419922,-4.520252704620361,2.6431987285614014,1.0528564453125,6.3323974609375,16.3116455078125
0.3537499,9.002198219299316,-4.558559894561768,2.676717519760132,1.2054443359375,6.34765625,16.1895751953125
0.3562499,8.939949035644531,-4.584896087646484,2.7078421115875244,1.3580322265625,6.561279296875,15.625
0.3587499,8.87291145324707,-4.599261283874512,2.7437551021575928,1.1138916015625,6.378173828125,15.3656005859375
0.3612499,8.767566680908203,-4.611232280731201,2.8179752826690674,1.3275146484375,6.4239501953125,15.1214599609375
0.3637499,8.731653213500977,-4.618414878845215,2.851494312286377,1.739501953125,6.28662109375,14.95361328125
0.3662499,8.707711219787598,-4.63517427444458,2.8826189041137695,1.8463134765625,6.16455078125,14.739990234375
0.3687499,8.69334602355957,-4.651933670043945,2.911349296569824,2.1820068359375,6.16455078125,14.5263671875
0.3712499,8.678980827331543,-4.675876140594482,2.9305028915405273,2.5482177734375,5.9051513671875,14.4500732421875
0.3737499,8.664615631103516,-4.692635536193848,2.940079689025879,2.7923583984375,5.706787109375,14.2059326171875
0.3762499,8.643068313598633,-4.709394931793213,2.942473888397217,3.47900390625,5.4473876953125,14.1143798828125
0.37874990000000003,8.614337921142578,-4.714183330535889,2.935291290283203,3.936767578125,5.2642822265625,13.9923095703125
0.38124990000000003,8.576030731201172,-4.714183330535889,2.918531894683838,4.1961669921875,5.1422119140625,13.9617919921875
0.38374990000000003,8.53293514251709,-4.699818134307861,2.9065608978271484,4.669189453125,4.8980712890625,13.7786865234375
0.38624990000000003,8.482656478881836,-4.6734819412231445,2.8874073028564453,5.06591796875,4.5318603515625,13.671875
0.38874990000000004,8.432378768920898,-4.637568473815918,2.873042106628418,5.55419921875,4.0435791015625,13.4429931640625
0.39124990000000004,8.38688850402832,-4.594472885131836,2.851494312286377,5.92041015625,3.7841796875,13.3819580078125
0.39374990000000004,8.348581314086914,-4.54419469833374,2.832340717315674,6.103515625,3.4637451171875,13.0767822265625
0.39624990000000004,8.324639320373535,-4.496310710906982,2.808398485183716,6.1187744140625,3.0059814453125,12.786865234375
0.39874990000000005,8.312667846679688,-4.446032524108887,2.7940332889556885,6.5155029296875,2.593994140625,12.75634765625
0.40124990000000005,8.317456245422363,-4.402936935424805,2.7748796939849854,6.65283203125,2.25830078125,12.4969482421875
0.40374990000000005,8.324639320373535,-4.364629745483398,2.765302896499634,6.4849853515625,1.8768310546875,11.9476318359375
0.40624990000000005,8.334216117858887,-4.338293552398682,2.7533318996429443,6.40869140625,1.495361328125,12.0391845703125
0.40874990000000005,8.348581314086914,-4.316745758056641,2.7485435009002686,6.5460205078125,1.0986328125,11.871337890625
0.41124990000000006,8.358158111572266,-4.2975921630859375,2.741360902786255,6.5765380859375,0.9613037109375,11.6729736328125
0.41374990000000006,8.377311706542969,-4.2760443687438965,2.7317841053009033,6.2103271484375,0.6866455078125,11.566162109375
0.41624990000000006,8.396465301513672,-4.2544965744018555,2.7222073078155518,5.828857421875,0.4119873046875,11.23046875
0.4187499,8.415618896484375,-4.235342979431152,2.7102363109588623,5.645751953125,0.030517578125,11.0015869140625
0.4212499,8.437167167663574,-4.218583583831787,2.695871114730835,5.2642822265625,0.030517578125,10.8795166015625
0.4237499,8.458714485168457,-4.213795185089111,2.6815059185028076,5.126953125,-0.0457763671875,10.6964111328125
0.4262499,8.487444877624512,-4.213795185089111,2.671929121017456,4.39453125,-0.54931640625,10.80322265625
0.4287499,8.518569946289062,-4.223371982574463,2.6599581241607666,3.90625,-0.6866455078125,10.4522705078125
0.4312499,8.554482460021973,-4.240131378173828,2.655169725418091,3.2501220703125,-0.5645751953125,10.467529296875
0.4337499,8.592789649963379,-4.259284973144531,2.6455929279327393,2.62451171875,-0.640869140625,10.467529296875
0.4362499,8.628703117370605,-4.28322696685791,2.6360161304473877,2.105712890625,-1.0528564453125,10.2691650390625
0.4387499,8.664615631103516,-4.311957359313965,2.6216509342193604,1.617431640625,-0.885009765625,10.19287109375
0.44124990000000003,8.688557624816895,-4.345476150512695,2.612074136734009,0.9765625,-0.9307861328125,10.2386474609375
0.44374990000000003,8.707711219787598,-4.376600742340088,2.6001031398773193,0.2899169921875,-0.946044921875,10.2691650390625
0.44624990000000003,8.71728801727295,-4.414907932281494,2.58813214302063,-0.18310546875,-0.8697509765625,10.1165771484375
0.44874990000000003,8.719682693481445,-4.448426723480225,2.580949544906616,-0.6866455078125,-0.91552734375,10.19287109375
0.45124990000000004,8.719682693481445,-4.491522312164307,2.5665841102600098,-1.0528564453125,-0.8392333984375,10.223388671875
0.45374990000000004,8.71489429473877,-4.534617900848389,2.557007312774658,-1.8310546875,-1.007080078125,10.009765625
0.45624990000000004,8.710105895996094,-4.575319290161133,2.535459518432617,-2.2430419921875,-0.9613037109375,9.918212890625
0.45874990000000004,8.698134422302246,-4.611232280731201,2.5091233253479004,-2.5177001953125,-0.8697509765625,9.8419189453125
0.46124990000000005,8.686163902282715,-4.639962673187256,2.4684219360351562,-2.8839111328125,-1.190185546875,9.796142578125
0.46374990000000005,8.674192428588867,-4.668693542480469,2.43011474609375,-3.173828125,-1.28173828125,9.6435546875
0.46624990000000005,8.65982723236084,-4.6950297355651855,2.3942017555236816,-3.448486328125,-1.40380859375,9.368896484375
0.46874990000000005,8.647856712341309,-4.730942726135254,2.360682964324951,-3.875732421875,-1.46484375,9.21630859375
0.47124990000000005,8.635885238647461,-4.766855716705322,2.33913516998291,-4.180908203125,-1.6937255859375,9.1094970703125
0.47374990000000006,8.621520042419434,-4.8051629066467285,2.31758713722229,-4.0740966796875,-2.01416015625,8.758544921875
0.47624990000000006,8.604761123657227,-4.855441093444824,2.3080103397369385,-4.39453125,-2.3040771484375,8.3160400390625
0.47874990000000006,8.583212852478027,-4.90571928024292,2.3032219409942627,-4.7149658203125,-2.50244140625,8.026123046875
0.4812499,8.564059257507324,-4.9583916664123535,2.3032219409942627,-4.8675537109375,-2.4871826171875,7.9193115234375
0.4837499,8.544905662536621,-5.011064052581787,2.298433542251587,-4.8980712890625,-2.716064453125,7.720947265625
0.4862499,8.537723541259766,-5.056553840637207,2.2888567447662354,-4.913330078125,-2.8076171875,7.537841796875
0.4887499,8.53293514251709,-5.094861030578613,2.2673089504241943,-5.0506591796875,-3.0364990234375,7.1868896484375
0.4912499,8.540117263793945,-5.128379821777344,2.2409727573394775,-5.4931640625,-3.0670166015625,6.9427490234375
0.4937499,8.540117263793945,-5.152322292327881,2.207453966140747,-5.6610107421875,-3.082275390625,6.7291259765625
0.4962499,8.549694061279297,-5.171475887298584,2.1787235736846924,-5.79833984375,-2.9449462890625,6.4239501953125
0.4987499,8.552088737487793,-5.183446884155273,2.1523873805999756,-6.072998046875,-2.899169921875,6.0272216796875
0.5012499,8.559270858764648,-5.195417881011963,2.123656988143921,-6.195068359375,-2.899169921875,5.8135986328125
0.5037499000000001,8.571242332458496,-5.200206279754639,2.10210919380188,-6.5460205078125,-2.8076171875,5.37109375
0.5062499,8.592789649963379,-5.207388877868652,2.0853497982025146,-6.9732666015625,-2.532958984375,4.9285888671875
0.5087499000000001,8.621520042419434,-5.207388877868652,2.078166961669922,-7.2174072265625,-2.6397705078125,4.7149658203125
0.5112499,8.65982723236084,-5.20978307723999,2.0829553604125977,-7.6751708984375,-2.6397705078125,4.2266845703125
0.5137499,8.69095230102539,-5.212177276611328,2.0901381969451904,-8.209228515625,-2.2735595703125,3.7994384765625
0.5162499,8.724471092224121,-5.212177276611328,2.10210919380188,-8.819580078125,-1.9073486328125,3.692626953125
0.5187499,8.746018409729004,-5.224148273468018,2.1092917919158936,-9.09423828125,-1.77001953125,3.753662109375
0.5212499,8.762778282165527,-5.236119270324707,2.118868589401245,-9.33837890625,-1.40380859375,3.4637451171875
0.5237499,8.774748802185059,-5.257667064666748,2.121262788772583,-10.1165771484375,-0.6866455078125,3.2958984375
0.5262499,8.774748802185059,-5.276820659637451,2.126051187515259,-10.8184814453125,-0.1678466796875,3.1280517578125
0.5287499,8.769960403442383,-5.30076265335083,2.126051187515259,-11.444091796875,0.1983642578125,3.0517578125
0.5312499,8.760383605957031,-5.315127849578857,2.126051187515259,-11.993408203125,0.5645751953125,3.082275390625
0.5337499,8.75080680847168,-5.339069843292236,2.121262788772583,-12.3748779296875,1.2359619140625,3.1280517578125
0.5362499000000001,8.741230010986328,-5.360617637634277,2.118868589401245,-13.00048828125,1.8768310546875,3.2806396484375
0.5387499,8.741230010986328,-5.3797712326049805,2.1092917919158936,-13.4735107421875,2.44140625,3.4027099609375
0.5412499000000001,8.736441612243652,-5.396530628204346,2.10210919380188,-13.8092041015625,2.7008056640625,3.7384033203125
0.5437499,8.741230010986328,-5.415684223175049,2.0877439975738525,-14.2974853515625,3.41796875,3.7078857421875
0.5462499000000001,8.7484130859375,-5.432443618774414,2.073378562927246,-14.6942138671875,3.7994384765625,4.150390625
0.5487499,8.755595207214355,-5.458779811859131,2.0470423698425293,-14.9688720703125,4.1046142578125,4.4708251953125
0.5512499000000001,8.767566680908203,-5.48272180557251,2.013523578643799,-15.167236328125,4.82177734375,4.82177734375
0.5537499,8.767566680908203,-5.504269599914551,1.9728221893310547,-15.2587890625,5.096435546875,5.1727294921875
0.5562499000000001,8.772355079650879,-5.521028995513916,1.9273324012756348,-15.167236328125,5.462646484375,5.4473876953125
0.5587499,8.765172004699707,-5.52821159362793,1.886630892753601,-14.95361328125,6.0577392578125,5.9661865234375
0.5612499000000001,8.757989883422852,-5.52821159362793,1.845929503440857,-14.862060546875,6.2255859375,6.072998046875
0.5637499,8.746018409729004,-5.523423194885254,1.8076223134994507,-14.7705078125,6.3934326171875,6.5460205078125
0.5662499000000001,8.724471092224121,-5.5114521980285645,1.7717092037200928,-14.6331787109375,6.6680908203125,6.561279296875
0.5687499,8.681375503540039,-5.475539207458496,1.699883222579956,-14.09912109375,6.8206787109375,6.8206787109375
0.5712499000000001,8.65982723236084,-5.456385612487793,1.6639702320098877,-13.8702392578125,7.01904296875,6.9580078125
0.5737499,8.635885238647461,-5.434837818145752,1.623268723487854,-13.6260986328125,6.805419921875,6.988525390625
0.5762499000000001,8.614337921142578,-5.415684223175049,1.5825673341751099,-13.2293701171875,6.7138671875,6.8359375
0.5787499,8.5903959274292,-5.39174222946167,1.5275006294250488,-12.786865234375,6.7291259765625,6.7291259765625
0.5812499,8.56884765625,-5.365406036376953,1.4772224426269531,-12.5732421875,6.4239501953125,6.65283203125
0.5837499,8.552088737487793,-5.336675643920898,1.4197616577148438,-11.9781494140625,6.16455078125,6.591796875
0.5862499,8.53293514251709,-5.30076265335083,1.3623007535934448,-11.3677978515625,6.0272216796875,6.1798095703125
0.5887499,8.513781547546387,-5.264849662780762,1.3048399686813354,-10.894775390625,5.584716796875,6.011962890625
0.5912499,8.489839553833008,-5.2265424728393555,1.2497732639312744,-10.4217529296875,5.2490234375,5.7220458984375
0.5937499,8.468291282653809,-5.200206279754639,1.2042834758758545,-10.040283203125,4.8980712890625,5.4779052734375
0.5962499,8.453926086425781,-5.178658485412598,1.1635819673538208,-9.70458984375,4.5623779296875,5.0048828125
0.5987499000000001,8.44434928894043,-5.166687488555908,1.1300631761550903,-9.3231201171875,4.1046142578125,4.8675537109375
0.6012499,8.44434928894043,-5.157110691070557,1.094150185585022,-8.7432861328125,3.4027099609375,4.730224609375
0.6037499000000001,8.44434928894043,-5.142745018005371,1.0606313943862915,-8.4381103515625,2.9754638671875,4.364013671875
0.6062499,8.446743965148926,-5.125985622406006,1.0199298858642578,-8.11767578125,2.6702880859375,4.2877197265625
0.6087499000000001,8.449137687683105,-5.104437828063965,0.9959878921508789,-7.6904296875,2.0294189453125,4.1656494140625
0.6112499,8.456320762634277,-5.080495834350586,0.9744400978088379,-7.476806640625,1.617431640625,3.814697265625
0.6137499000000001,8.470685958862305,-5.058948040008545,0.9720458984375,-6.9732666015625,0.8697509765625,3.5552978515625
0.6162499,8.494627952575684,-5.035006046295166,0.9768342971801758,-6.683349609375,0.48828125,3.6163330078125
0.6187499000000001,8.523358345031738,-5.006275653839111,0.9888052940368652,-6.65283203125,0.0457763671875,3.4637451171875
0.6212499,8.554482460021973,-4.972756862640381,0.9983820915222168,-6.65283203125,-0.2593994140625,3.4637451171875
0.6237499000000001,8.588001251220703,-4.93923807144165,1.0103530883789062,-6.7291259765625,-0.4730224609375,3.387451171875
0.6262499,8.62630844116211,-4.90571928024292,1.015141487121582,-6.9732666015625,-0.8544921875,3.448486328125
0.6287499000000001,8.662221908569336,-4.879383087158203,1.01753568649292,-7.2479248046875,-1.373291015625,3.4942626953125
0.6312499,8.695740699768066,-4.865017890930176,1.01753568649292,-7.5531005859375,-1.6021728515625,3.5858154296875
0.6337499000000001,8.719682693481445,-4.857835292816162,1.0127472877502441,-7.720947265625,-1.7852783203125,3.7689208984375
0.6362499,8.736441612243652,-4.850652694702148,1.0127472877502441,-8.026123046875,-1.8768310546875,3.9520263671875
0.6387499000000001,8.746018409729004,-4.845864295959473,1.01753568649292,-8.575439453125,-2.166748046875,4.21142578125
0.6412499,8.755595207214355,-4.838681697845459,1.0271124839782715,-9.2926025390625,-2.166748046875,4.39453125
0.6437499,8.762778282165527,-4.831499099731445,1.0438719987869263,-9.8876953125,-2.44140625,4.5623779296875
0.6462499,8.767566680908203,-4.824316501617432,1.0630255937576294,-10.43701171875,-2.655029296875,4.8828125
0.6487499,8.769960403442383,-4.81473970413208,1.0797849893569946,-11.3983154296875,-2.4871826171875,5.126953125
0.6512499,8.767566680908203,-4.802768707275391,1.0845733880996704,-12.1917724609375,-2.38037109375,4.9285888671875
0.6537499,8.765172004699707,-4.7836151123046875,1.0821791887283325,-12.9547119140625,-2.5787353515625,5.3863525390625
0.6562499,8.757989883422852,-4.766855716705322,1.0606313943862915,-13.7176513671875,-2.593994140625,5.67626953125
0.6587499,8.7484130859375,-4.747702121734619,1.0342950820922852,-14.404296875,-2.838134765625,5.7830810546875
0.6612499000000001,8.736441612243652,-4.738125324249268,1.0055646896362305,-15.3350830078125,-3.082275390625,5.767822265625
0.6637499,8.719682693481445,-4.726154327392578,0.9864110946655273,-15.9759521484375,-3.0517578125,5.67626953125
0.6662499000000001,8.69334602355957,-4.721365928649902,0.9864110946655273,-16.9830322265625,-3.0364990234375,5.7373046875
0.6687499,8.667010307312012,-4.7189717292785645,0.9983820915222168,-17.791748046875,-3.173828125,5.523681640625
0.6712499000000001,8.638279914855957,-4.726154327392578,1.0342950820922852,-18.585205078125,-3.2958984375,5.279541015625
0.6737499,8.614337921142578,-4.738125324249268,1.0654197931289673,-19.6685791015625,-3.35693359375,5.2032470703125
0.6762499000000001,8.5903959274292,-4.7620673179626465,1.0989385843276978,-20.416259765625,-3.5247802734375,5.0201416015625
0.6787499,8.56645393371582,-4.788403511047363,1.1204863786697388,-21.331787109375,-3.5400390625,5.0048828125
0.6812499000000001,8.537723541259766,-4.817133903503418,1.139639973640442,-22.003173828125,-3.41796875,4.974365234375
0.6837499,8.51138687133789,-4.853046894073486,1.158793568611145,-22.8424072265625,-3.204345703125,4.7607421875
0.6862499000000001,8.485051155090332,-4.879383087158203,1.1755530834197998,-23.3612060546875,-3.2501220703125,4.7607421875
0.6887499,8.453926086425781,-4.917690277099609,1.2042834758758545,-24.1241455078125,-3.0670166015625,4.2266845703125
0.6912499000000001,8.437167167663574,-4.965574264526367,1.2330138683319092,-24.871826171875,-3.2196044921875,3.96728515625
0.6937499,8.415618896484375,-5.023035049438477,1.256955862045288,-24.6734619140625,-3.204345703125,3.7078857421875
0.6962499000000001,8.40843677520752,-5.094861030578613,1.2832920551300049,-24.5361328125,-3.082275390625,3.5552978515625
0.6987499,8.413225173950195,-5.161899089813232,1.3024457693099976,-24.3072509765625,-2.8076171875,3.47900390625
0.7012499000000001,8.415618896484375,-5.200206279754639,1.3215993642807007,-24.0631103515625,-2.50244140625,2.9754638671875
0.7037499,8.40843677520752,-5.219359874725342,1.3431471586227417,-24.1546630859375,-2.1514892578125,3.11279296875
0.7062499,8.382100105285645,-5.207388877868652,1.3646949529647827,-24.5361328125,-2.0751953125,2.5177001953125
0.7087499,8.334216117858887,-5.183446884155273,1.3862427473068237,-24.5513916015625,-2.2430419921875,2.105712890625
0.7112499,8.283937454223633,-5.16429328918457,1.41257905960083,-24.4903564453125,-2.50244140625,2.227783203125
0.7137499,8.245630264282227,-5.16429328918457,1.4317326545715332,-24.0936279296875,-2.2735595703125,1.9683837890625
0.7162499,8.226476669311523,-5.1810526847839355,1.455674648284912,-23.7579345703125,-2.0751953125,1.6632080078125
0.7187499,8.22887134552002,-5.2265424728393555,1.4748282432556152,-22.9339599609375,-1.64794921875,1.4190673828125
0.7212499,8.238448143005371,-5.260061264038086,1.4963760375976562,-22.15576171875,-1.129150390625,1.5106201171875
0.7237499000000001,8.238448143005371,-5.288791656494141,1.5203180313110352,-21.7132568359375,-0.8087158203125,1.3885498046875
0.7262499,8.233659744262695,-5.298368453979492,1.53707754611969,-21.331787109375,-0.4425048828125,1.1138916015625
0.7287499000000001,8.20732307434082,-5.281609058380127,1.5514427423477173,-20.6451416015625,-0.244140625,1.2664794921875
0.7312499,8.17141056060791,-5.262455463409424,1.5610195398330688,-20.1263427734375,0.1983642578125,1.0833740234375
0.7337499000000001,8.123526573181152,-5.238513469696045,1.5634137392044067,-19.6380615234375,0.3204345703125,0.91552734375
0.7362499,8.073247909545898,-5.214571475982666,1.5658079385757446,-18.85986328125,0.1373291015625,1.03759765625
0.7387499000000001,8.027758598327637,-5.202600479125977,1.5753847360610962,-18.1732177734375,0.640869140625,0.732421875
0.7412499,7.99184513092041,-5.193023681640625,1.5825673341751099,-17.2271728515625,0.8697509765625,0.640869140625
0.7437499000000001,7.975085735321045,-5.1810526847839355,1.5945383310317993,-16.265869140625,1.3580322265625,0.8544921875
0.7462499,7.967903137207031,-5.161899089813232,1.599326729774475,-15.472412109375,1.7547607421875,0.762939453125
0.7487499000000001,7.965508937835693,-5.1331682205200195,1.5969325304031372,-14.6636962890625,1.861572265625,0.6561279296875
0.7512499,7.9631147384643555,-5.092466831207275,1.5849615335464478,-14.09912109375,2.2125244140625,0.9918212890625
0.7537499000000001,7.953537940979004,-5.054159641265869,1.5658079385757446,-13.3819580078125,2.44140625,1.0986328125
0.7562499,7.9415669441223145,-5.018246650695801,1.5418659448623657,-12.6495361328125,2.7008056640625,1.1138916015625
0.7587499000000001,7.936778545379639,-4.994304656982422,1.5203180313110352,-12.26806640625,3.021240234375,1.312255859375
0.7612499,7.94635534286499,-4.977545261383057,1.5107412338256836,-11.4898681640625,3.0364990234375,1.6021728515625
0.7637499000000001,7.970297336578369,-4.965574264526367,1.5107412338256836,-10.711669921875,3.448486328125,1.953125
0.7662499,8.003816604614258,-4.953603267669678,1.5275006294250488,-9.9945068359375,3.7994384765625,1.922607421875
0.7687499000000001,8.032546997070312,-4.9368438720703125,1.5394717454910278,-9.33837890625,4.150390625,2.105712890625
0.7712499,8.042123794555664,-4.910507678985596,1.5514427423477173,-8.8043212890625,4.5166015625,2.4261474609375
0.7737499,8.037335395812988,-4.876988887786865,1.556231141090393,-8.2855224609375,4.6844482421875,2.716064453125
0.7762499,8.018181800842285,-4.841075897216797,1.5514427423477173,-7.904052734375,4.9285888671875,3.0670166015625
0.7787499,7.95832633972168,-4.795586109161377,1.5155296325683594,-7.476806640625,5.2337646484375,3.570556640625
0.7812499,7.924807548522949,-4.7836151123046875,1.4844050407409668,-7.110595703125,5.55419921875,4.0130615234375
0.7837499,7.888894557952881,-4.76924991607666,1.4508862495422363,-6.988525390625,5.8746337890625,4.3792724609375
0.7862499000000001,7.860164165496826,-4.745307922363281,1.414973258972168,-6.9580078125,6.1492919921875,4.852294921875
0.7887499,7.836222171783447,-4.716577529907227,1.3742717504501343,-7.0648193359375,6.4544677734375,5.2490234375
0.7912499000000001,7.812280178070068,-4.683058738708496,1.335964560508728,-7.232666015625,6.8206787109375,5.6304931640625
0.7937499,7.795520782470703,-4.654327869415283,1.2856862545013428,-7.3394775390625,6.7138671875,5.9967041015625
0.7962499000000001,7.766790390014648,-4.627991676330566,1.235408067703247,-7.415771484375,6.9427490234375,6.4544677734375
0.7987499,7.740454196929932,-4.620809078216553,1.1851298809051514,-7.7972412109375,7.171630859375,6.77490234375
0.8012499000000001,7.706935405731201,-4.616020679473877,1.1324573755264282,-8.0413818359375,7.1563720703125,7.3394775390625
0.8037499,7.6782050132751465,-4.620809078216553,1.0893617868423462,-8.30078125,7.0343017578125,7.9803466796875
0.8062499000000001,7.644686222076416,-4.637568473815918,1.0534487962722778,-8.5296630859375,7.1563720703125,8.4686279296875
0.8087499,7.615955829620361,-4.654327869415283,1.0199298858642578,-8.697509765625,7.2174072265625,8.9111328125
0.8112499000000001,7.580042362213135,-4.683058738708496,0.9768342971801758,-9.033203125,7.2174072265625,9.2620849609375
0.8137499,7.5417351722717285,-4.714183330535889,0.933738648891449,-9.46044921875,7.1258544921875,9.857177734375
0.8162499000000001,7.501033782958984,-4.742913722991943,0.8786720037460327,-9.8114013671875,7.0953369140625,10.68115234375
0.8187499,7.46033239364624,-4.771644115447998,0.8164227604866028,-10.0555419921875,7.2784423828125,11.138916015625
0.8212499000000001,7.419631004333496,-4.8051629066467285,0.7613561153411865,-10.43701171875,7.1258544921875,11.6424560546875
0.8237499,7.378929615020752,-4.838681697845459,0.7086837291717529,-10.6353759765625,7.2479248046875,12.603759765625
0.8262499000000001,7.340622425079346,-4.879383087158203,0.6584054827690125,-10.9100341796875,7.4310302734375,13.24462890625
0.8287499,7.307103633880615,-4.917690277099609,0.6200982332229614,-11.5203857421875,7.5225830078125,13.9007568359375
0.8312499000000001,7.268796443939209,-4.946420669555664,0.5770025849342346,-12.02392578125,7.6751708984375,14.862060546875
0.8337499,7.228095054626465,-4.970362663269043,0.5363011956214905,-12.176513671875,7.781982421875,15.5181884765625
0.8362499,7.180211067199707,-4.9799394607543945,0.48602294921875,-12.6190185546875,7.9498291015625,16.1895751953125
0.8387499,7.122750282287598,-4.987122058868408,0.43095630407333374,-13.4124755859375,7.7972412109375,16.845703125
0.8412499,7.070077419281006,-5.003881454467773,0.3734954595565796,-14.0380859375,7.87353515625,17.608642578125
0.8437499,7.022193431854248,-5.03021764755249,0.30885201692581177,-14.495849609375,8.270263671875,18.280029296875
0.8462499,6.981492042541504,-5.063736438751221,0.23942017555236816,-14.8773193359375,8.514404296875,19.0277099609375
0.8487499000000001,6.9455790519714355,-5.102043628692627,0.16519992053508759,-15.2587890625,8.7738037109375,20.1416015625
0.8512499,6.897695064544678,-5.125985622406006,0.0933738648891449,-15.8538818359375,8.9874267578125,20.965576171875
0.8537499000000001,6.845022678375244,-5.145139217376709,0.019153613597154617,-16.66259765625,9.2926025390625,21.575927734375
0.8562499,6.780379295349121,-5.154716491699219,-0.05506663769483566,-17.578125,9.429931640625,22.4609375
0.8587499000000001,6.7061591148376465,-5.16429328918457,-0.14365209639072418,-18.6614990234375,9.8419189453125,23.162841796875
0.8612499,6.631938934326172,-5.178658485412598,-0.2322375625371933,-19.683837890625,10.31494140625,23.6663818359375
0.8637499000000001,6.560112476348877,-5.193023681640625,-0.33039984107017517,-20.5230712890625,10.6964111328125,24.5819091796875
0.8662499,6.493074893951416,-5.20978307723999,-0.4213795065879822,-21.3165283203125,11.474609375,25.2227783203125
0.8687499000000001,6.440402507781982,-5.228936672210693,-0.5027823448181152,-21.91162109375,12.20703125,26.0162353515625
0.8712499,6.390124320983887,-5.252878665924072,-0.5746083855628967,-23.040771484375,12.786865234375,26.8402099609375
0.8737499000000001,6.342240333557129,-5.2672438621521,-0.6320692300796509,-23.773193359375,13.427734375,27.40478515625
0.8762499,6.282385349273682,-5.284003257751465,-0.689530074596405,-24.7802734375,14.434814453125,28.01513671875
0.8787499000000001,6.212953567504883,-5.284003257751465,-0.7493851184844971,-25.8941650390625,15.0146484375,28.656005859375
0.8812499,6.13633918762207,-5.276820659637451,-0.8164227604866028,-27.2216796875,16.0369873046875,29.2816162109375
0.8837499000000001,6.054935932159424,-5.2696380615234375,-0.8954314589500427,-28.4423828125,17.1661376953125,29.7393798828125
0.8862499,5.9735331535339355,-5.2672438621521,-0.9911994934082031,-29.8004150390625,17.9443359375,30.2581787109375
0.8887499000000001,5.894524574279785,-5.272032260894775,-1.0989385843276978,-31.1126708984375,19.3634033203125,31.0821533203125
0.8912499,5.817910194396973,-5.276820659637451,-1.2210428714752197,-32.318115234375,20.9503173828125,31.43310546875
0.8937499000000001,5.74129581451416,-5.274426460266113,-1.359906554222107,-33.843994140625,22.430419921875,31.8756103515625
0.8962499,5.664681434631348,-5.257667064666748,-1.5059528350830078,-35.491943359375,23.681640625,32.6385498046875
0.8987499,5.595249176025391,-5.231330871582031,-1.659181833267212,-37.0330810546875,25.115966796875,33.26416015625
0.9012499,5.52821159362793,-5.197812080383301,-1.8148049116134644,-38.75732421875,27.2064208984375,33.5693359375
0.9037499,5.47075080871582,-5.178658485412598,-1.9488801956176758,-40.5426025390625,29.2816162109375,34.210205078125
0.9062499,5.418078422546387,-5.157110691070557,-2.0661959648132324,-42.54150390625,31.3568115234375,34.97314453125
0.9087499,5.3582234382629395,-5.145139217376709,-2.1499931812286377,-44.5709228515625,33.3404541015625,35.614013671875
0.9112499000000001,5.298368453979492,-5.1331682205200195,-2.205059766769409,-46.8292236328125,35.64453125,36.4227294921875
0.9137499,5.233725070953369,-5.123591423034668,-2.255337953567505,-49.0264892578125,37.9486083984375,37.29248046875
0.9162499000000001,5.171475887298584,-5.125985622406006,-2.2888567447662354,-51.361083984375,40.374755859375,37.994384765625
0.9187499,5.109226226806641,-5.137956619262695,-2.3247697353363037,-53.6956787109375,43.4112548828125,38.7725830078125
0.9212499000000001,5.03021764755249,-5.152322292327881,-2.360682964324951,-55.9234619140625,46.2188720703125,39.6575927734375
0.9237499,4.941632270812988,-5.171475887298584,-2.389413356781006,-58.3343505859375,48.736572265625,40.5426025390625
0.9262499000000001,4.833893299102783,-5.188235282897949,-2.4205379486083984,-60.5621337890625,51.727294921875,41.900634765625
0.9287499,4.728548526763916,-5.2265424728393555,-2.4468741416931152,-62.469482421875,54.7332763671875,43.0450439453125
0.9312499000000001,4.6040496826171875,-5.260061264038086,-2.470816135406494,-64.14794921875,57.8460693359375,44.25048828125
0.9337499,4.462791919708252,-5.317522048950195,-2.4803929328918457,-65.7806396484375,60.8978271484375,45.59326171875
0.9362499000000001,4.302380561828613,-5.367800235748291,-2.492363929748535,-67.5201416015625,63.5986328125,46.9818115234375
0.9387499,4.1156325340271,-5.434837818145752,-2.4851813316345215,-68.9697265625,66.375732421875,48.4161376953125
0.9412499000000001,3.936067581176758,-5.5114521980285645,-2.473210334777832,-69.82421875,69.4732666015625,50.140380859375
0.9437499,3.756502389907837,-5.602431774139404,-2.456450939178467,-70.343017578125,72.3876953125,51.9561767578125
0.9462499000000001,3.5889084339141846,-5.719748020172119,-2.4205379486083984,-70.7855224609375,75.1800537109375,53.8482666015625
0.9487499,3.404554843902588,-5.839457988739014,-2.3798365592956543,-71.1517333984375,77.972412109375,55.6182861328125
0.9512499000000001,3.201047658920288,-5.9735331535339355,-2.3343467712402344,-70.80078125,80.902099609375,57.8155517578125
0.9537499,2.9712042808532715,-6.114790916442871,-2.2888567447662354,-70.3887939453125,83.2366943359375,59.7686767578125
0.9562499000000001,2.7222073078155518,-6.222530364990234,-2.248155355453491,-68.5577392578125,85.6475830078125,61.8133544921875
0.9587499,2.456450939178467,-6.289567947387695,-2.22660756111145,-66.83349609375,88.4857177734375,63.9495849609375
0.9612499,2.183511972427368,-6.289567947387695,-2.2194249629974365,-65.582275390625,90.75927734375,66.314697265625
0.9637499,1.8986018896102905,-6.224924564361572,-2.2361843585968018,-64.1632080078125,93.3685302734375,68.78662109375
0.9662499,1.6112977266311646,-6.14831018447876,-2.2697031497955322,-63.04931640625,95.8404541015625,71.2432861328125
0.9687499,1.3215993642807007,-6.071695327758789,-2.3247697353363037,-61.370849609375,97.8851318359375,73.822021484375
0.9712499,1.036689281463623,-6.038176536560059,-2.363077163696289,-59.08203125,100.006103515625,76.5228271484375
0.9737499000000001,0.7589619159698486,-6.0190229415893555,-2.406172752380371,-56.5338134765625,102.23388671875,79.1778564453125
0.9762499,0.47884035110473633,-5.975927352905273,-2.4229321479797363,-53.009033203125,104.278564453125,81.8634033203125
0.9787499000000001,0.2082955539226532,-5.904101371765137,-2.427720546722412,-50.384521484375,106.0943603515625,84.716796875
0.9812499,-0.06224924325942993,-5.772420406341553,-2.425326347351074,-48.0804443359375,108.0322265625,87.46337890625
0.9837499000000001,-0.3232172429561615,-5.616796970367432,-2.4133553504943848,-45.2423095703125,109.80224609375,90.51513671875
0.9862499,-0.8092401623725891,-5.286397457122803,-2.365471363067627,-39.581298828125,113.067626953125,96.649169921875
0.9887499000000001,-1.0079588890075684,-5.109226226806641,-2.3247697353363037,-36.6363525390625,114.9444580078125,100.341796875
0.9912499,-1.161187767982483,-4.920084476470947,-2.27209734916687,-33.8134765625,116.5924072265625,103.8970947265625
0.9937499000000001,-1.2737152576446533,-4.716577529907227,-2.229001760482788,-31.06689453125,118.2098388671875,107.72705078125
0.9962499,-1.3551181554794312,-4.51067590713501,-2.1595699787139893,-28.656005859375,120.1171875,111.541748046875
0.9987499000000001,-1.4197616577148438,-4.288015365600586,-2.10210919380188,-26.2451171875,121.9329833984375,115.570068359375
1.0012499,-1.4700398445129395,-4.05817174911499,-2.027888774871826,-23.98681640625,123.626708984375,119.6746826171875
1.0037498999999999,-1.5107412338256836,-3.7876269817352295,-1.968033790588379,-21.8048095703125,125.579833984375,124.0234375
1.0062499,-1.5298948287963867,-3.507505416870117,-1.9057846069335938,-19.989013671875,127.471923828125,128.753662109375
1.0087499,-1.5514427423477173,-3.2082302570343018,-1.8579005002975464,-18.4173583984375,129.638671875,133.48388671875
1.0112499,-1.558625340461731,-2.920926094055176,-1.8124107122421265,-17.15087890625,131.7291259765625,138.519287109375
1.0137498999999999,-1.5658079385757446,-2.647987127304077,-1.764526605606079,-16.082763671875,134.09423828125,143.7225341796875
1.0162499,-1.558625340461731,-2.382230758666992,-1.723825216293335,-15.13671875,136.474609375,149.139404296875
1.0187499,-1.534683346748352,-2.121262788772583,-1.680729627609253,-14.16015625,138.5650634765625,154.9072265625
1.0212499,-1.4939818382263184,-1.867477297782898,-1.6328455209732056,-14.09912109375,141.05224609375,160.46142578125
1.0237498999999999,-1.434126853942871,-1.623268723487854,-1.577778935432434,-14.007568359375,143.7835693359375,166.2750244140625
1.0262498999999998,-1.357512354850769,-1.3910311460494995,-1.50355863571167,-14.2364501953125,146.4385986328125,172.30224609375
1.0287499,-1.2641384601593018,-1.158793568611145,-1.403002142906189,-14.46533203125,149.0936279296875,178.28369140625
1.0312499,-1.158793568611145,-0.9289502501487732,-1.2761094570159912,-14.862060546875,152.130126953125,184.5550537109375
1.0337498999999999,-1.039083480834961,-0.6919242739677429,-1.1204863786697388,-15.7012939453125,155.0750732421875,191.009521484375
1.0362498999999998,-0.9289502501487732,-0.4620809257030487,-0.9528923034667969,-16.8609619140625,158.2794189453125,197.3114013671875
1.0387499,-0.8236053586006165,-0.2561795711517334,-0.7709329724311829,-18.341064453125,161.31591796875,204.04052734375
1.0412499,-0.7541735172271729,-0.05985504388809204,-0.5937620401382446,-19.83642578125,164.794921875,210.723876953125
1.0437499,-0.706289529800415,0.0933738648891449,-0.43095630407333374,-21.240234375,168.3502197265625,217.3919677734375
1.0462498999999998,-0.6943184733390808,0.21547815203666687,-0.26575639843940735,-23.223876953125,171.5545654296875,224.151611328125
1.0487499,-0.7015010714530945,0.28969839215278625,-0.1149216815829277,-25.0244140625,174.7894287109375,231.2774658203125
1.0512499,-0.7230489253997803,0.31603461503982544,0.035913024097681046,-26.611328125,178.4210205078125,238.4185791015625
1.0537499,-0.751779317855835,0.33518823981285095,0.17717093229293823,-27.9541015625,181.9915771484375,245.574951171875
1.0562498999999999,-0.7829039692878723,0.3471592366695404,0.31842881441116333,-29.1290283203125,185.5621337890625,252.9296875
1.0587499,-0.8020575642585754,0.38546648621559143,0.45010992884635925,-30.94482421875,189.02587890625,260.345458984375
1.0612499,-0.8331822156906128,0.43095630407333374,0.5793967843055725,-32.71484375,192.626953125,268.0816650390625
1.0637499,-0.8643068075180054,0.47644615173339844,0.706289529800415,-34.2864990234375,195.9381103515625,275.8636474609375
1.0662498999999999,-0.9217676520347595,0.49559974670410156,0.8331822156906128,-36.1480712890625,199.2340087890625,283.2794189453125
1.0687499,-1.0007762908935547,0.48602294921875,0.9576807022094727,-37.445068359375,202.545166015625,291.0614013671875
1.0712499,-1.1037269830703735,0.4405331015586853,1.0893617868423462,-38.5589599609375,205.4290771484375,298.980712890625
1.0737499,-1.2234370708465576,0.3663128614425659,1.2210428714752197,-39.581298828125,208.06884765625,306.5032958984375
1.0762498999999999,-1.3527239561080933,0.27054479718208313,1.3503297567367554,-40.52734375,210.9527587890625,314.1021728515625
1.0787499,-1.4963760375976562,0.15801730751991272,1.4915876388549805,-41.6717529296875,213.6383056640625,321.6400146484375
1.0812499,-1.6615760326385498,0.021547814831137657,1.6280571222305298,-43.0908203125,215.972900390625,329.0557861328125
1.0837499,-1.8626888990402222,-0.1388636976480484,1.764526605606079,-44.342041015625,217.9412841796875,336.700439453125
1.0862498999999999,-2.097320795059204,-0.31603461503982544,1.8986018896102905,-45.013427734375,219.635009765625,343.994140625
1.0887499,-2.360682964324951,-0.5027823448181152,2.0207061767578125,-46.2188720703125,220.947265625,351.043701171875
1.0912499,-2.63362193107605,-0.6751648783683777,2.1356279850006104,-47.088623046875,221.8475341796875,358.123779296875
1.0937499,-2.892195701599121,-0.8331822156906128,2.2625205516815186,-48.0804443359375,222.71728515625,364.8529052734375
1.0962498999999999,-3.138798475265503,-0.9720458984375,2.427720546722412,-49.31640625,223.175048828125,371.2615966796875
1.0987498999999998,-3.354276657104492,-1.1204863786697388,2.647987127304077,-50.567626953125,223.5870361328125,377.593994140625
1.1012499,-3.555389642715454,-1.2952631711959839,2.935291290283203,-51.8646240234375,223.81591796875,383.697509765625
1.1037499,-3.7493197917938232,-1.525106430053711,3.294421434402466,-53.0242919921875,224.0142822265625,389.58740234375
1.1062499,-3.9456443786621094,-1.824381709098816,3.6846764087677,-53.6956787109375,223.8616943359375,395.0958251953125
1.1087498999999998,-4.141968727111816,-2.188300371170044,4.089296340942383,-54.0313720703125,223.2513427734375,400.3143310546875
1.1112499,-4.347870349884033,-2.5785553455352783,4.513070106506348,-54.046630859375,222.7020263671875,405.1971435546875
1.1137499,-4.541800498962402,-2.9735984802246094,4.934449672698975,-54.3060302734375,221.7864990234375,410.0341796875
1.1162499,-4.7189717292785645,-3.3231520652770996,5.339069843292236,-55.3131103515625,220.8099365234375,414.520263671875
1.1187498999999999,-4.865017890930176,-3.646369218826294,5.74129581451416,-56.2286376953125,220.0164794921875,418.6859130859375
1.1212499,-4.975151062011719,-3.9432501792907715,6.124367713928223,-56.82373046875,219.1925048828125,422.66845703125
1.1237499,-5.054159641265869,-4.259284973144531,6.507440090179443,-56.70166015625,218.2769775390625,426.2542724609375
1.1262499,-5.118803024291992,-4.613626480102539,6.936002254486084,-56.5185546875,217.34619140625,429.6722412109375
1.1287498999999999,-5.1810526847839355,-5.037400245666504,7.429207801818848,-56.3812255859375,216.30859375,432.6629638671875
1.1312499,-5.238513469696045,-5.521028995513916,7.99184513092041,-55.6640625,214.691162109375,435.5926513671875
1.1337499,-5.284003257751465,-6.074089527130127,8.609549522399902,-55.60302734375,213.2110595703125,437.9730224609375
1.1362499,-5.339069843292236,-6.7277069091796875,9.344569206237793,-55.328369140625,211.85302734375,440.4754638671875
1.1387498999999999,-5.39174222946167,-7.438784599304199,10.086771965026855,-53.802490234375,209.9151611328125,442.7642822265625
1.1412499,-5.475539207458496,-8.269572257995605,10.903194427490234,-52.42919921875,208.343505859375,444.732666015625
1.1437499,-5.580883979797363,-9.14345645904541,11.690886497497559,-50.4302978515625,206.1920166015625,446.6400146484375
1.1462499,-5.69580602645874,-10.077195167541504,12.464214324951172,-47.8668212890625,204.0252685546875,448.394775390625
1.1487498999999999,-5.803544998168945,-11.027692794799805,13.196839332580566,-44.8760986328125,201.6143798828125,449.8138427734375
1.1512499,-5.901707172393799,-11.987768173217773,13.939042091369629,-41.5802001953125,199.3560791015625,450.86669921875
1.1537499,-5.975927352905273,-12.947842597961426,14.709975242614746,-37.6129150390625,196.7620849609375,451.9805908203125
1.1562499,-6.033388137817383,-13.910311698913574,15.538369178771973,-32.8826904296875,193.5882568359375,452.5299072265625
1.1587498999999999,-6.081272125244141,-14.896722793579102,16.45774269104004,-27.52685546875,190.277099609375,452.4078369140625
1.1612498999999998,-6.112396717071533,-15.902287483215332,17.49443244934082,-21.4996337890625,186.431884765625,451.8890380859375
1.1637499,-6.133944988250732,-16.95334243774414,18.643648147583008,-15.0604248046875,182.1441650390625,451.11083984375
1.1662499,-6.14831018447876,-18.04030990600586,19.922151565551758,-8.544921875,177.3529052734375,449.6917724609375
1.1687499,-6.167463779449463,-19.182344436645508,21.25811767578125,-1.220703125,171.93603515625,447.57080078125
1.1712498999999998,-6.200982570648193,-20.384233474731445,22.60126495361328,6.3934326171875,166.046142578125,444.6258544921875
1.1737499,-6.248866558074951,-21.63640022277832,23.87976837158203,15.411376953125,159.8968505859375,440.765380859375
1.1762499,-6.299144744873047,-22.90293312072754,25.02898406982422,25.7568359375,153.3966064453125,436.187744140625
1.1787499,-6.3302693367004395,-24.10961151123047,26.036943435668945,37.2467041015625,146.7437744140625,430.450439453125
1.1812498999999999,-6.31829833984375,-25.175031661987305,26.865337371826172,49.5147705078125,139.4500732421875,424.01123046875
1.1837499,-6.232107162475586,-26.022579193115234,27.554866790771484,61.920166015625,131.7138671875,416.6107177734375
1.1862499,-5.999869346618652,-26.625917434692383,28.091169357299805,74.40185546875,123.3062744140625,407.7606201171875
1.1887499,-5.552153587341309,-27.071239471435547,28.502971649169922,86.578369140625,114.0289306640625,398.529052734375
1.1912498999999999,-4.891354084014893,-27.365724563598633,28.895620346069336,100.52490234375,105.224609375,388.1988525390625
1.1937499,-4.0078935623168945,-27.621904373168945,29.316999435424805,113.922119140625,95.64208984375,377.2735595703125
1.1962499,-1.9129672050476074,-28.105533599853516,30.588321685791016,137.26806640625,72.2503662109375,355.1483154296875
1.1987499,-0.7972691655158997,-28.397626876831055,31.443050384521484,147.0794677734375,59.26513671875,343.6126708984375
1.2012498999999999,0.33518823981285095,-28.756755828857422,32.37918472290039,155.731201171875,45.166015625,332.183837890625
1.2037499,1.4389152526855469,-29.17334747314453,33.312923431396484,163.299560546875,30.792236328125,320.2972412109375
1.2062499,2.4851813316345215,-29.64500617980957,34.158077239990234,170.5474853515625,16.143798828125,308.5784912109375
1.2087499,3.4380736351013184,-30.12145233154297,34.83084487915039,178.192138671875,1.0833740234375,296.1883544921875
1.2112498999999999,4.2760443687438965,-30.56198501586914,35.30729293823242,185.5926513671875,-14.58740234375,283.2183837890625
1.2137499,5.006275653839111,-30.92111587524414,35.58980941772461,192.474365234375,-30.1666259765625,269.287109375
1.2162499,5.657498836517334,-31.124622344970703,35.73824691772461,198.6083984375,-46.234130859375,254.425048828125
1.2187499,6.234501361846924,-31.134199142456055,35.86274719238281,204.1778564453125,-62.530517578125,239.2730712890625
1.2212498999999999,6.751648902893066,-30.8636531829834,36.01597595214844,207.489013671875,-79.2083740234375,223.876953125
1.2237498999999998,7.240066051483154,-30.346506118774414,36.31285858154297,207.51953125,-96.4202880859375,208.49609375
1.2262499,7.709329605102539,-29.613880157470703,36.75578308105469,203.7353515625,-114.654541015625,191.5130615234375
1.2287499,8.214506149291992,-28.807035446166992,37.32560348510742,197.4029541015625,-134.2010498046875,173.7213134765625
1.2312499,8.78193187713623,-28.031312942504883,37.952884674072266,189.1937255859375,-154.3121337890625,155.731201171875
1.2337498999999998,9.370905876159668,-27.315446853637695,38.64241409301758,179.2449951171875,-174.224853515625,137.2833251953125
1.2362499,9.947908401489258,-26.67140769958496,39.36067581176758,166.56494140625,-194.8089599609375,118.3013916015625
1.2387499,10.436325073242188,-26.06088638305664,40.203433990478516,152.587890625,-216.7205810546875,98.32763671875
1.2412499,10.800244331359863,-25.531766891479492,41.25448989868164,136.29150390625,-239.7613525390625,76.9195556640625
1.2437498999999999,11.05642318725586,-25.134328842163086,42.38216018676758,119.5220947265625,-264.1448974609375,54.656982421875
1.2462499,11.221623420715332,-24.942792892456055,43.63193130493164,102.691650390625,-288.604736328125,31.67724609375
1.2487499,11.298237800598145,-25.03377342224121,44.809879302978516,86.4715576171875,-313.8427734375,8.026123046875
1.2512499,11.219228744506836,-25.4096622467041,45.87051010131836,71.258544921875,-339.66064453125,-15.625
1.2537498999999999,10.924742698669434,-26.041732788085938,46.770729064941406,57.6934814453125,-366.02783203125,-39.24560546875
1.2562499,10.347740173339844,-26.92758560180664,47.465049743652344,44.158935546875,-393.9056396484375,-63.1866455078125
1.2587499,9.500192642211914,-27.988218307495117,47.93670654296875,31.1431884765625,-423.33984375,-86.9903564453125
1.2612499,8.492233276367188,-29.261932373046875,48.221614837646484,19.10400390625,-452.9266357421875,-110.53466796875
1.2637498999999999,7.42681360244751,-30.68169403076172,48.322174072265625,8.7432861328125,-481.9488525390625,-134.4757080078125
1.2662499,6.390124320983887,-32.21637725830078,48.322174072265625,0.4730224609375,-500,-158.1268310546875
1.2687499,5.382165431976318,-33.78458023071289,48.27668380737305,-5.9356689453125,-500,-181.793212890625
1.2712499,4.352658748626709,-35.321659088134766,48.207252502441406,-12.0391845703125,-500,-205.3680419921875
1.2737498999999999,3.2106244564056396,-36.841976165771484,48.1497917175293,-17.974853515625,-500,-229.705810546875
1.2762499,1.920149803161621,-38.312015533447266,48.037261962890625,-22.4609375,-500,-255.126953125
1.2787499,0.49320554733276367,-39.7605094909668,47.766719818115234,-25.3143310546875,-500,-280.731201171875
1.2812499,-1.072602391242981,-41.158721923828125,47.27590560913086,-27.0233154296875,-500,-307.18994140625
1.2837498999999999,-2.7054479122161865,-42.4970817565918,46.48582077026367,-27.2064208984375,-500,-333.770751953125
1.2862498999999998,-4.364629745483398,-43.780372619628906,45.406036376953125,-24.84130859375,-500,-359.161376953125
1.2887499,-5.940014362335205,-45.046905517578125,44.08922576904297,-21.9879150390625,-500,-383.1939697265625
1.2912499,-7.398083209991455,-46.37568664550781,42.6766471862793,-18.5546875,-500,-405.3802490234375
1.2937499,-8.731653213500977,-47.915157318115234,41.31195068359375,-16.815185546875,-500,-425.537109375
1.2962498999999998,-10.000580787658691,-49.679683685302734,40.007110595703125,-13.18359375,-500,-443.84765625
1.2987499,-11.39400577545166,-51.69321060180664,38.793251037597656,-5.889892578125,-500,-460.8001708984375
1.3012499,-13.026851654052734,-53.74504089355469,37.37348937988281,0.732421875,-500,-475.64697265625
1.3037499,-15.021221160888672,-55.59336471557617,35.58980941772461,7.8277587890625,-500,-489.0594482421875
1.3062498999999999,-17.355567932128906,-56.90538787841797,33.312923431396484,14.83154296875,-500,-500
1.3087499,-19.962854385375977,-57.508724212646484,30.60747528076172,19.9432373046875,-500,-500
1.3112499,-22.615629196166992,-57.22142028808594,27.51177215576172,21.78955078125,-500,-500
1.3137499,-25.14630126953125,-55.981224060058594,24.41367530822754,19.8211669921875,-500,-500
1.3162498999999999,-27.315446853637695,-54.00840377807617,21.049821853637695,15.289306640625,-500,-500
1.3187499,-29.04645538330078,-51.37238693237305,17.9732723236084,5.6915283203125,-500,-500
1.3212499,-30.281862258911133,-48.4035758972168,14.915876388549805,-6.9732666015625,-500,-500
1.3237499,-31.129409790039062,-45.33899688720703,12.179304122924805,-22.9949951171875,-500,-500
1.3262498999999999,-31.763874053955078,-42.3175163269043,9.739612579345703,-40.71044921875,-500,-500
1.3287499,-32.3121452331543,-39.39658737182617,7.548917770385742,-58.59375,-500,-500
1.3312499,-32.901119232177734,-36.557064056396484,5.614402770996094,-77.1484375,-500,-500
1.3337499,-33.60501480102539,-33.676841735839844,3.9240965843200684,-96.6339111328125,-500,-500
1.3362498999999999,-34.49565887451172,-30.655359268188477,2.4684219360351562,-115.9515380859375,-500,-500
1.3387499,-35.61375045776367,-27.46149444580078,1.2545616626739502,-135.589599609375,-500,-500
1.3412499,-37.04069519042969,-24.30593490600586,0.22266076505184174,-156.4483642578125,-500,-500
1.3437499,-38.81240463256836,-21.416133880615234,-0.7134721279144287,-174.591064453125,-500,-500
1.3462498999999999,-40.87141799926758,-19.09375762939453,-1.6543933153152466,-186.4013671875,-500,-500
1.3487498999999998,-43.124359130859375,-17.547103881835938,-2.7222073078155518,-193.3135986328125,-500,-500
1.3512499,-45.288719177246094,-16.680402755737305,-3.9647979736328125,-195.3125,-500,-500
1.3537499,-47.07479476928711,-16.28536033630371,-5.406107425689697,-190.9637451171875,-500,-500
1.3562499,-48.25992202758789,-16.017210006713867,-7.043741226196289,-181.1370849609375,-496.337890625,-483.4442138671875
1.3587498999999998,-48.74834060668945,-15.562311172485352,-8.724471092224121,-167.8466796875,-467.071533203125,-454.5745849609375
1.3612499,-48.580745697021484,-14.70758056640625,-10.44350814819336,-153.411865234375,-438.0645751953125,-423.5992431640625
1.3637499,-47.87924575805664,-13.390769958496094,-12.014103889465332,-139.5111083984375,-409.393310546875,-391.9677734375
1.3662499,-46.79227828979492,-11.623848915100098,-13.323732376098633,-125.42724609375,-382.2784423828125,-360.5804443359375
1.3687498999999999,-45.44673538208008,-9.524134635925293,-14.295778274536133,-111.4654541015625,-357.3150634765625,-330.352783203125
1.3712499,-43.93838882446289,-7.132327079772949,-14.872780799865723,-96.038818359375,-334.2742919921875,-302.6885986328125
1.3737499,-42.33427429199219,-4.563348293304443,-15.093047142028809,-81.298828125,-313.079833984375,-277.435302734375
1.3762499,-40.6463623046875,-1.8794482946395874,-15.016432762145996,-68.9697265625,-293.060302734375,-254.486083984375
1.3787498999999999,-38.89859390258789,0.8188169598579407,-14.678850173950195,-59.1888427734375,-273.4222412109375,-233.88671875
1.3812499,-37.1173095703125,3.3710360527038574,-14.118607521057129,-51.4678955078125,-253.326416015625,-215.1031494140625
1.3837499,-35.39827346801758,5.664681434631348,-13.333309173583984,-46.1273193359375,-231.5521240234375,-198.3489990234375
1.3862499,-33.806129455566406,7.4986395835876465,-12.406753540039062,-43.6859130859375,-209.136962890625,-182.7545166015625
1.3887498999999999,-32.44382858276367,8.767566680908203,-11.432312965393066,-42.66357421875,-186.6607666015625,-167.5262451171875
1.3912499,-31.335311889648438,9.452308654785156,-10.515334129333496,-41.748046875,-164.703369140625,-152.2369384765625
1.3937499,-30.418333053588867,9.62947940826416,-9.75397777557373,-41.5191650390625,-143.2037353515625,-137.20703125
1.3962499,-29.630640029907227,9.500192642211914,-9.138668060302734,-42.510986328125,-122.49755859375,-122.49755859375
1.3987498999999999,-28.881254196166992,9.279925346374512,-8.585607528686523,-45.989990234375,-103.179931640625,-108.154296875
1.4012499,-28.12229347229004,9.114726066589355,-7.99184513092041,-52.215576171875,-85.2203369140625,-94.1925048828125
1.4037499,-26.527755737304688,9.004592895507812,-6.380547523498535,-71.4569091796875,-53.009033203125,-68.511962890625
1.4062499,-25.70414924621582,8.87051773071289,-5.372588634490967,-82.1685791015625,-39.520263671875,-57.6019287109375
1.4087498999999999,-24.906879425048828,8.56884765625,-4.2544965744018555,-91.9952392578125,-27.2674560546875,-47.7142333984375
1.4112498999999998,-24.147918701171875,8.056488990783691,-3.0885202884674072,-101.531982421875,-16.5557861328125,-39.0625
1.4137499,-23.4464168548584,7.362170219421387,-1.9129672050476074,-110.7177734375,-7.720947265625,-31.494140625
1.4162499,-22.795194625854492,6.512228488922119,-0.768538773059845,-118.34716796875,-0.091552734375,-24.71923828125
1.4187499,-22.170307159423828,5.568912982940674,0.2968810200691223,-124.237060546875,5.7830810546875,-18.9056396484375
1.4212498999999998,-21.545421600341797,4.546588897705078,1.256955862045288,-128.7994384765625,10.19287109375,-14.3585205078125
1.4237499,-20.865467071533203,3.4835634231567383,2.1308395862579346,-131.5765380859375,12.786865234375,-10.25390625
1.4262499,-20.092140197753906,2.4205379486083984,2.9041666984558105,-132.2784423828125,14.739990234375,-7.1258544921875
1.4287499,-19.160797119140625,1.3862427473068237,3.60566782951355,-132.293701171875,15.2435302734375,-4.302978515625
1.4312498999999999,-18.04030990600586,0.3974374830722809,4.216189384460449,-131.134033203125,15.19775390625,-1.8157958984375
1.4337499,-16.721105575561523,-0.5027823448181152,4.757278919219971,-128.35693359375,14.8773193359375,0.5645751953125
1.4362499,-15.2151517868042,-1.3455413579940796,5.219359874725342,-125.18310546875,14.2822265625,2.7313232421875
1.4387499,-13.572729110717773,-2.0805611610412598,5.602431774139404,-121.0784912109375,13.3056640625,5.2337646484375
1.4412498999999999,-11.848904609680176,-2.7054479122161865,5.901707172393799,-116.3330078125,12.6190185546875,7.8125
1.4437499,-10.108319282531738,-3.2297780513763428,6.090848922729492,-111.81640625,12.3443603515625,10.406494140625
1.4462499,-8.391676902770996,-3.6535518169403076,6.162675380706787,-107.1319580078125,11.932373046875,13.092041015625
1.4487499,-6.7492547035217285,-4.022258758544922,6.114790916442871,-101.7303466796875,11.3677978515625,15.4571533203125
1.4512498999999999,-5.1810526847839355,-4.355052947998047,5.949591159820557,-96.2066650390625,10.5133056640625,17.822265625
1.4537499,-3.687070608139038,-4.651933670043945,5.681440830230713,-90.2099609375,9.765625,20.0653076171875
1.4562499,-2.233790159225464,-4.908113479614258,5.305551052093506,-83.1146240234375,8.8653564453125,21.8963623046875
1.4587499,-0.8092401623725891,-5.12119722366333,4.8482584953308105,-75.86669921875,7.781982421875,23.2696533203125
1.4612498999999999,0.6224924325942993,-5.284003257751465,4.331110954284668,-67.87109375,6.744384765625,24.4903564453125
1.4637499,2.054224967956543,-5.406107425689697,3.797203779220581,-59.9517822265625,5.889892578125,24.8870849609375
1.4662499,3.4787750244140625,-5.48272180557251,3.287238836288452,-52.6580810546875,5.2490234375,25.0244140625
1.4687499,4.881777286529541,-5.521028995513916,2.8179752826690674,-46.356201171875,4.9591064453125,25.299072265625
1.4712498999999999,6.222530364990234,-5.537788391113281,2.403778553009033,-40.985107421875,4.8675537109375,25.2532958984375
1.4737498999999998,7.465120792388916,-5.549759387969971,2.03507137298584,-36.9110107421875,5.7220458984375,24.7344970703125
1.4762499,8.578424453735352,-5.585672378540039,1.7262194156646729,-33.0352783203125,6.2408447265625,24.0478515625
1.4787499,9.526528358459473,-5.638344764709473,1.4700398445129395,-29.35791015625,6.866455078125,22.9339599609375
1.4812499,10.319009780883789,-5.717353820800781,1.292868971824646,-26.1077880859375,7.4462890625,21.2249755859375
1.4837498999999998,10.984597206115723,-5.803544998168945,1.1899182796478271,-23.1475830078125,8.1939697265625,18.7835693359375
1.4862499,11.547234535217285,-5.884947776794434,1.161187767982483,-19.866943359375,9.6893310546875,15.8538818359375
1.4887499,12.045228958129883,-5.978321552276611,1.2090718746185303,-17.0440673828125,11.1541748046875,12.451171875
1.4912499,12.461819648742676,-6.071695327758789,1.3287819623947144,-14.312744140625,13.336181640625,8.7127685546875
1.4937498999999999,12.7946138381958,-6.18182897567749,1.5322890281677246,-11.5203857421875,15.594482421875,4.669189453125
1.4962499,13.03164005279541,-6.308721542358398,1.8171991109848022,-9.185791015625,17.364501953125,0.3204345703125
1.4987499,13.194445610046387,-6.461950302124023,2.1523873805999756,-7.4005126953125,19.287109375,-3.90625
1.5012499,13.309367179870605,-6.6391215324401855,2.5306711196899414,-5.889892578125,21.4385986328125,-7.904052734375
1.5037498999999999,13.402741432189941,-6.830657482147217,2.913743495941162,-3.7384033203125,23.681640625,-11.9781494140625
1.5062499,13.479355812072754,-7.022193431854248,3.292027235031128,-2.3956298828125,25.8941650390625,-16.1285400390625
1.5087499,13.548787117004395,-7.204153060913086,3.643975019454956,-1.434326171875,27.83203125,-20.3857421875
1.5112499,13.589488983154297,-7.371747016906738,3.952826976776123,-0.091552734375,29.815673828125,-24.169921875
1.5137498999999999,13.599065780639648,-7.534552574157715,4.197035789489746,1.5106201171875,31.67724609375,-27.64892578125
1.5162499,13.563152313232422,-7.69735860824585,4.393360137939453,3.173828125,33.3099365234375,-31.3720703125
1.5187499,13.457807540893555,-7.841010570526123,4.553771495819092,5.31005859375,34.4390869140625,-34.7137451171875
1.5212499,13.290213584899902,-7.99184513092041,4.702212333679199,6.5155029296875,35.15625,-38.02490234375
1.5237498999999999,13.06755256652832,-8.123526573181152,4.833893299102783,8.697509765625,35.6903076171875,-41.0614013671875
1.5262499,12.804190635681152,-8.250418663024902,4.955997467041016,11.5203857421875,35.919189453125,-43.8385009765625
1.5287499,12.521675109863281,-8.343792915344238,5.066130638122559,14.434814453125,35.9039306640625,-46.32568359375
1.5312499,12.24155330657959,-8.401253700256348,5.173870086669922,17.4407958984375,35.5377197265625,-48.76708984375
1.5337498999999999,11.985373497009277,-8.429984092712402,5.2672438621521,20.8892822265625,34.4085693359375,-50.84228515625
1.5362499,11.779472351074219,-8.434772491455078,5.353435039520264,24.8870849609375,33.6456298828125,-52.734375
1.5387499,11.619060516357422,-8.425195693969727,5.415684223175049,29.449462890625,32.7911376953125,-54.1839599609375
1.5412499,11.528080940246582,-8.406042098999023,5.456385612487793,34.1033935546875,31.6314697265625,-54.931640625
1.5437499,11.48259162902832,-8.372523307800293,5.468356609344482,39.215087890625,30.181884765625,-55.450439453125
1.5462498999999998,11.492168426513672,-8.33182144165039,5.4659624099731445,44.73876953125,28.961181640625,-55.8624267578125
1.5487499,11.525687217712402,-8.252813339233398,5.442020416259766,50.35400390625,27.6641845703125,-55.8929443359375
1.5512499,11.578359603881836,-8.152256965637207,5.427655220031738,55.206298828125,26.2298583984375,-55.938720703125
1.5537499,11.63342571258545,-8.001421928405762,5.403713226318359,59.7381591796875,24.5513916015625,-55.72509765625
1.5562498999999999,11.690886497497559,-7.8098859786987305,5.374982833862305,64.39208984375,22.9034423828125,-55.3436279296875
1.5587499,11.741165161132812,-7.592013359069824,5.331887245178223,68.54248046875,21.42333984375,-54.62646484375
1.5612499,11.777078628540039,-7.364564418792725,5.25527286529541,71.990966796875,19.8516845703125,-54.1534423828125
1.5637499,11.78904914855957,-7.137115478515625,5.137956619262695,75.0732421875,18.1884765625,-53.6956787109375
1.5662498999999999,11.765107154846191,-6.92881965637207,4.970362663269043,77.850341796875,16.4642333984375,-53.1768798828125
1.5687499,11.70046329498291,-6.7277069091796875,4.733336925506592,80.291748046875,14.923095703125,-52.67333984375
1.5712499,11.585541725158691,-6.519411087036133,4.438849925994873,83.06884765625,13.3514404296875,-51.910400390625
1.5737499,11.422736167907715,-6.303933143615723,4.098873138427734,85.0372314453125,11.474609375,-51.239013671875
1.5762498999999999,11.209651947021484,-6.057330131530762,3.7445313930511475,86.3494873046875,9.3536376953125,-50.384521484375
1.5787499,10.986991882324219,-5.78678560256958,3.3854012489318848,86.9598388671875,6.8359375,-49.62158203125
1.5812499,10.764330863952637,-5.4875102043151855,3.045424461364746,86.85302734375,4.180908203125,-49.0570068359375
1.5837499,10.584765434265137,-5.1810526847839355,2.7102363109588623,85.8306884765625,1.8768310546875,-48.3551025390625
1.5862498999999999,10.450690269470215,-4.865017890930176,2.389413356781006,84.1064453125,-0.4730224609375,-47.6837158203125
1.5887499,10.362105369567871,-4.563348293304443,2.0877439975738525,82.5958251953125,-2.62451171875,-47.3175048828125
1.5912499,10.283096313476562,-4.266467571258545,1.8171991109848022,80.50537109375,-4.4403076171875,-47.0123291015625
1.5937499,10.20648193359375,-3.9887399673461914,1.5873557329177856,77.2705078125,-6.65283203125,-46.539306640625
1.5962498999999999,10.108319282531738,-3.73016619682312,1.4077905416488647,73.5015869140625,-8.697509765625,-46.3409423828125
1.5987499,9.988609313964844,-3.514688014984131,1.2713210582733154,69.305419921875,-10.43701171875,-46.356201171875
1.6012499,9.854534149169922,-3.3279404640197754,1.1635819673538208,65.2313232421875,-12.237548828125,-46.6766357421875
1.6037499,9.703699111938477,-3.1866824626922607,1.0893617868423462,60.577392578125,-13.8092041015625,-47.0733642578125
1.6062499,9.545681953430176,-3.0550012588500977,1.0342950820922852,55.938720703125,-15.472412109375,-47.66845703125
1.6087498999999998,9.399636268615723,-2.9257144927978516,1.0007762908935547,51.361083984375,-16.8609619140625,-48.553466796875
1.6112499,9.119514465332031,-2.631227731704712,0.9768342971801758,40.9698486328125,-19.0887451171875,-50.8575439453125
1.6137499,8.987833023071289,-2.4612393379211426,0.9840168952941895,35.3851318359375,-20.0653076171875,-52.06298828125
1.6162499,8.865729331970215,-2.2816741466522217,1.01753568649292,29.4647216796875,-21.1029052734375,-53.7261962890625
1.6187498999999999,8.753201484680176,-2.10210919380188,1.0773907899856567,24.200439453125,-21.8048095703125,-55.4962158203125
1.6212499,8.655038833618164,-1.941697597503662,1.158793568611145,18.4478759765625,-22.27783203125,-57.403564453125
1.6237499,8.571242332458496,-1.7980455160140991,1.2545616626739502,12.9547119140625,-23.01025390625,-59.3414306640625
1.6262499,8.497021675109863,-1.6927006244659424,1.3742717504501343,7.4462890625,-23.345947265625,-61.4776611328125
1.6287498999999999,8.44434928894043,-1.623268723487854,1.4963760375976562,2.38037109375,-23.5595703125,-63.3087158203125
1.6312499,8.406042098999023,-1.5969325304031372,1.6160861253738403,-2.2735595703125,-23.529052734375,-65.2313232421875
1.6337499,8.391676902770996,-1.6112977266311646,1.7166426181793213,-6.866455078125,-23.4222412109375,-67.4285888671875
1.6362499,8.38449478149414,-1.6519991159439087,1.7980455160140991,-10.8642578125,-22.5677490234375,-69.366455078125
1.6387498999999999,8.382100105285645,-1.7310078144073486,1.8626888990402222,-14.5416259765625,-21.8353271484375,-70.7855224609375
1.6412499,8.362946510314941,-1.821987509727478,1.920149803161621,-17.6239013671875,-21.1334228515625,-72.08251953125
1.6437499,8.327033042907715,-1.9369091987609863,1.968033790588379,-20.7366943359375,-20.0653076171875,-73.5015869140625
1.6462499,8.269572257995605,-2.070984363555908,2.0039467811584473,-23.406982421875,-18.85986328125,-74.3865966796875
1.6487498999999999,8.192957878112793,-2.2194249629974365,2.0039467811584473,-25.32958984375,-17.8680419921875,-75.1190185546875
1.6512499,8.106766700744629,-2.3774423599243164,1.9752163887023926,-26.7181396484375,-16.845703125,-75.347900390625
1.6537499,8.008605003356934,-2.5330653190612793,1.9033904075622559,-27.8778076171875,-15.777587890625,-75.2716064453125
1.6562499,7.90086555480957,-2.674323320388794,1.7980455160140991,-28.594970703125,-14.5416259765625,-75.225830078125
1.6587498999999999,7.785943984985352,-2.7892448902130127,1.6663644313812256,-28.9764404296875,-13.702392578125,-74.64599609375
1.6612499,7.659051418304443,-2.8658595085144043,1.5179238319396973,-29.35791015625,-12.8173828125,-73.73046875
1.6637499,7.532158374786377,-2.9065608978271484,1.3670891523361206,-29.6173095703125,-11.993408203125,-72.75390625
1.6662499,7.4100542068481445,-2.9089550971984863,1.2186486721038818,-29.571533203125,-11.3525390625,-71.3653564453125
1.6687499,7.292738437652588,-2.8778305053710938,1.0749965906143188,-29.47998046875,-10.55908203125,-69.9310302734375
1.6712498999999998,7.194576263427734,-2.8179752826690674,0.9481038451194763,-29.3121337890625,-9.9029541015625,-68.7103271484375
1.6737499,7.096413612365723,-2.7293899059295654,0.8188169598579407,-29.23583984375,-9.33837890625,-66.8487548828125
1.6762499,7.003039836883545,-2.6168625354766846,0.706289529800415,-29.0679931640625,-8.4686279296875,-65.0482177734375
1.6787499,6.914454460144043,-2.47560453414917,0.6009446382522583,-28.9154052734375,-7.9498291015625,-63.262939453125
1.6812498999999999,6.842628479003906,-2.319981336593628,0.5003881454467773,-28.961181640625,-7.6904296875,-61.1572265625
1.6837499,6.794744491577148,-2.1547815799713135,0.40940847992897034,-29.4036865234375,-7.110595703125,-59.417724609375
1.6862499,6.775590896606445,-1.98958158493042,0.31603461503982544,-29.8919677734375,-6.6070556640625,-57.586669921875
1.6887499,6.787561893463135,-1.8363527059555054,0.22744916379451752,-30.2276611328125,-5.859375,-55.72509765625
1.6912498999999999,6.8162922859191895,-1.6879122257232666,0.15322890877723694,-30.76171875,-5.2642822265625,-54.1534423828125
1.6937499,6.864176273345947,-1.5610195398330688,0.08858546614646912,-31.036376953125,-4.791259765625,-52.3223876953125
1.6962499,6.916848659515381,-1.4317326545715332,0.040701430290937424,-31.402587890625,-4.08935546875,-50.6134033203125
1.6987499,6.976703643798828,-1.3215993642807007,0.014365210197865963,-31.6619873046875,-3.6163330078125,-48.9044189453125
1.7012498999999999,7.029376029968262,-1.2258312702178955,0.009576806798577309,-32.1502685546875,-2.5177001953125,-47.42431640625
1.7037499,7.079654216766357,-1.1540051698684692,0.035913024097681046,-32.379150390625,-1.7242431640625,-46.0357666015625
1.7062499,7.1251444816589355,-1.1061211824417114,0.07422025501728058,-32.5927734375,-0.8697509765625,-44.769287109375
1.7087499,7.156269073486328,-1.0606313943862915,0.12449848651885986,-32.7911376953125,0.274658203125,-43.64013671875
1.7112498999999999,7.196970462799072,-1.0295066833496094,0.16519992053508759,-33.3251953125,1.1749267578125,-42.29736328125
1.7137499,7.232883453369141,-0.993593692779541,0.19393034279346466,-33.5540771484375,1.9989013671875,-40.8935546875
1.7162499,7.2783732414245605,-0.9744400978088379,0.21787235140800476,-33.69140625,3.1585693359375,-39.7186279296875
1.7187499,7.333439826965332,-0.9768342971801758,0.2322375625371933,-34.027099609375,4.3487548828125,-38.299560546875
1.7212498999999999,7.407660007476807,-1.0079588890075684,0.24899697303771973,-34.2254638671875,5.92041015625,-37.3077392578125
1.7237499,7.489062786102295,-1.05105459690094,0.2825157940387726,-34.027099609375,7.354736328125,-36.19384765625
1.7262499,7.580042362213135,-1.0989385843276978,0.31603461503982544,-33.782958984375,8.9874267578125,-35.0189208984375
1.7287499,7.6566572189331055,-1.1300631761550903,0.363918662071228,-33.905029296875,10.3302001953125,-33.905029296875
1.7312499,7.7428483963012695,-1.1635819673538208,0.40940847992897034,-33.99658203125,11.77978515625,-32.958984375
1.7337498999999998,7.817068576812744,-1.1683704853057861,0.4429273009300232,-33.38623046875,13.3056640625,-31.9061279296875
1.7362499,7.8960771560668945,-1.1851298809051514,0.4836287498474121,-33.111572265625,15.0299072265625,-30.975341796875
1.7387499,7.965508937835693,-1.1899182796478271,0.507570743560791,-32.8216552734375,16.5863037109375,-30.09033203125
1.7412499,8.018181800842285,-1.1827356815338135,0.5339069962501526,-32.6385498046875,17.578125,-29.296875
1.7437498999999999,8.058882713317871,-1.1683704853057861,0.5410895943641663,-32.6995849609375,18.7835693359375,-28.778076171875
1.7462499,8.101978302001953,-1.161187767982483,0.5339069962501526,-32.6385498046875,20.1263427734375,-27.9998779296875
1.7487499,8.13789176940918,-1.1635819673538208,0.5051765441894531,-32.470703125,20.965576171875,-27.3284912109375
1.7512499,8.180987358093262,-1.2042834758758545,0.4620809257030487,-31.73828125,21.97265625,-26.5350341796875
1.7537498999999999,8.221688270568848,-1.2737152576446533,0.3998316824436188,-30.9295654296875,22.9339599609375,-25.8026123046875
1.7562499,8.259995460510254,-1.3646949529647827,0.33279404044151306,-29.9835205078125,23.49853515625,-24.9481201171875
1.7587499,8.29590892791748,-1.4700398445129395,0.2777273952960968,-29.144287109375,24.139404296875,-24.017333984375
1.7612499,8.329427719116211,-1.580173134803772,0.24181437492370605,-28.1219482421875,24.6429443359375,-22.735595703125
1.7637498999999999,8.355764389038086,-1.7046716213226318,0.23702596127986908,-27.1148681640625,25.0244140625,-21.8505859375
1.7662499,8.38688850402832,-1.8363527059555054,0.26096799969673157,-25.9552001953125,25.3143310546875,-20.4925537109375
1.7687499,8.4108304977417,-1.9752163887023926,0.30885201692581177,-24.6124267578125,25.421142578125,-19.0887451171875
1.7712499,8.44195556640625,-2.126051187515259,0.3687070608139038,-23.1475830078125,25.7568359375,-17.6239013671875
1.7737498999999999,8.470685958862305,-2.27209734916687,0.42377370595932007,-21.6064453125,26.1383056640625,-16.11328125
1.7762499,8.47786808013916,-2.410961151123047,0.47644615173339844,-19.6380615234375,26.42822265625,-14.251708984375
1.7787499,8.461109161376953,-2.5330653190612793,0.5027823448181152,-18.24951171875,26.4434814453125,-12.6800537109375
1.7812499,8.42040729522705,-2.6360161304473877,0.507570743560791,-16.571044921875,26.1993408203125,-10.92529296875
1.7837498999999999,8.362946510314941,-2.7222073078155518,0.4812345504760742,-14.617919921875,25.726318359375,-9.09423828125
1.7862499,8.327033042907715,-2.7988216876983643,0.4381389021873474,-12.3291015625,25.5279541015625,-7.4920654296875
1.7887499,8.305485725402832,-2.868253707885742,0.38307225704193115,-10.2081298828125,25.238037109375,-5.7525634765625
1.7912499,8.310274124145508,-2.918531894683838,0.33039984107017517,-8.3465576171875,24.993896484375,-4.241943359375
1.7937499,8.322244644165039,-2.940079689025879,0.2944868206977844,-6.622314453125,24.6734619140625,-2.8533935546875
1.7962498999999998,8.346187591552734,-2.940079689025879,0.2753331959247589,-5.31005859375,24.23095703125,-1.2359619140625
1.7987499,8.374917984008789,-2.9065608978271484,0.2753331959247589,-4.0740966796875,23.74267578125,0.1373291015625
1.8012499,8.40843677520752,-2.8586769104003906,0.2849099934101105,-3.0975341796875,23.1475830078125,1.52587890625
1.8037499,8.446743965148926,-2.806004285812378,0.30885201692581177,-2.13623046875,22.6287841796875,2.74658203125
1.8062498999999999,8.487444877624512,-2.7509377002716064,0.33518823981285095,-1.4495849609375,21.9268798828125,3.8604736328125
1.8087499,8.525752067565918,-2.7030537128448486,0.363918662071228,-1.03759765625,21.4080810546875,5.0506591796875
1.8112499,8.559270858764648,-2.6599581241607666,0.3878606855869293,-0.54931640625,20.233154296875,6.011962890625
1.8137499,8.580819129943848,-2.6240451335906982,0.4118026793003082,-0.335693359375,19.744873046875,7.049560546875
1.8162498999999999,8.592789649963379,-2.5977089405059814,0.42616790533065796,-0.5340576171875,19.22607421875,7.9193115234375
1.8187499,8.597578048706055,-2.5761611461639404,0.4381389021873474,-0.9918212890625,18.341064453125,8.941650390625
1.8212499,8.616731643676758,-2.5498247146606445,0.45010992884635925,-2.105712890625,16.4794921875,10.7574462890625
1.8237499,8.645462036132812,-2.5330653190612793,0.44532153010368347,-3.11279296875,15.9912109375,11.6729736328125
1.8262498999999999,8.69095230102539,-2.5091233253479004,0.42856210470199585,-4.364013671875,15.472412109375,12.6190185546875
1.8287499,8.7484130859375,-2.47560453414917,0.40222588181495667,-5.9814453125,14.6484375,13.641357421875
1.8312499,8.815450668334961,-2.4420857429504395,0.3687070608139038,-7.5225830078125,14.0380859375,14.7247314453125
1.8337499,8.882488250732422,-2.408566951751709,0.33279404044151306,-9.429931640625,13.4124755859375,15.68603515625
1.8362498999999999,8.947132110595703,-2.403778553009033,0.2944868206977844,-11.260986328125,12.725830078125,16.7694091796875
1.8387499,9.006986618041992,-2.410961151123047,0.2513911724090576,-13.3514404296875,11.749267578125,17.8070068359375
1.8412499,9.057265281677246,-2.4444799423217773,0.22744916379451752,-15.6707763671875,10.8184814453125,18.85986328125
1.8437499,9.100360870361328,-2.4851813316345215,0.21787235140800476,-17.9595947265625,9.796142578125,19.775390625
1.8462498999999999,9.138668060302734,-2.5258827209472656,0.22266076505184174,-20.2178955078125,8.7738037109375,20.5535888671875
1.8487499,9.174580574035645,-2.557007312774658,0.23702596127986908,-22.430419921875,7.659912109375,21.453857421875
1.8512499,9.215282440185547,-2.5737667083740234,0.24181437492370605,-24.9481201171875,6.7138671875,22.247314453125
1.8537499,9.260771751403809,-2.5737667083740234,0.2346317619085312,-27.1148681640625,5.706787109375,22.88818359375
1.8562499,9.306262016296387,-2.557007312774658,0.22744916379451752,-29.6630859375,4.5623779296875,23.6663818359375
1.8587498999999998,9.344569206237793,-2.52109432220459,0.22026655077934265,-32.2265625,3.5552978515625,24.4293212890625
1.8612499,9.375694274902344,-2.4803929328918457,0.22505496442317963,-34.8358154296875,2.5787353515625,24.810791015625
1.8637499,9.406818389892578,-2.4444799423217773,0.24181437492370605,-37.4755859375,1.7242431640625,24.9786376953125
1.8662499,9.430760383605957,-2.4157495498657227,0.2753331959247589,-39.947509765625,0.91552734375,25.1617431640625
1.8687498999999999,9.457097053527832,-2.403778553009033,0.30885201692581177,-42.236328125,0.0457763671875,25.5126953125
1.8712499,9.48343276977539,-2.3965959548950195,0.35913026332855225,-44.6014404296875,-0.7476806640625,25.6805419921875
1.8737499,9.50498104095459,-2.4013843536376953,0.40701428055763245,-46.9818115234375,-1.373291015625,25.604248046875
1.8762499,9.521739959716797,-2.4133553504943848,0.4692635238170624,-49.31640625,-2.0751953125,25.604248046875
1.8787498999999999,9.533711433410645,-2.4372973442077637,0.524330198764801,-51.6510009765625,-2.62451171875,25.3448486328125
1.8812499,9.533711433410645,-2.4636335372924805,0.5841852426528931,-53.64990234375,-3.143310546875,25.054931640625
1.8837499,9.526528358459473,-2.494758129119873,0.6416460275650024,-55.755615234375,-3.4942626953125,24.96337890625
1.8862499,9.521739959716797,-2.5306711196899414,0.689530074596405,-57.769775390625,-3.936767578125,24.627685546875
1.8887498999999999,9.502586364746094,-2.564189910888672,0.7374141216278076,-59.906005859375,-4.3792724609375,24.322509765625
1.8912499,9.485827445983887,-2.6024973392486572,0.7781155705451965,-61.6302490234375,-4.4097900390625,24.139404296875
1.8937499,9.44991397857666,-2.6431987285614014,0.8212111592292786,-63.079833984375,-4.8065185546875,24.0020751953125
1.8962499,9.406818389892578,-2.695871114730835,0.8643068075180054,-64.788818359375,-5.1116943359375,23.5595703125
1.8987498999999999,9.361329078674316,-2.7748796939849854,0.9217676520347595,-66.0858154296875,-5.3253173828125,23.0865478515625
1.9012499,9.315838813781738,-2.868253707885742,0.9744400978088379,-66.71142578125,-5.5694580078125,22.918701171875
1.9037499,9.272743225097656,-2.980781078338623,1.0342950820922852,-67.0318603515625,-5.859375,22.9034423828125
1.9062499,9.224859237670898,-3.093308687210083,1.091755986213684,-67.7490234375,-5.9661865234375,22.5372314453125
1.9087498999999999,9.08838939666748,-3.114856481552124,1.1324573755264282,-68.1304931640625,-6.3018798828125,22.5067138671875
1.9112499,8.920795440673828,-3.157952070236206,1.2090718746185303,-70.1446533203125,-7.38525390625,22.0794677734375
1.9137499,8.796297073364258,-3.181894063949585,1.2330138683319092,-71.6094970703125,-9.3841552734375,22.0947265625
1.9162499,8.719682693481445,-3.2609026432037354,1.292868971824646,-69.6868896484375,-9.09423828125,22.491455078125
1.9187499,8.774748802185059,-3.40216064453125,1.3287819623947144,-69.2596435546875,-7.9498291015625,22.2625732421875
1.9212498999999998,8.87051773071289,-3.5386300086975098,1.3694833517074585,-68.7255859375,-7.354736328125,22.1099853515625
1.9237499,8.939949035644531,-3.641580820083618,1.4269442558288574,-68.4356689453125,-7.14111328125,22.2320556640625
1.9262499,8.944737434387207,-3.663128614425659,1.460463047027588,-68.023681640625,-6.7138671875,22.5830078125
1.9287499,8.89445972442627,-3.6822822093963623,1.5179238319396973,-67.7337646484375,-6.89697265625,22.5372314453125
1.9312498999999999,8.858546257019043,-3.670311212539673,1.525106430053711,-67.2760009765625,-6.8359375,22.735595703125
1.9337499,8.822632789611816,-3.691859006881714,1.5538369417190552,-65.5517578125,-6.0577392578125,23.1475830078125
1.9362499,8.834604263305664,-3.7253777980804443,1.558625340461731,-64.3310546875,-4.69970703125,23.5595703125
1.9387499,8.860940933227539,-3.7612907886505127,1.5634137392044067,-62.9119873046875,-3.875732421875,23.9105224609375
1.9412498999999999,8.87291145324707,-3.7876269817352295,1.580173134803772,-61.5081787109375,-3.2958984375,24.2919921875
1.9437499,8.858546257019043,-3.804386615753174,1.601720929145813,-60.11962890625,-2.5787353515625,24.749755859375
1.9462499,8.813055992126465,-3.801992416381836,1.6400281190872192,-58.3648681640625,-1.89208984375,25.0396728515625
1.9487499,8.7484130859375,-3.7852327823638916,1.6927006244659424,-56.70166015625,-1.251220703125,25.6805419921875
1.9512498999999999,8.676587104797363,-3.758896589279175,1.745373010635376,-55.3741455078125,-0.9002685546875,26.06201171875
1.9537499,8.427590370178223,-3.5960910320281982,1.843535304069519,-54.046630859375,-0.1068115234375,26.336669921875
1.9562499,8.362946510314941,-3.5410242080688477,1.900996208190918,-53.192138671875,-1.617431640625,26.55029296875
1.9587499,8.271966934204102,-3.4117374420166016,1.944091796875,-53.8787841796875,-1.3427734375,27.1148681640625
1.9612498999999999,8.427590370178223,-3.4404678344726562,1.968033790588379,-50.59814453125,0.5950927734375,27.7557373046875
1.9637499,8.705317497253418,-3.552995204925537,2.0254945755004883,-48.4161376953125,2.777099609375,27.923583984375
1.9662499,9.01895809173584,-3.689464807510376,2.094926595687866,-45.3338623046875,5.06591796875,28.3050537109375
1.9687499,9.227252960205078,-3.8307228088378906,2.250549554824829,-42.3431396484375,6.500244140625,28.4881591796875
1.9712498999999999,9.32541561126709,-3.8977603912353516,2.389413356781006,-40.3900146484375,7.8582763671875,28.717041015625
1.9737499,9.299078941345215,-3.8977603912353516,2.5330653190612793,-38.818359375,8.6822509765625,28.717041015625
1.9762499,9.210494041442871,-3.847482204437256,2.631227731704712,-37.2314453125,9.5367431640625,28.8238525390625
1.9787499,9.064447402954102,-3.7612907886505127,2.7126305103302,-35.58349609375,10.223388671875,28.839111328125
1.9812499,8.96149730682373,-3.713406801223755,2.7509377002716064,-34.271240234375,11.29150390625,28.7017822265625
1.9837499,8.892065048217773,-3.7158010005950928,2.7676970958709717,-32.6995849609375,12.3443603515625,28.594970703125
1.9862499,8.887276649475098,-3.8067808151245117,2.7724854946136475,-30.242919921875,14.0228271484375,28.289794921875
1.9887499,8.923190116882324,-3.952826976776123,2.7748796939849854,-26.824951171875,15.8538818359375,28.045654296875
1.9912499,8.949525833129883,-4.108449935913086,2.765302896499634,-23.712158203125,17.6239013671875,27.8778076171875
1.9937498999999999,8.913613319396973,-4.213795185089111,2.7485435009002686,-21.331787109375,18.6920166015625,27.3590087890625
1.9962499,8.793902397155762,-4.252102375030518,2.7102363109588623,-19.622802734375,18.9971923828125,26.91650390625
1.9987499,8.619126319885254,-4.235342979431152,2.6647465229034424,-18.2342529296875,19.2413330078125,26.5655517578125
2.0012499,8.449137687683105,-4.218583583831787,2.6001031398773193,-16.7694091796875,19.5159912109375,26.397705078125
2.0037499,8.327033042907715,-4.242525577545166,2.5282769203186035,-14.9993896484375,20.08056640625,25.8636474609375
2.0062499,8.271966934204102,-4.3191399574279785,2.4444799423217773,-12.7716064453125,20.6756591796875,25.1617431640625
2.0087498999999998,8.267178535461426,-4.436455726623535,2.365471363067627,-10.6353759765625,21.240234375,24.8870849609375
2.0112499,8.283937454223633,-4.568136692047119,2.2840683460235596,-8.6212158203125,21.4691162109375,24.6734619140625
2.0137499,8.300697326660156,-4.6950297355651855,2.2242133617401123,-6.8359375,21.8505859375,24.1851806640625
2.0162499,8.305485725402832,-4.793191909790039,2.1763293743133545,-4.8828125,21.9573974609375,23.9105224609375
2.0187499,8.29830265045166,-4.862623691558838,2.145204782485962,-3.11279296875,21.942138671875,23.6968994140625
2.0212499,8.281543731689453,-4.896142482757568,2.123656988143921,-1.0833740234375,21.8048095703125,23.13232421875
2.0237499,8.271966934204102,-4.900930881500244,2.10210919380188,0.5035400390625,21.7437744140625,22.369384765625
2.0262499,8.269572257995605,-4.886565685272217,2.0877439975738525,2.01416015625,21.4080810546875,22.0489501953125
2.0287498999999998,8.327033042907715,-4.857835292816162,2.0685901641845703,4.8828125,20.69091796875,20.660400390625
2.0312499,8.35336971282959,-4.850652694702148,2.0829553604125977,6.40869140625,20.3094482421875,20.233154296875
2.0337499,8.40843677520752,-4.853046894073486,2.099714994430542,8.0718994140625,20.08056640625,19.744873046875
2.0362499,8.437167167663574,-4.836287498474121,2.123656988143921,9.5977783203125,19.5770263671875,19.3023681640625
2.0387499,8.468291282653809,-4.802768707275391,2.142810583114624,10.3302001953125,19.2108154296875,18.6614990234375
2.0412499,8.492233276367188,-4.742913722991943,2.1475989818573,11.260986328125,18.829345703125,18.1732177734375
2.0437499,8.508993148803711,-4.661510944366455,2.1380221843719482,11.3372802734375,17.9595947265625,17.7001953125
2.0462499,8.528146743774414,-4.575319290161133,2.1284453868865967,11.53564453125,17.5628662109375,17.0745849609375
2.0487499,8.53293514251709,-4.479551315307617,2.097320795059204,11.65771484375,16.9219970703125,16.78466796875
2.0512498999999997,8.544905662536621,-4.400542736053467,2.070984363555908,11.2152099609375,16.3421630859375,16.357421875
2.0537499,8.573636054992676,-4.3191399574279785,2.027888774871826,10.31494140625,16.021728515625,15.960693359375
2.0562499,8.616731643676758,-4.24970817565918,1.9847931861877441,9.857177734375,15.6707763671875,15.655517578125
2.0587499,8.683769226074219,-4.189853191375732,1.9345149993896484,8.5906982421875,15.3045654296875,15.6097412109375
2.0612499,8.746018409729004,-4.134786128997803,1.8818424940109253,7.781982421875,15.0146484375,15.533447265625
2.0637499,8.798690795898438,-4.098873138427734,1.8363527059555054,6.4849853515625,14.4500732421875,15.4571533203125
2.0662499,8.83939266204834,-4.065354347229004,1.7860745191574097,5.5694580078125,13.8397216796875,15.380859375
2.0687499,8.860940933227539,-4.048594951629639,1.7597382068634033,4.2877197265625,13.6566162109375,15.3045654296875
2.0712498999999998,8.860940933227539,-4.02465295791626,1.7142484188079834,2.86865234375,12.969970703125,15.5487060546875
2.0737499,8.877699851989746,-3.993528366088867,1.6831238269805908,1.1749267578125,12.2833251953125,15.625
2.0762499,8.892065048217773,-3.9647979736328125,1.659181833267212,-0.823974609375,12.51220703125,15.380859375
2.0787499,8.947132110595703,-3.9384617805480957,1.6280571222305298,-3.0364990234375,12.542724609375,15.2740478515625
2.0812499,9.011775016784668,-3.93367338180542,1.6280571222305298,-4.6844482421875,12.237548828125,15.4876708984375
2.0837499,9.069235801696777,-3.950432777404785,1.6304513216018677,-5.8746337890625,11.9476318359375,15.5487060546875
2.0862499,9.105149269104004,-3.974374771118164,1.6304513216018677,-7.5836181640625,11.4898681640625,15.3961181640625
2.0887499,9.121908187866211,-4.01268196105957,1.6400281190872192,-9.33837890625,11.0931396484375,15.3656005859375
2.0912498999999998,9.136273384094238,-4.048594951629639,1.6400281190872192,-10.528564453125,10.68115234375,15.472412109375
2.0937499,9.153033256530762,-4.110844135284424,1.6519991159439087,-11.7034912109375,10.345458984375,15.3961181640625
2.0962499,9.162610054016113,-4.185064792633057,1.6663644313812256,-13.2293701171875,9.796142578125,15.1214599609375
2.0987499,9.172186851501465,-4.280832767486572,1.6879122257232666,-14.007568359375,9.3231201171875,15.0299072265625
2.1012499,9.169792175292969,-4.388571739196777,1.7190368175506592,-14.495849609375,8.819580078125,14.7247314453125
2.1037499,9.172186851501465,-4.49870491027832,1.7381904125213623,-15.228271484375,8.575439453125,14.4805908203125
2.1062499,9.181763648986816,-4.611232280731201,1.7621324062347412,-15.44189453125,8.0413818359375,14.46533203125
2.1087499,9.198522567749023,-4.714183330535889,1.7812861204147339,-15.80810546875,7.7667236328125,14.4805908203125
2.1112499,9.217676162719727,-4.812345504760742,1.800439715385437,-16.2353515625,7.568359375,14.251708984375
2.1137498999999997,9.232041358947754,-4.912901878356934,1.821987509727478,-16.357421875,6.9580078125,13.9007568359375
2.1162499,9.23682975769043,-5.015852451324463,1.8555063009262085,-16.1895751953125,6.3018798828125,13.702392578125
2.1187499,9.232041358947754,-5.128379821777344,1.8962076902389526,-15.655517578125,5.92041015625,13.5345458984375
2.1212499,9.217676162719727,-5.228936672210693,1.9369091987609863,-15.07568359375,5.401611328125,13.153076171875
2.1237499,9.21288776397705,-5.327098846435547,1.9919757843017578,-14.34326171875,5.0048828125,12.8021240234375
2.1262499,9.21288776397705,-5.406107425689697,2.032677173614502,-13.5040283203125,4.5318603515625,12.5732421875
2.1287499,9.232041358947754,-5.48272180557251,2.0925323963165283,-12.542724609375,4.1961669921875,12.2528076171875
2.1312499,9.255983352661133,-5.556941986083984,2.1380221843719482,-11.5509033203125,4.0283203125,11.8408203125
2.1337498999999998,9.29189682006836,-5.623979568481445,2.185906171798706,-10.31494140625,3.6468505859375,11.4288330078125
2.1362499,9.32302188873291,-5.688623428344727,2.229001760482788,-9.0179443359375,3.3416748046875,11.23046875
2.1387499,9.35654067993164,-5.75326681137085,2.2673089504241943,-7.568359375,3.11279296875,10.7269287109375
2.1412499,9.38048267364502,-5.808333396911621,2.3104045391082764,-5.9814453125,2.86865234375,10.467529296875
2.1437499,9.399636268615723,-5.868188381195068,2.346317768096924,-4.302978515625,2.5634765625,9.918212890625
2.1462499,9.41400146484375,-5.916072368621826,2.38462495803833,-2.5177001953125,2.2735595703125,9.6435546875
2.1487499,9.418789863586426,-5.961562156677246,2.408566951751709,-0.732421875,2.1209716796875,9.368896484375
2.1512499,9.41400146484375,-5.9974751472473145,2.4229321479797363,1.312255859375,1.861572265625,8.880615234375
2.1537498999999998,9.404424667358398,-6.0190229415893555,2.4205379486083984,2.777099609375,1.5411376953125,8.72802734375
2.1562499,9.378087997436523,-6.033388137817383,2.403778553009033,4.5623779296875,1.190185546875,8.4686279296875
2.1587499,9.349357604980469,-6.026205539703369,2.3750481605529785,6.256103515625,1.03759765625,8.1939697265625
2.1612499,9.311050415039062,-6.01423454284668,2.33913516998291,7.843017578125,0.6866455078125,7.9498291015625
2.1637499,9.279925346374512,-5.983109951019287,2.300827741622925,9.27734375,0.3509521484375,7.7056884765625
2.1662499,9.251194953918457,-5.9304375648498535,2.250549554824829,10.5133056640625,-0.1220703125,7.3699951171875
2.1687499,9.229647636413574,-5.863399982452393,2.2026655673980713,11.810302734375,-0.5340576171875,7.080078125
2.1712499,9.210494041442871,-5.770026206970215,2.1356279850006104,12.8936767578125,-0.6103515625,6.6680908203125
2.1737499,9.191340446472168,-5.664681434631348,2.0685901641845703,13.6260986328125,-0.8697509765625,6.3934326171875
2.1762499,9.165003776550293,-5.542576789855957,1.9967641830444336,14.3280029296875,-1.3275146484375,6.103515625
2.1787499,9.138668060302734,-5.427655220031738,1.9321208000183105,14.5721435546875,-1.3885498046875,5.615234375
2.1812499,9.124302864074707,-5.319916248321533,1.8842366933822632,14.7552490234375,-1.8157958984375,5.2947998046875
2.1837499,9.107542991638184,-5.224148273468018,1.8507179021835327,15.1214599609375,-1.9683837890625,5.0048828125
2.1862499,9.090784072875977,-5.142745018005371,1.8339585065841675,15.0909423828125,-1.9989013671875,4.57763671875
2.1887499,9.07641887664795,-5.061342239379883,1.8148049116134644,14.9688720703125,-2.4566650390625,4.058837890625
2.1912499,9.035717010498047,-4.965574264526367,1.802833914756775,14.984130859375,-2.655029296875,3.692626953125
2.1937499,9.009381294250488,-4.886565685272217,1.7860745191574097,14.2364501953125,-2.8839111328125,3.0517578125
2.1962498999999998,8.987833023071289,-4.778826713562012,1.7573440074920654,13.6260986328125,-3.204345703125,2.4261474609375
2.1987499,8.980650901794434,-4.680664539337158,1.7357962131500244,12.7716064453125,-3.4942626953125,1.922607421875
2.2012499,8.990227699279785,-4.577713489532471,1.7046716213226318,12.0849609375,-3.35693359375,1.2664794921875
2.2037499,8.990227699279785,-4.469974517822266,1.678335428237915,10.80322265625,-3.265380859375,0.5340576171875
2.2062499,8.99740982055664,-4.3861775398254395,1.6496049165725708,9.58251953125,-3.387451171875,-0.244140625
2.2087499,8.98543930053711,-4.309563159942627,1.623268723487854,8.2855224609375,-3.662109375,-0.91552734375
2.2112499,8.971074104309082,-4.256890773773193,1.599326729774475,7.232666015625,-3.753662109375,-1.0833740234375
2.2137499,8.944737434387207,-4.201824188232422,1.5658079385757446,6.011962890625,-3.7841796875,-1.6326904296875
2.2162498999999998,8.908824920654297,-4.151545524597168,1.5466543436050415,4.3792724609375,-3.7841796875,-2.2735595703125
2.2187499,8.856152534484863,-4.089296340942383,1.5179238319396973,2.716064453125,-3.8604736328125,-2.6702880859375
2.2212499,8.793902397155762,-4.031835556030273,1.4987702369689941,0.9765625,-3.9825439453125,-3.021240234375
2.2237499,8.741230010986328,-3.9911341667175293,1.4628572463989258,-1.2054443359375,-4.058837890625,-3.3416748046875
2.2262499,8.683769226074219,-3.955221176147461,1.4245500564575195,-3.0670166015625,-4.058837890625,-3.5247802734375
2.2287499,8.652645111083984,-3.9480385780334473,1.3766659498214722,-5.0811767578125,-4.241943359375,-3.6163330078125
2.2312499,8.614337921142578,-3.93367338180542,1.3263877630233765,-6.8817138671875,-4.3792724609375,-3.6163330078125
2.2337499,8.588001251220703,-3.936067581176758,1.280897855758667,-8.9874267578125,-4.5166015625,-3.7841796875
2.2362499,8.561665534973145,-3.9193081855773926,1.237802267074585,-10.80322265625,-4.3792724609375,-3.9520263671875
2.2387499,8.520963668823242,-3.8762125968933105,1.1803414821624756,-14.7857666015625,-4.8065185546875,-4.119873046875
2.2412499,8.49941635131836,-3.8498764038085938,1.170764684677124,-16.448974609375,-4.7760009765625,-4.1046142578125
2.2437499,8.47786808013916,-3.8307228088378906,1.1659762859344482,-18.24951171875,-4.913330078125,-4.2877197265625
2.2462499,8.456320762634277,-3.823540210723877,1.1635819673538208,-19.7296142578125,-5.31005859375,-4.0283203125
2.2487499,8.432378768920898,-3.8139634132385254,1.1635819673538208,-21.270751953125,-5.5999755859375,-4.2572021484375
2.2512499,8.418013572692871,-3.821146011352539,1.173158884048462,-22.857666015625,-5.767822265625,-4.39453125
2.2537499,8.42040729522705,-3.825934410095215,1.1851298809051514,-24.3377685546875,-5.8746337890625,-4.5623779296875
2.2562499,8.429984092712402,-3.8498764038085938,1.2186486721038818,-25.7568359375,-6.072998046875,-4.638671875
2.2587498999999998,8.451532363891602,-3.8786067962646484,1.259350061416626,-27.0843505859375,-6.3018798828125,-4.730224609375
2.2612499,8.470685958862305,-3.9217023849487305,1.3120225667953491,-28.0303955078125,-6.500244140625,-4.33349609375
2.2637499,8.492233276367188,-3.976768970489502,1.3718775510787964,-29.205322265625,-6.4239501953125,-4.33349609375
2.2662499,8.516175270080566,-4.034229755401611,1.4173674583435059,-29.998779296875,-6.439208984375,-4.4097900390625
2.2687499,8.537723541259766,-4.0964789390563965,1.455674648284912,-30.670166015625,-6.3018798828125,-4.4708251953125
2.2712499,8.552088737487793,-4.141968727111816,1.479616641998291,-31.18896484375,-6.2713623046875,-4.45556640625
2.2737499,8.564059257507324,-4.185064792633057,1.4915876388549805,-31.8603515625,-6.256103515625,-4.0740966796875
2.2762499,8.564059257507324,-4.220977783203125,1.50355863571167,-32.3486328125,-5.9967041015625,-3.875732421875
2.2787498999999998,8.564059257507324,-4.259284973144531,1.5083470344543457,-32.745361328125,-5.8441162109375,-3.8909912109375
2.2812499,8.561665534973145,-4.307168960571289,1.5107412338256836,-33.14208984375,-5.4931640625,-3.6773681640625
2.2837499,8.544905662536621,-4.343081951141357,1.501164436340332,-33.02001953125,-5.340576171875,-3.4332275390625
2.2862499,8.530540466308594,-4.381389141082764,1.4844050407409668,-33.111572265625,-5.1727294921875,-3.265380859375
2.2887499,8.51138687133789,-4.41969633102417,1.4700398445129395,-33.0657958984375,-5.126953125,-3.2196044921875
2.2912499,8.480262756347656,-4.455609321594238,1.4700398445129395,-32.65380859375,-5.0506591796875,-3.0517578125
2.2937499,8.453926086425781,-4.522646903991699,1.482010841369629,-32.318115234375,-5.0201416015625,-2.7008056640625
2.2962499,8.432378768920898,-4.60165548324585,1.5179238319396973,-31.982421875,-4.9285888671875,-2.50244140625
2.2987499,8.42040729522705,-4.697423934936523,1.5466543436050415,-31.0516357421875,-4.82177734375,-2.13623046875
2.3012499,8.42040729522705,-4.802768707275391,1.5753847360610962,-30.0445556640625,-4.608154296875,-1.922607421875
2.3037499,8.432378768920898,-4.908113479614258,1.599326729774475,-29.0374755859375,-4.5166015625,-1.5716552734375
2.3062499,8.44195556640625,-4.999093055725098,1.6065093278884888,-27.7557373046875,-4.4403076171875,-1.0833740234375
2.3087499,8.439560890197754,-5.082890033721924,1.623268723487854,-26.519775390625,-4.1656494140625,-0.6866455078125
2.3112499,8.437167167663574,-5.1595048904418945,1.6352397203445435,-25.2532958984375,-3.9825439453125,-0.335693359375
2.3137499,8.422801971435547,-5.22175407409668,1.6400281190872192,-24.078369140625,-3.8909912109375,0.1678466796875
2.3162499,8.40843677520752,-5.286397457122803,1.6424223184585571,-22.6593017578125,-3.35693359375,0.579833984375
2.3187499,8.396465301513672,-5.327098846435547,1.6328455209732056,-21.0113525390625,-3.448486328125,0.9765625
2.3212498999999998,8.38449478149414,-5.3582234382629395,1.6160861253738403,-19.378662109375,-3.4027099609375,1.40380859375
2.3237499,8.379706382751465,-5.374982833862305,1.6041151285171509,-17.63916015625,-3.1890869140625,1.8463134765625
2.3262499,8.374917984008789,-5.394136428833008,1.5897499322891235,-16.11328125,-3.0517578125,2.166748046875
2.3287499,8.377311706542969,-5.406107425689697,1.5873557329177856,-14.4195556640625,-3.0364990234375,2.4566650390625
2.3312499,8.394071578979492,-5.430049419403076,1.5921441316604614,-13.00048828125,-3.0059814453125,2.838134765625
2.3337499,8.413225173950195,-5.4444146156311035,1.5945383310317993,-10.8489990234375,-2.7618408203125,3.021240234375
2.3362499,8.44195556640625,-5.473145008087158,1.6112977266311646,-8.8653564453125,-2.6702880859375,3.5400390625
2.3387499,8.468291282653809,-5.4875102043151855,1.6328455209732056,-7.2174072265625,-2.5482177734375,3.9520263671875
2.3412498999999998,8.482656478881836,-5.504269599914551,1.6543933153152466,-5.523681640625,-2.2430419921875,3.96728515625
2.3437499,8.482656478881836,-5.504269599914551,1.6735470294952393,-3.6773681640625,-2.0751953125,4.5623779296875
2.3462499,8.470685958862305,-5.4875102043151855,1.6735470294952393,-2.38037109375,-1.983642578125,4.8370361328125
2.3487499,8.449137687683105,-5.463568210601807,1.6639702320098877,-0.762939453125,-1.800537109375,5.126953125
2.3512499,8.425195693969727,-5.430049419403076,1.6496049165725708,0.42724609375,-1.5411376953125,5.5084228515625
2.3537499,8.401253700256348,-5.389348030090332,1.6112977266311646,1.6021728515625,-1.5869140625,5.6610107421875
2.3562499,8.379706382751465,-5.353435039520264,1.5825673341751099,2.716064453125,-1.7852783203125,5.9051513671875
2.3587499,8.360552787780762,-5.305551052093506,1.525106430053711,3.72314453125,-1.52587890625,5.92041015625
2.3612499,8.343792915344238,-5.257667064666748,1.4676456451416016,4.547119140625,-1.5869140625,6.1492919921875
2.3637499,8.334216117858887,-5.202600479125977,1.400607943534851,5.157470703125,-1.4495849609375,6.4544677734375
2.3662499,8.315062522888184,-5.142745018005371,1.3263877630233765,5.5694580078125,-1.40380859375,6.7138671875
2.3687499,8.29830265045166,-5.085284233093262,1.259350061416626,5.9661865234375,-1.495361328125,6.622314453125
2.3712499,8.279149055480957,-5.023035049438477,1.192312479019165,6.195068359375,-1.40380859375,6.622314453125
2.3737499,8.259995460510254,-4.9583916664123535,1.1420341730117798,6.16455078125,-1.739501953125,7.0648193359375
2.3762499,8.245630264282227,-4.900930881500244,1.0989385843276978,6.0577392578125,-2.044677734375,7.0648193359375
2.3787499,8.238448143005371,-4.841075897216797,1.0654197931289673,6.011962890625,-2.1514892578125,6.988525390625
2.3812499,8.243236541748047,-4.786009311676025,1.039083480834961,5.7373046875,-2.2430419921875,7.3394775390625
2.3837498999999998,8.255207061767578,-4.747702121734619,1.0127472877502441,4.852294921875,-2.38037109375,7.476806640625
2.3862499,8.269572257995605,-4.707000732421875,0.9888052940368652,4.0435791015625,-2.4871826171875,7.4615478515625
2.3887499,8.288725852966309,-4.680664539337158,0.9696516990661621,3.4027099609375,-2.5634765625,7.659912109375
2.3912499,8.293514251708984,-4.651933670043945,0.9481038451194763,2.5787353515625,-2.899169921875,7.7362060546875
2.3937499,8.300697326660156,-4.6255974769592285,0.9241618514060974,1.5716552734375,-2.777099609375,7.7362060546875
2.3962499,8.303091049194336,-4.599261283874512,0.9097966551780701,0.457763671875,-3.2196044921875,7.75146484375
2.3987499,8.312667846679688,-4.580107688903809,0.8954314589500427,-0.67138671875,-3.326416015625,7.87353515625
2.4012499,8.322244644165039,-4.568136692047119,0.8906430602073669,-1.9683837890625,-3.326416015625,7.720947265625
2.4037498999999998,8.339004516601562,-4.565742492675781,0.8954314589500427,-3.0975341796875,-3.4637451171875,7.6141357421875
2.4062499,8.346187591552734,-4.565742492675781,0.9050082564353943,-4.364013671875,-3.387451171875,7.4920654296875
2.4087499,8.35097599029541,-4.572925090789795,0.9169792532920837,-5.4931640625,-3.6468505859375,7.5836181640625
2.4112499,8.348581314086914,-4.577713489532471,0.9289502501487732,-6.8511962890625,-3.631591796875,7.75146484375
2.4137499,8.336610794067383,-4.58968448638916,0.9361328482627869,-8.3770751953125,-3.7384033203125,7.5836181640625
2.4162499,8.317456245422363,-4.6040496826171875,0.933738648891449,-9.674072265625,-3.8909912109375,7.6904296875
2.4187499,8.288725852966309,-4.623203277587891,0.9241618514060974,-10.9405517578125,-3.7994384765625,7.7056884765625
2.4212499,8.26478385925293,-4.654327869415283,0.9002198576927185,-12.2528076171875,-3.8909912109375,7.9193115234375
2.4237499,8.24084186553955,-4.692635536193848,0.8667010068893433,-13.671875,-3.753662109375,8.056640625
2.4262499,8.224082946777344,-4.73573112487793,0.8331822156906128,-14.862060546875,-4.0740966796875,8.148193359375
2.4287499,8.212111473083496,-4.778826713562012,0.7948749661445618,-16.265869140625,-4.1961669921875,8.331298828125
2.4312499,8.200140953063965,-4.829104900360107,0.7589619159698486,-17.39501953125,-4.0740966796875,8.880615234375
2.4337499,8.190564155578613,-4.874594688415527,0.7326257228851318,-18.4783935546875,-4.119873046875,9.033203125
2.4362499,8.183381080627441,-4.922478675842285,0.7110779285430908,-19.71435546875,-4.119873046875,8.9263916015625
2.4387499,8.17141056060791,-4.967968463897705,0.7015010714530945,-20.660400390625,-4.0740966796875,8.97216796875
2.4412499,8.157045364379883,-5.018246650695801,0.7038952708244324,-21.6217041015625,-3.96728515625,9.09423828125
2.4437499,8.142680168151855,-5.063736438751221,0.7015010714530945,-22.3541259765625,-4.08935546875,9.552001953125
2.4462498999999998,8.097189903259277,-5.169081687927246,0.7134721279144287,-23.6663818359375,-3.8909912109375,9.5672607421875
2.4487499,8.058882713317871,-5.22175407409668,0.7230489253997803,-24.5208740234375,-3.7078857421875,9.552001953125
2.4512499,8.015787124633789,-5.281609058380127,0.7182605266571045,-24.96337890625,-3.7689208984375,9.7198486328125
2.4537499,7.967903137207031,-5.343858242034912,0.7110779285430908,-25.3143310546875,-3.90625,9.796142578125
2.4562499,7.927201747894287,-5.413290023803711,0.6967126727104187,-25.6805419921875,-3.8909912109375,9.9639892578125
2.4587499,7.884106159210205,-5.48272180557251,0.6775590777397156,-25.909423828125,-3.9825439453125,10.1318359375
2.4612499,7.843404769897461,-5.544970989227295,0.6512228846549988,-26.3214111328125,-3.662109375,9.979248046875
2.4637499,7.805097579956055,-5.604825973510742,0.6105214357376099,-26.4739990234375,-3.5552978515625,10.1470947265625
2.4662498999999998,7.7643961906433105,-5.659893035888672,0.5530605912208557,-26.55029296875,-3.7841796875,10.55908203125
2.4687499,7.718906402587891,-5.710171222686768,0.47884035110473633,-26.7791748046875,-3.60107421875,10.80322265625
2.4712499,7.675810813903809,-5.758055210113525,0.3974374830722809,-26.8096923828125,-3.570556640625,11.016845703125
2.4737499,7.627926826477051,-5.7987565994262695,0.31364041566848755,-26.8707275390625,-3.5552978515625,11.474609375
2.4762499,7.577648162841797,-5.834669589996338,0.2322375625371933,-27.0843505859375,-3.5552978515625,11.7340087890625
2.4787499,7.534552574157715,-5.853823184967041,0.15322890877723694,-27.313232421875,-3.326416015625,12.14599609375
2.4812499,7.486668586730957,-5.8657941818237305,0.07661445438861847,-27.5726318359375,-3.448486328125,12.4664306640625
2.4837499,7.445967197418213,-5.870582580566406,0.0071826050989329815,-27.9388427734375,-3.326416015625,12.7105712890625
2.4862499,7.402871608734131,-5.868188381195068,-0.05746084079146385,-28.1219482421875,-3.2806396484375,13.2904052734375
2.4887499,7.3669586181640625,-5.861005783081055,-0.10773907601833344,-28.564453125,-3.0517578125,13.4124755859375
2.4912499,7.338228225708008,-5.841852188110352,-0.14844051003456116,-29.1595458984375,-2.7923583984375,13.85498046875
2.4937499,7.307103633880615,-5.815515995025635,-0.17956513166427612,-30.0445556640625,-2.593994140625,14.3280029296875
2.4962499,7.2783732414245605,-5.779603004455566,-0.2106897532939911,-31.0821533203125,-2.166748046875,14.5721435546875
2.4987499,7.24485445022583,-5.743690013885498,-0.2513911724090576,-31.92138671875,-1.6632080078125,15.0299072265625
2.5012499,7.2113356590271,-5.70777702331543,-0.30885201692581177,-32.9132080078125,-1.251220703125,15.3961181640625
2.5037499,7.175422668457031,-5.669469833374023,-0.3711012601852417,-34.210205078125,-0.6256103515625,15.838623046875
2.5062499,7.132327079772949,-5.628767967224121,-0.4429273009300232,-35.5987548828125,-0.1068115234375,16.3421630859375
2.5087498999999998,7.084442615509033,-5.583278179168701,-0.5123591423034668,-37.04833984375,0.579833984375,16.8304443359375
2.5112499,7.024587631225586,-5.542576789855957,-0.5841852426528931,-38.5894775390625,1.1444091796875,17.303466796875
2.5137499,6.962338447570801,-5.494692802429199,-0.6631938815116882,-40.2984619140625,1.8157958984375,17.669677734375
2.5162499,6.890512466430664,-5.453991413116455,-0.7469909191131592,-42.144775390625,2.7008056640625,18.37158203125
2.5187499,6.8162922859191895,-5.408501625061035,-0.8307880163192749,-43.914794921875,3.3416748046875,18.9361572265625
2.5212499,6.737283706665039,-5.377377033233643,-0.9097966551780701,-46.0205078125,4.2724609375,19.4091796875
2.5237499,6.660669326782227,-5.339069843292236,-0.993593692779541,-47.9736328125,5.37109375,20.08056640625
2.5262499,6.584054470062256,-5.307945251464844,-1.0773907899856567,-50.10986328125,6.134033203125,20.6298828125
2.5287498999999998,6.509834289550781,-5.2696380615234375,-1.1563993692398071,-52.215576171875,6.988525390625,21.0723876953125
2.5312499,6.421248912811279,-5.231330871582031,-1.2306196689605713,-54.50439453125,7.9803466796875,22.03369140625
2.5337499,6.327875137329102,-5.195417881011963,-1.3048399686813354,-56.8084716796875,8.880615234375,22.7508544921875
2.5362499,6.22731876373291,-5.161899089813232,-1.3694833517074585,-58.9447021484375,10.0250244140625,23.37646484375
2.5387499,6.124367713928223,-5.135562419891357,-1.4413094520568848,-60.882568359375,10.9710693359375,24.47509765625
2.5412499,6.026205539703369,-5.114014625549316,-1.50355863571167,-62.9119873046875,11.932373046875,25.2838134765625
2.5437499,5.925649166107178,-5.094861030578613,-1.5634137392044067,-65.277099609375,12.9852294921875,26.1688232421875
2.5462499,5.827486991882324,-5.080495834350586,-1.6160861253738403,-67.2149658203125,14.0228271484375,27.1148681640625
2.5487499,5.7125654220581055,-5.066130638122559,-1.656787633895874,-69.1680908203125,15.3961181640625,28.1982421875
2.5512499,5.5976433753967285,-5.054159641265869,-1.6950948238372803,-71.2890625,16.4947509765625,29.296875
2.5537499,5.463568210601807,-5.044582843780518,-1.7262194156646729,-73.089599609375,17.852783203125,30.303955078125
2.5562499,5.250484466552734,-4.965574264526367,-1.802833914756775,-74.9664306640625,19.34814453125,31.5399169921875
2.5587499,5.061342239379883,-4.898536682128906,-1.7908629179000854,-78.094482421875,20.08056640625,32.470703125
2.5612499,4.821922302246094,-4.766855716705322,-1.8363527059555054,-81.695556640625,20.6298828125,33.5845947265625
2.5637499,4.683058738708496,-4.7405195236206055,-1.8195933103561401,-83.3587646484375,21.942138671875,35.1104736328125
2.5662499,4.6040496826171875,-4.78122091293335,-1.8291701078414917,-83.8165283203125,24.0631103515625,36.895751953125
2.5687499,4.55616569519043,-4.912901878356934,-1.8555063009262085,-83.648681640625,26.1993408203125,38.330078125
2.5712498999999998,4.489128112792969,-5.037400245666504,-1.8794482946395874,-83.9080810546875,27.9541015625,39.8101806640625
2.5737499,4.333505153656006,-5.099649429321289,-1.8962076902389526,-85.296630859375,29.296875,41.6107177734375
