# Time (seconds),Accel_X,Accel_Y,Accel_Z,Gyro_X,Gyro_Y,Gyro_Z
0.0012499,6.981351833995343,-6.811651957839114,1.474812219870504,2.715558954149875,-5.5717199364447545,4.929594390251749
0.0112499,6.956987345819701,-6.81774614828689,1.4258344270603704,2.7970407768663104,-4.779089621268809,4.902595550262913
0.0212499,6.93631551937291,-6.8306015753178695,1.4216081816282338,3.2551860676051905,-4.008382987911023,4.84504913621065
0.0312498999999999,6.958238250945248,-6.813477605975872,1.4497106220732878,3.5913393803413527,-3.2163669958675487,4.747481292028469
0.0412499,6.996669940624087,-6.778476479680793,1.4784930500805458,3.7713969168974892,-2.2821400272326358,4.474538929694837
0.0512499,6.99706020901786,-6.7608996508601855,1.5176700204871696,3.691451160048867,-1.2773630160480993,4.215887146073109
0.0612498999999999,6.95872191107829,-6.761222071685283,1.5407855032787785,3.4057998112800614,-0.42768118288480084,4.06772455063348
0.0712499,6.933547092702794,-6.738792066285712,1.542750052090696,3.1316374174489683,0.22295660301266462,3.6776006943813293
0.0812499,6.908966613451043,-6.712199812073947,1.5459586495472126,3.0183695150765635,0.6910832665655618,3.3675878604479568
0.0912499,6.896380791911637,-6.714286785377611,1.564089761929089,2.9698507389820463,0.7918849448167018,3.0744452707217924
0.1012499,6.9386567691842425,-6.7263740987818945,1.6062994844834302,2.9749696123770506,0.7486821567127016,2.927758268357346
0.1112499,6.989884294761022,-6.714754949907731,1.6430419927602835,3.073999467716156,0.7021553849748763,3.0952958782539532
0.1212499,7.026991691235194,-6.712429405329893,1.6838680802278156,2.9845738278579184,0.4883281838342678,3.294080134545193
0.1312499,7.087740117763353,-6.734854507529357,1.7121922422950513,2.760981061889175,0.1457320254551067,3.475595710398121
0.1412499,7.113407271437581,-6.745369694642582,1.7056407418477435,2.682102363300167,-0.28982882964356976,3.654587666640396
0.1512499,7.096396539164421,-6.747848156825579,1.6928083578862456,2.461371917256784,-1.0175609799441436,3.659891197129573
0.1612499,7.102101335003756,-6.757842065111126,1.7095739393234843,1.832697772654467,-1.9067433774976943,3.744885958166342
0.1712499,7.094725768666509,-6.778235688246758,1.6874855233109234,0.9758169474280611,-2.6693249721277947,3.921512425255809
0.1812499,7.096520192076621,-6.774038578049964,1.6409252878909226,-0.2090519701360904,-3.396322129228049,3.847417224936052
0.1912499,7.114615122766917,-6.782073800264571,1.6600010240511305,-1.4757256051177028,-4.0894373179392325,3.4735573778028273
0.2012499,7.150209178473492,-6.824731196284124,1.7002655260990287,-2.1953280063004033,-4.532838403414748,2.9936459337073114
0.2112499,7.1980400664323785,-6.868400227206113,1.7024058628485017,-2.360344418469513,-4.931366924716797,2.2604804687304565
0.2212499,7.209730136085041,-6.926507463284031,1.6894547908583217,-2.1033263288649398,-5.400505937087285,1.4362708685010495
0.2312499,7.184689564227062,-7.004751231110909,1.693803094245445,-1.3618794361945834,-5.795749058036481,0.9230070229955355
0.2412499,7.175396766283372,-7.039158524517941,1.6936252449244724,-0.4433693565857557,-5.9687554273847665,0.4148564312049336
0.2512499,7.178454554377521,-7.023698866088198,1.6592222194606912,0.48754577019816914,-6.143601710765181,-0.03632517616683157
0.2612499,7.141776250584828,-7.002426800461215,1.6188270161727172,1.2029204158445836,-6.38710541366672,-0.49693850802326744
0.2712499,7.122420026163782,-6.956704939012872,1.5934084499635306,1.5147057770679224,-6.474593399884598,-1.062500603992077
0.2812499,7.122119217220973,-6.875417425470013,1.5349243450585515,1.4578916440018455,-6.471986780040082,-1.6675963359702868
0.2912499,7.095030123436034,-6.783956304791795,1.4582353295802113,0.959090379398856,-6.4902529902755255,-2.429879256830462
0.3012499,7.061754177788631,-6.7265139306253845,1.40752411283738,0.05495946974583061,-6.534083713036528,-3.1154614970036154
0.3112499,7.047064557575145,-6.7023343172385745,1.4049628881612646,-0.9186031134437489,-6.419988370967364,-3.626721648252264
0.3212499,7.0365265681656375,-6.672782912235642,1.3884559353031203,-1.8280381074151302,-6.253639922497307,-4.073818182654992
0.3312499,7.018739207021533,-6.666249567599907,1.3548717599127473,-2.440204230446164,-6.063334822092511,-4.438257200333755
0.3412499,7.003274510774938,-6.705823195807387,1.3304781566000807,-2.512926237962151,-5.750127253912614,-4.552070326718932
0.3512499,6.995005583403897,-6.719114346000834,1.337301584919048,-2.1372738587998223,-5.408582434430189,-4.336036983120235
0.3612499,7.006796218188453,-6.691158755993021,1.375949424517874,-1.6224269349828793,-4.876766987604505,-3.965575196677684
0.3712499,6.998571813293036,-6.667170561108132,1.373214293950034,-0.9132262857969451,-4.130615300975078,-3.468204831731947
0.3812499,6.950126734896208,-6.630850246686174,1.3335658240053156,-0.050020280500527675,-3.3914367858407757,-3.1443619054399354
0.3912499,6.917224890281634,-6.633941705281222,1.3073044903245132,0.6221906405890745,-2.6178100522514405,-2.8124701927818645
0.4012499,6.903414443463773,-6.6563212873456585,1.348247680543594,1.105285946654951,-1.919328545537016,-2.2726841259223876
0.4112499,6.877518874269383,-6.635228354096942,1.405749153768268,1.5516075153916318,-1.218924168333323,-1.6850087537866145
0.4212499,6.853653137869569,-6.582539099028464,1.3858088999824985,1.8407125849949038,-0.4115909297453817,-1.119353002980167
0.4312499,6.8401389898215115,-6.535146996618307,1.3216105563612575,1.8863021268680582,0.18412340964460483,-0.6759559855410241
0.4412499,6.810064466870698,-6.515505448190245,1.3001654497636654,1.6752522108391292,0.5789016161402298,-0.15331553901806788
0.4512499,6.796787501369534,-6.5067046053968465,1.3021589493884065,1.26799890252118,1.0098931571310092,0.417299813716584
0.4612499,6.78986009924597,-6.49618282592211,1.2862315207154351,0.8513933445646609,1.5525197813255458,1.1315331167387286
0.4712499,6.777692442313399,-6.498691678421806,1.2958206362712394,0.2859310547683351,2.036172259379147,1.9086846609611856
0.4812499,6.798223084870933,-6.540988156347934,1.3327677526292743,-0.27327601176679533,2.630836973106139,2.674132380051581
0.4912499,6.82200883546837,-6.630963505666862,1.3691873488159518,-0.518588401868217,3.3686304292727893,3.4864869941771364
0.5012499,6.794578153251955,-6.7164552146717655,1.3918460797382048,-0.28392639974455613,3.9536383439189087,4.254021639143677
0.5112499,6.752734221582244,-6.787146479513273,1.3877062996597447,0.07066344208110434,4.459399790232563,4.842595958232589
0.5212499,6.716000874443501,-6.855056660749853,1.3805441763674116,0.4723271304662616,4.987995240785598,5.463518778675002
0.5312499,6.665127194100197,-6.9005326064516925,1.3754119302010617,0.8637530475732813,5.21012842907331,5.895344429641658
0.5412499000000001,6.63978050893586,-6.891364987716311,1.35391095661352,0.8845287459689729,5.481885281424094,6.181777766935443
0.5512499000000001,6.6281031379366935,-6.861390766154174,1.346219551850074,0.5498987610143099,5.904402264947173,6.534544624336198
0.5612499000000001,6.6129712868815655,-6.846024744557012,1.3341590809048405,-0.2947669045881115,6.410033920940312,6.773213992826809
0.5712499000000001,6.603279474376741,-6.818313195490826,1.3095194209170162,-1.4409677294692294,6.825002223474896,6.996799434440537
0.5812499,6.624327344154126,-6.8200071679229355,1.3138900488508776,-2.446573678754479,7.235250396519683,7.228842433453728
0.5912499,6.712607136334011,-6.8637510064439535,1.352191940100095,-3.4983160960725153,8.037718034149727,7.560773378982348
0.6012499,6.792072439349357,-6.903246711496555,1.3767418595002747,-3.946258964582167,9.004496497478181,8.032393247276719
0.6112499,6.839713242684614,-6.946570903873635,1.4000912893642181,-3.907694739993303,9.88059629835011,8.494084924419246
0.6212499,6.896590836493053,-7.008239484384086,1.4211570113853493,-3.7590967877034833,10.73876281188887,8.804809854882617
0.6312499,6.938081094843815,-7.0538847883628,1.4307666103563905,-3.336982616840721,11.576996804076394,8.932396025474176
0.6412499,6.9464660613274924,-7.096984139800701,1.4579655336662651,-2.6017721530864297,12.164121894140278,8.989852281242909
0.6512499,6.938228359707983,-7.107492009753798,1.4539583660411144,-1.8905905074679619,12.664397243132015,8.93588455490259
0.6612499000000001,6.96868552368466,-7.081510954450672,1.4236057614020332,-1.846303148474153,13.329752235077397,8.970399873794065
0.6712499000000001,7.021937082333079,-7.071698841425199,1.414797481161115,-2.229211559386269,13.89614269393579,8.792291271060332
0.6812499000000001,7.099094096881024,-7.035177980681973,1.443780426465102,-2.8926327382937504,14.294839859844554,8.323890237781047
0.6912499000000001,7.155777617325243,-7.018437012510017,1.4732208797876736,-3.7611419237270494,14.325585288098992,7.854805762534687
0.7012499000000001,7.169562397367757,-7.048652541204227,1.4784220582027197,-4.465789251358559,13.945012330974047,7.539945767726055
0.7112499,7.184495809843362,-7.077592109613085,1.4725397578587185,-5.033235797524756,13.221987409036,7.241240083518605
0.7212499,7.139220242529061,-7.089757701196174,1.4476839755609878,-5.8393396894543175,12.229572675266198,6.779388424594405
0.7312499,7.120464560938576,-7.055863556128663,1.434388951541904,-7.145809882236471,10.939917836425735,6.135061212120481
0.7412499,7.206113104787359,-7.0473717091950565,1.4831182806509222,-9.110773453218645,9.611896467497568,5.3551884163132115
0.7512499,7.208139519736475,-7.14446472613044,1.5441431457254744,-11.16571516615163,8.516383624127071,4.62734125733533
0.7612499,7.130561821050542,-7.236283895686177,1.5134211120029726,-12.807500485142715,7.946970631928408,3.9758130588996976
0.7712499,7.054997032588348,-7.277233581153987,1.4250358534349892,-14.152523956525906,7.399633754092726,2.8683208043466237
0.7812499,7.032135657492437,-7.294325319892743,1.367005551169867,-15.543963815517653,7.0353706679491195,1.7666008397382444
0.7912499000000001,6.943971708175675,-7.3575190119160965,1.2813201839321324,-16.435672709580736,7.095745096615977,0.6868411796384747
0.8012499000000001,6.855599527259453,-7.4131039018221285,1.2247216759374784,-17.203470976830257,7.692397037585506,-0.40923844526542297
0.8112499000000001,6.867107757729461,-7.319255561208895,1.1603024561189685,-18.833351827747116,8.95204227538748,-0.9967814999610672
0.8212499000000001,6.738999801982528,-7.322115659319006,1.0739906739743528,-19.471067602472537,10.04749658890095,-1.6092799992209674
0.8312499000000001,6.614399699161399,-7.361043024540652,1.0342030826520223,-18.949923967567397,11.399493427974022,-2.1523963365401877
0.8412499,6.598279181042068,-7.24868098515675,1.0457021613402557,-18.826244509672446,13.01839721560456,-2.4365550651857713
0.8512499,6.633080352503118,-7.225241174920894,1.0808936640434788,-17.864402991118958,15.034130875312554,-2.524765113217546
0.8612499,6.562971519718346,-7.20043041341466,1.1223770700286932,-16.345977869525644,17.168338007827987,-2.153290757405153
0.8712499,6.484369956996046,-7.045408931845995,1.1655726499180357,-15.355473125881884,19.45172875778586,-1.3576658548686416
0.8812499,6.47446233535001,-6.888575630900216,1.244758037344295,-14.439965673177422,21.77227824000307,-0.7337580557018304
0.8912499,6.434612503846561,-6.839026016302295,1.367605941336166,-13.07745184651154,23.427604411517045,-0.06402114663879087
0.9012499,6.33522124792101,-6.8657386396630695,1.4047097553302899,-11.598561248786183,24.365087540091636,1.105933589106488
0.9112499,6.222598428917908,-6.849521432407459,1.4364264403751423,-10.706812591944187,24.865476058196307,2.587973459282691
0.9212499,6.1364140281398205,-6.80623679634347,1.595056794593391,-10.274380320087136,25.050720890614365,3.6868103610028258
0.9312499,6.017880846809026,-6.781861193425343,1.7142287598433916,-9.845365120744267,24.77122288271983,4.385387313161195
0.9412499,5.93294566396803,-6.715831841393497,1.6815336717298115,-10.441210040844219,24.249656969063206,5.139065645098485
0.9512499,5.957129268304424,-6.681453785821202,1.6495293730263458,-11.8235151653574,23.574038747327954,5.893949373843386
0.9612499,6.02882913527555,-6.737932821818145,1.7393226520819463,-13.580211890647995,22.83762188132761,6.5138175938262295
0.9712499,6.07123638092205,-6.753515065667353,1.8011052106862175,-15.824840962104805,22.411365900141046,7.254063872886028
0.9812499,6.106075284064862,-6.720161872065588,1.749163572201497,-18.319609282480084,22.451235124642523,7.73595739165636
0.9912499,6.1798929326400325,-6.793438321735709,1.7766610285171744,-20.24855727362011,22.47965644468978,7.872730945343129
1.0012499,6.281833576590369,-6.97097657641479,1.9022982115654237,-21.087952523547532,22.620293802334032,7.746282003432879
1.0112499,6.397755193790269,-7.150634503984179,2.006948770017829,-20.51344480980816,23.364773678144527,7.781844546412062
1.0212499,6.492783215196,-7.29669995767804,2.1071533072677666,-18.646975403793423,24.22789193631232,7.881507154485759
1.0312499,6.526419534736028,-7.373003708332932,2.1905997892967033,-16.138677985942756,24.725567606781173,7.84814952255229
1.0412499,6.5650009969060115,-7.379196758467295,2.1965851096174625,-13.302969613005104,25.087969125129987,7.922699615095845
1.0512499,6.646205163266305,-7.333776913307708,2.161204746316161,-10.179215223019268,25.224021710651577,7.97251130427254
1.0612499,6.749899491159776,-7.305040146199744,2.181125269281602,-7.128616218854884,25.120002720264534,7.792377322983655
1.0712499,6.827141347991961,-7.2718805878697035,2.2157118008864285,-4.469623824393396,24.736176573315376,7.818903739263646
1.0812499,6.856278637721056,-7.2139838297899335,2.1852719471605146,-2.662108557648627,24.044742851826427,7.803698237471079
1.0912499,6.874566338753423,-7.184367592501574,2.138991732925521,-1.669556898514092,23.044388010896817,7.496873116029514
1.1012499,6.882068605032874,-7.159834216483132,2.1365770072227166,-1.3894209413149192,21.636533612015686,7.243323292212901
1.1112499,6.895269627385046,-7.1494694688742895,2.1250881813927602,-1.8650695296789748,20.15819546189309,6.914452251567684
1.1212499,6.932617910948275,-7.12116267955919,2.067479677814874,-2.9700051330114268,18.444293691541965,6.381427567027752
1.1312499,6.957444989931577,-7.09905127869032,2.0396704357945956,-4.34069914949097,16.305660504241935,5.699274613789341
1.1412499,6.951788199206711,-7.118413801455364,2.0485706959793712,-5.576599610916858,14.300027864849266,4.986390612192754
1.1512499,6.967888234915286,-7.1451889168518425,2.0402583159725185,-6.695485959699594,12.311435076256322,4.236732292885282
1.1612498999999998,6.975720285659273,-7.1957888813387125,2.044063382813352,-7.261349447232837,10.058171780237215,3.459734911722786
1.1712498999999998,6.943291496245524,-7.243605072570765,2.0559763272295903,-7.208512159019831,7.992922383716526,2.8212000878224393
1.1812499,6.890088767054766,-7.271894478819623,2.0577132109944714,-6.573430802451357,6.200454870325413,2.4754838411037667
1.1912499,6.876258501992269,-7.294787414909392,2.0679177767523207,-5.6642177516795025,4.329906474713039,2.2213009319763204
1.2012499,6.9199887885007705,-7.2805709566009735,2.072421433618621,-4.625551494685424,2.786245474657392,1.9471294465548534
1.2112499,6.9310534021716546,-7.268492711406473,2.1066108968228567,-3.369212096901152,1.57651496936224,1.6430222986868077
1.2212499,6.909279635086566,-7.277893348651262,2.1379759783207803,-2.073381554575767,0.5377039274741693,1.454005473674681
1.2312499,6.878144534620226,-7.245308145393734,2.0919455075722064,-0.9075759891889338,-0.5455274279250597,1.1233124561141996
1.2412499,6.789111679961016,-7.2142552092308705,2.064126821452921,-0.08217683116765567,-1.544271188959009,0.7762080110110076
1.2512499,6.689758777183786,-7.224126024047404,2.093417406520477,0.6512919405525702,-2.4039205525009146,0.4933654751126759
1.2612499,6.62832796142321,-7.220981893136375,2.0768466606359897,1.3851970122239639,-3.3653332164600887,-0.05171277503974464
1.2712499,6.564119269738079,-7.205783468160182,2.055858329045337,2.137647497650885,-4.317568392723554,-0.640773278091381
1.2812499,6.520493903047653,-7.198807060080454,2.0749535944145405,2.697280193566429,-5.162801356881325,-1.038780449317794
1.2912499,6.483482290069937,-7.189643686304058,2.088245333647511,3.443349178460767,-5.985997591879123,-1.2312394369691968
1.3012499,6.422489932110629,-7.156855811545811,2.0928837610853526,4.263581789256229,-6.815255673006487,-1.2803750271119998
1.3112499,6.393753256486731,-7.069870653136623,2.0788908558919923,4.671768254930286,-7.632770521837185,-1.1532584039566955
1.3212499,6.355386997287701,-7.013456319395892,2.05231907060301,4.844067110783906,-8.29424542101023,-0.7159259787050499
1.3312499,6.326675371125477,-7.046461096783636,2.021299409760573,5.216910364998999,-8.763320687046784,-0.10159720307676952
1.3412499,6.3686900617524405,-7.08659068837262,2.032389071295875,5.959652790366051,-9.264378954273628,0.7153530405311814
1.3512499,6.430218431244308,-7.099561876962705,2.1037570207979606,7.215697042933633,-9.870184853319575,1.5188180176958237
1.3612499,6.4271181800056,-7.1053549963921885,2.0983270327740398,8.787740427657562,-10.342000835947482,2.175789681366267
1.3712499,6.410402025246905,-7.088207884690968,2.0138749645656984,10.133556350446115,-10.863262233704514,2.8638982878387766
1.3812499,6.412429065025018,-7.076216586161849,1.9845434574726952,11.121642530337342,-11.56026410056228,3.3226085268279233
1.3912499,6.412086846347409,-7.067504630650292,2.0091773493106975,11.678276286077237,-12.162765236866974,3.6622586709674745
1.4012499,6.408523957385199,-7.056560933970827,1.9959932342138311,11.702974847501585,-12.749569673999321,3.7565825453323187
1.4112498999999998,6.408888313289372,-7.08133494665572,1.9434631691176174,11.451609863542497,-13.296664399211528,3.612576450737039
1.4212498999999998,6.426500840192726,-7.138670168057909,1.9532936113242783,11.317912097303106,-13.868227281282161,3.577211743164831
1.4312499,6.439064030034901,-7.204316194489019,2.0215087595576846,11.2562224381975,-14.238479371733055,3.6566785183672077
1.4412499,6.437011527772052,-7.272900293457652,2.012371620558216,11.458606910188067,-14.63767520934882,3.8551364448474206
1.4512499,6.436937220060959,-7.322928824771329,1.9793291813939615,11.953300644218828,-14.9730183426801,3.9942779001286604
1.4612499,6.453491692154141,-7.341239408464715,2.0047684336302667,12.63088498774268,-15.073749280304218,3.7946932831540154
1.4712499,6.482348798265898,-7.369531366451817,2.0265545308084674,13.547279686288958,-15.153323881150188,3.4700303925418297
1.4812499,6.47619609014751,-7.393746510238533,2.00634524771584,14.560666273434078,-15.21973030774643,3.2943009267801586
1.4912499,6.468847092079673,-7.373981007553005,1.94775166936647,15.660232425421775,-15.325384465812487,3.357717576742612
1.5012499,6.466102431704641,-7.33729677858725,1.9015772128092754,16.52650950321927,-15.299404498755257,3.3754620560769792
1.5112499,6.42081933759527,-7.312392788871045,1.9087517322671996,17.028824086305665,-15.393493822597284,3.2504317517913712
1.5212499,6.378148297640212,-7.296930834347578,1.8779846056511391,17.203822489113982,-15.581154529827996,3.173207453264143
1.5312499,6.369233987574949,-7.288603082494767,1.8240865839442886,17.092754503115177,-15.847275484463905,3.078339987024316
1.5412499,6.385024875803108,-7.274759154698005,1.7952153952243641,16.61073399049782,-16.146124306962204,3.102245613649984
1.5512499,6.396621667654787,-7.246659288446501,1.7607953267386383,15.750303516387445,-16.41412138735177,3.398906271485525
1.5612499,6.398893891937218,-7.215207610511858,1.8010520210373493,14.742593203461347,-16.58433275516863,3.5800448623837875
1.5712499,6.4202122963499,-7.200090578405112,1.8568497632703083,13.762015580601052,-16.34846805512865,3.5268385131238422
1.5812499,6.392137609179289,-7.268288338263224,1.832219169007173,13.205105558439241,-16.266378987347007,3.688927335841071
1.5912499,6.349358118233223,-7.347745335534323,1.803211451993431,13.184134181317308,-16.38247520205451,3.746113632087446
1.6012499,6.331944659665529,-7.38027927903043,1.8285528110856584,13.422227651414493,-16.248452607850844,3.8067726719985733
1.6112499,6.297300572668902,-7.41116146705336,1.8723703405352454,13.843815832126257,-16.191144998298512,4.0248232063471345
1.6212499,6.273552521810528,-7.447851166082405,1.8864997246198538,14.482646468588186,-16.145486630395816,4.051411068050772
1.6312499,6.2584568782225825,-7.456385687001781,1.8760450531176291,15.02839697445389,-16.03218975859908,4.1711366423897935
1.6412499,6.26233009357599,-7.432278906458314,1.8682846135255573,15.12832733832567,-15.860374105631854,4.2634833217032435
1.6512499,6.313756768991812,-7.389754830150778,1.8859184715768416,14.851074644348085,-15.5803790301634,4.025805513160914
1.6612499,6.335026643581498,-7.376628592016541,1.9435947087845338,14.625038518704155,-15.265801676889895,3.829243351341534
1.6712498999999998,6.296435901983883,-7.427119550238209,1.9791311137117924,14.74186462285536,-15.03374346158817,3.765208652191895
1.6812499,6.270408975786258,-7.46895796450474,1.9426858384458194,14.967893229792303,-14.968318152143917,3.616849720576391
1.6912499,6.255105841835743,-7.4850628176479965,1.8988703107832645,15.310026174665662,-15.122177942925402,3.462815682840167
1.7012499,6.248898845304008,-7.482156573167162,1.8820461288730639,15.442941186006385,-15.220100855704684,3.404720534119146
1.7112499,6.290933575554325,-7.425203046667504,1.883973528017925,14.875653442128616,-15.24854996128268,3.3695974628719925
1.7212499,6.390067995371827,-7.364525418849949,1.8852608874299026,14.14837597733457,-15.221515752835778,3.0114406853567917
1.7312499,6.483977136621748,-7.386939023913238,1.92551320056798,13.586382471058556,-14.935875101157944,2.4406641154812063
1.7412499,6.497409406247602,-7.435822164132627,1.961994644249362,13.236458625608964,-14.608545276592334,1.7988525200957104
1.7512499,6.468148085248473,-7.488407502508152,1.9508377137769193,13.386460729973674,-14.45945772203468,1.1471330493644891
1.7612499,6.439930164615733,-7.5473996172562305,1.921159981833551,14.095391985703616,-14.390676310928772,0.5470268330045466
1.7712499,6.442498936039403,-7.546325909334104,1.901962785188695,15.096818684329827,-14.415042759968173,0.042776073517835696
1.7812499,6.478509881391308,-7.516550806543876,1.9184053486008734,15.780770924179441,-14.339597534982476,-0.7937468910063088
1.7912499,6.486927025883607,-7.4926225205676795,1.9131023413541355,15.895077295613664,-14.056702759915948,-1.5105116717486275
1.8012499,6.467357779644937,-7.439928061152901,1.8323308584036815,15.391701438665487,-13.575851277314207,-1.818906998251404
1.8112499,6.427312966307744,-7.369214205684707,1.780290837426206,14.22949799395986,-13.274380024060186,-2.1444383689955457
1.8212499,6.364263135391173,-7.286951160576134,1.7783861281635949,12.658958646471081,-13.04260881831568,-2.4623364182002816
1.8312499,6.327503378872648,-7.232489098198408,1.7715410206027773,11.019839133524622,-12.718853719448639,-2.697050621743611
1.8412499,6.336044251888567,-7.2391611036787165,1.774799785222225,9.857997697760474,-12.44003869908594,-2.8675753126441106
1.8512499,6.352334499836208,-7.293173579422792,1.817320606880812,9.37354583804271,-12.341224869476294,-2.812972403043513
1.8612499,6.373875101932491,-7.357002076018856,1.8694358769424708,9.470341336716947,-11.9203453760886,-2.4382906772957256
1.8712499,6.345974716424732,-7.369709569228222,1.89681156249664,9.962855893125699,-11.425611069489669,-2.0390713598407055
1.8812499,6.32407018108785,-7.377301234060619,1.8984642356986308,10.60523978594874,-11.131350982074727,-1.8855823546257933
1.8912499,6.336299712158331,-7.386207801394222,1.8716527046140672,11.482262751649849,-10.939371983317026,-1.5889179503111945
1.9012499,6.292663252375497,-7.336481828993214,1.8506134246165922,11.874093190527677,-10.935737283014962,-1.181522106778983
1.9112499,6.230611160140223,-7.244213974977294,1.8183025262772932,11.510695723124645,-10.866142771668393,-0.9132873038346075
1.9212499,6.214555681305826,-7.167274876026665,1.7733421000502687,10.744867342090123,-10.710890602143069,-0.7124904676017765
1.9312499,6.2551826529049075,-7.140812886299152,1.7818693462363053,9.658549154341511,-10.531370751441571,-0.6286956348808139
1.9412499,6.299602781146337,-7.15937402040479,1.8132055041042674,8.700116413636598,-10.36097315803955,-0.49756019117615846
1.9512499,6.3148064025861235,-7.216496762341395,1.8215313638056791,7.982289731988629,-10.099861981702349,-0.30834615921496406
1.9612499,6.311743946827013,-7.2656806280530155,1.8229749072967787,7.524640005599561,-9.810648318129633,-0.09631187796720296
1.9712499,6.25327774440034,-7.247565224697067,1.804436065136302,7.071694331123644,-9.531202057190107,0.20573544585994508
1.9812499,6.1897950662547085,-7.181379675907066,1.7643191073945483,6.108832662002984,-9.082654070490264,0.37502824485557074
1.9912499,6.143919669754001,-7.187838416975177,1.753367275066713,5.069991731445199,-8.467613183931874,0.5829782438061749
2.0012499,6.103900914314602,-7.234524517240926,1.7662616630118062,4.25028797259191,-7.66845347336595,0.8897268055906737
2.0112499,6.1131612455702475,-7.252187580785039,1.7302875781140525,3.473403569987725,-6.781747758127442,1.3172023334111649
2.0212499,6.118583665738117,-7.277455632190064,1.6944280285327307,2.5340654366534063,-5.889181185085288,1.8183079980286867
2.0312499,6.097579525648075,-7.283036948596934,1.6858765281825268,1.8243186538045992,-4.961456089683418,2.577439317387975
2.0412499,6.085968429035707,-7.274711871937443,1.6284421870544035,1.1401635735786357,-3.935332356564776,3.6014675105933307
2.0512499,6.035549946820153,-7.288957078173515,1.5470744671545635,-0.0560401156997771,-2.87350503458364,4.720292462245801
2.0612499,5.971183012669484,-7.28817956083963,1.4957356363729288,-1.6924132829125091,-1.7575970419766596,5.689140474177277
2.0712499,5.885861937092572,-7.2521903593413946,1.3586868530226732,-4.380253640393625,-0.438126476497021,6.430129682118024
2.0812499,5.807156058557704,-7.24116130912585,1.2102751718991815,-7.92906720851226,0.9851206610913967,6.831113847993927
2.0912499,5.793393731134683,-7.313017305157873,1.1603904656637805,-11.422028017096167,2.5510716772713153,7.151468725200149
2.1012499,5.752698885607496,-7.4371253710033915,1.1156901821733984,-14.926165142874613,4.506727835477853,7.7242580199826945
2.1112499,5.653549786410268,-7.602442878886717,1.03888716082335,-18.019050858272635,6.621197850788696,8.510260687220077
2.1212499,5.549469112376514,-7.7467519887837115,0.9475390642250363,-20.594435229138316,8.847760919881596,9.45628089312507
2.1312499,5.436136653432949,-7.817261861260999,0.8623686742216202,-22.8471306403647,11.432542077089636,10.423540583329014
2.1412499,5.319433200409855,-7.8397730483466805,0.7536797141205189,-24.698757811148578,14.18688857368599,11.529328031297075
2.1512499,5.219808720385974,-7.8368734682636605,0.6303016102814691,-26.246072286232362,17.233805510866446,12.63852164385806
2.1612499,5.03641163380943,-7.854741779559333,0.4646823503888891,-27.278525121354352,20.378640737240282,14.201376822994188
2.1712499,4.807901978997443,-7.815486823928628,0.311463955424711,-28.098477270768107,23.5266872733324,16.74436516992166
2.1812499,4.569231218702848,-7.709644558613921,0.13762194953853005,-28.82379440666945,27.107862813873048,20.13038090772473
2.1912499,4.266205269925254,-7.549549940732063,-0.09491257989596039,-29.369843257894445,30.29802307563084,24.361102884919127
2.2012499,4.040835897126038,-7.209095369918278,-0.27141798065128886,-30.71695526125499,33.57480228933033,29.528343422138327
2.2112499,3.8116685871814555,-6.757623523119364,-0.48074744184692375,-33.23677308724565,37.61260696040557,35.50782346019856
2.2212499,3.507440156956652,-6.282558736542845,-0.7545057071346314,-36.84365200209353,41.98571054342956,42.36941388912686
2.2312499,3.268214388438312,-5.841233880494514,-0.9199846989346275,-41.36956374636106,46.81840923070854,50.612660861136106
2.2412499,3.081323737575949,-5.459631606313791,-0.9533240532611525,-46.254804296280916,52.33093984404654,59.86634731480504
2.2512499,2.80278954208297,-5.095757324481835,-0.9626827247160342,-50.55713428392974,58.207818696764186,69.59736206304005
2.2612499,2.3123452920143612,-4.756093330582057,-0.9852448276201854,-53.71288157204363,63.828744322159736,80.39801209150029
2.2712499,1.6229489737909102,-4.528664368461204,-0.9989193171268597,-55.178659113728926,69.09970490727135,92.48757853628454
2.2812499,0.8754686744121699,-4.474555705181952,-0.8496804433255946,-53.447674132096544,74.69362022696554,107.97665773809003
2.2912499,0.2629633405244831,-4.403718684507202,-0.6197988513632998,-48.126571580879535,80.0335303215904,124.84691205495527
2.3012499,-0.14776670511359677,-4.296789136046078,-0.46721872497345646,-40.15267194022969,83.88169935095759,139.7963547088501
2.3112499,-0.3628915347897413,-4.273508898316402,-0.1991055271337233,-29.843559051388787,87.59752719761906,155.24575712743297
2.3212499,-0.36563307164328473,-4.191734026258656,0.17231572941206372,-18.647876542388637,92.47653463537422,171.53404632426657
2.3312499,-0.22424757601164524,-3.95432089748565,0.5032947557203094,-8.2000222730474,98.43085243379731,188.0042708743945
2.3412499,-0.13701698578841226,-3.6705042935772534,0.8322588969349317,0.7747846186864079,105.26439922993418,204.65337310622672
2.3512499,-0.2577749004555714,-3.4578354931988193,1.1249695882019362,7.864810314951537,113.08873449710224,221.91251493110096
2.3612499,-0.4507726207794014,-3.3662122969479524,1.4072869511619777,12.127573977359823,121.45388753200113,239.4015084199586
2.3712499,-0.5628576025996834,-3.318902213246356,1.7400042039819419,13.667003937828039,129.33974799083668,255.73584698529322
2.3812499,-0.7538354284738928,-3.3876797099591602,2.0595771669716436,12.314185581363082,135.53047150962675,269.88924816056243
2.3912499,-1.1326509956441009,-3.8946521668834237,2.562280216045698,8.759410690869398,139.69932666934355,281.9554771498356
2.4012499,-1.5606222317294522,-4.796350827311488,3.386120859493879,4.082845262739106,141.89783854156335,292.2991731142858
2.4112499,-1.9631368043117914,-5.691725209606535,4.252312232937158,-2.6887080559312593,142.10981810477557,300.298490160559
2.4212499,-2.417813975759665,-6.448523454780356,5.1439505370906975,-11.107251448625785,139.7547020823494,305.00765463478575
2.4312499,-2.811423472614323,-7.450479615491914,6.47440771268033,-20.77225729934801,134.69340428282848,306.84016339664714
2.4412499,-2.9839481077187413,-8.847762500902983,7.827348674961542,-30.856501359002117,128.03556773810664,306.57326729873415
2.4512499,-3.0944620741121667,-10.628926130782448,9.068895854009181,-40.00846277460898,118.51139257711473,304.82280911569893
2.4612499,-2.797271915725976,-13.184288213798421,10.609288231192076,-44.023241544395475,106.7794932758667,301.76535385733496
2.4712499,-1.6514883205939366,-15.932407015234089,12.197075395298093,-38.83364268700248,94.4951722359464,296.3414952782989
2.4812499,0.19130777777583813,-18.37523188257215,14.074755239490576,-25.82148210190985,80.1415311994593,287.4223149796552
2.4912499,2.4893674849197023,-21.512209593759298,16.518788736368897,1.6707819277557454,58.72351751168228,271.0087274412089
2.5012499,5.006610024371383,-25.319128628999174,18.714804592343164,49.976179703155864,26.58081079359873,243.51211834699262
2.5112499,7.174814305717705,-27.76841284186053,19.77521240025764,105.32673102778436,-9.883225723856036,209.82982218721386
2.5212499,8.526122726270966,-28.46064614780845,20.152473080634508,160.89692905709282,-51.76215919608869,169.11423012708187
2.5312499,8.863852116941702,-28.067558688630832,20.740494470136344,205.4566793239077,-99.07086941429701,122.8840757966637
2.5412499,8.528884282615667,-26.93085968677842,21.72363207564311,224.7424296333214,-149.16338203941686,76.55909367574287
2.5512499,8.035247475761851,-25.56635329612317,22.986708520865005,215.16162848497038,-201.32657575109965,31.01208195966807
2.5612499,7.770346854753224,-24.33424776352314,24.68947669221548,178.1184592893027,-253.76403952629607,-15.920725055265123
2.5712499,7.111452621337718,-23.60358713355568,27.29168580154788,119.57272155396002,-304.51378489672646,-67.91846327021067
2.5812499,4.836571364128469,-24.354157929817244,31.005844282423833,53.804343165340576,-353.3114344617655,-132.24395899474524
2.5912499,0.7375611345015024,-27.888492335977773,35.40707435653526,3.5145437238784494,-398.7540676123824,-210.79017348174722
2.6012499,-4.735744236321077,-35.015448147506035,39.85756046965643,-4.9461475884032415,-443.46402557137174,-297.933258797561
2.6112499,-11.173192649941548,-44.77949155006581,41.658598455743224,47.2834656957104,-485.27230826697945,-382.3888146616296
2.6212499,-17.570403229832625,-52.39180207325493,38.360967103511086,146.08287596895144,-501.5123118497659,-448.34645148657796
2.6312499,-23.14323952796091,-52.36779348122241,31.885392607448114,231.54841276655432,-499.6827761672469,-486.8810515793888
2.6412499,-28.838228796551544,-45.92945237993051,25.06107264129944,259.987091667961,-499.9035336178022,-499.7275131719608
2.6512499,-34.847344432715076,-37.575215236692024,16.721012632220837,230.42201122896324,-500.42054978046315,-492.51709271239923
2.6612499,-37.57314825842446,-27.268306592943578,6.438932652661876,150.90717657193937,-498.7406451144916,-474.01241556373407
2.6712499,-36.09776415463793,-14.207602408178811,-1.7262044891401593,34.043894224823845,-502.6447074787171,-460.61118500010645
2.6812499,-34.942864121470336,-5.463886049405375,-4.732993049350582,-67.21009693777168,-492.20077923103526,-442.7846336378292
2.6912499,-38.26170225832081,-5.693515687986277,-8.114320376015444,-89.08266856708829,-424.445371190444,-381.3384225116956
2.7012499,-39.502650583129345,-6.809441436654419,-16.583380945415975,-38.03172036070182,-345.8245582865352,-259.01965385504036
2.7112499,-31.579562421125353,2.1088785507445547,-21.08898092273681,6.9754841384488,-284.6847310937481,-121.12210251354946
2.7212499,-23.264603894575277,12.475190079179,-17.6369329597159,-5.127181154699286,-221.08688447549372,-45.71231835562868
2.7312499,-18.71963250782855,13.468507149506605,-13.44675305274435,-44.96197020854225,-156.07749109278737,-7.239462618086602
2.7412499,-14.949342284877048,9.121069441349846,-10.157788978176919,-84.38004026302451,-99.96935189346598,33.543286254162574
2.7512499,-12.130229069727243,4.83450516599097,-5.746643283070397,-110.89857220639901,-55.26123129150721,60.999574422720194
2.7612499,-9.93040818817721,0.8305671147183502,-1.811619744226436,-114.6000877227868,-25.157010856224726,68.36257505762904
2.7712499,-6.863858894020274,-3.310552080441209,0.5515457987620969,-102.2413703318085,-9.154496925100654,66.20781144573075
2.7812499,-2.2885322945734137,-6.094131634013762,2.392457478027718,-86.83164105871381,0.41027801274670883,59.07166720859127
2.7912499,2.3669488866723216,-6.627084784935404,3.4297097085564547,-73.17957589850857,8.347010819275217,46.643056352716094
2.8012499,5.68954887812747,-6.231195782349532,3.692917497300088,-64.81859582541402,11.391540353059385,32.64143015124291
2.8112499,8.479380038941601,-6.595398512280976,4.538057920329943,-58.261062967195436,12.036001356216914,19.932250618383996
2.8212499,10.724100328495235,-7.3225245077697245,5.332956281849897,-47.77839672375125,13.379604758982534,8.312132322254094
2.8312499,11.815680511232086,-7.339882025951356,5.099768201224054,-36.930592679657124,13.941260145448027,-2.303693508285795
2.8412499,12.238627999775916,-6.933769599758206,4.5816209221502655,-29.199156758824383,11.867860285108321,-12.33921673616123
2.8512499,12.391513970918481,-6.669326037240002,4.440657006261777,-22.930297986643094,7.96613823533931,-22.082336176074758
2.8612499,12.117086947658997,-6.49143241159299,4.404627769317675,-17.545554264600465,5.298153865167008,-30.552043112604665
2.8712499,11.454418552008972,-6.225406235033382,4.092196778751807,-12.923591274614143,3.974258140266158,-36.16832838458741
2.8812499,10.835189551792897,-5.9003755282921855,3.4936249963681028,-8.103766538465344,2.5395497065775614,-38.68878436844776
2.8912499,10.235919022718988,-5.661794096692396,2.889035690110844,-2.177480047119911,-0.023663629644461157,-38.78697463282771
2.9012499,9.60133275435016,-5.538080832019213,2.426438951949488,3.188895867648384,-3.363028526626421,-36.67772068281967
2.9112499,9.146692977572478,-5.532674764897187,2.067521794455001,6.992385739341939,-6.834242303902715,-32.52596457263371
2.9212499,8.703880521213895,-5.285610360983377,1.5835322006398658,7.975707798100283,-11.37596338450794,-27.092986787836494
2.9312499,8.381960550751442,-4.762599613150975,1.3295874330719477,4.280102354700374,-16.17037568372751,-23.276446507857926
2.9412499,8.32785917595302,-4.271941010767585,1.353406871331409,-2.4679493821416476,-19.38971143675217,-22.119362699241023
2.9512499,8.29138558655922,-3.8841719687734666,1.3556229187032927,-11.172173837755683,-21.081981647480173,-23.39843270928769
2.9612499,8.245376658448318,-3.7422751335721416,1.3580717466258094,-21.579810050158855,-20.699804491389553,-26.552913840846887
2.9712499,8.127311463159085,-3.8671607096863827,1.2640224198091472,-31.986082092376407,-18.96619938766428,-29.67531405161801
2.9812499,7.986278936672987,-4.178721006442846,0.9798584033135146,-39.89731981216374,-17.212718915214825,-31.684757368634866
2.9912499,7.96377171813841,-4.512821444652804,0.7030644294847502,-44.09143058137742,-15.522268397067524,-31.805500731867458
3.0012499,8.024811242782341,-4.553740745168491,0.6369259320819654,-46.35495765062036,-13.516574894303817,-30.381002170245353
3.0112499,8.148821497844281,-4.499350057779811,0.6558567153615386,-47.44670497078935,-10.703513754477516,-28.376482530724953
3.0212499,8.213748887114503,-4.581571182416973,0.7654462723283564,-46.920498691010586,-7.07255149524601,-26.367561260082773
3.0312499,8.093607954883941,-4.598860556887947,0.9567670464533544,-45.67491332955882,-3.205761509704739,-24.944361260916494
3.0412499,8.019195264233236,-4.504925348683997,1.0060116587423336,-44.167418710025466,1.0857911404623648,-24.354021606092928
3.0512499,8.079427941556043,-4.5169090744874,0.9796232345697609,-42.29505662410872,5.631064037647122,-24.191155702323563
3.0612499,8.037290150746271,-4.587740272019066,1.0145270399964625,-40.703439020078015,9.763031376194608,-24.278970341470814
3.0712499,7.898301044485943,-4.594627749216222,1.0328516705334043,-39.61923998599978,13.36471071233628,-24.355734127741236
3.0812499,7.770420213109917,-4.529851658741453,1.0879873392720278,-38.81754078138697,16.549120522731144,-24.687879966918395
3.0912499,7.665588568930726,-4.434043673936635,1.1907367231457002,-38.553907666513936,19.929220665602003,-25.512124602001716
3.1012499,7.599223566927129,-4.2865836116509,1.2222134810574097,-38.4750097178684,23.061552070493544,-26.45195481675277
3.1112499,7.568382396073832,-4.168563484633885,1.226220607506459,-37.86399218995074,25.52439184214973,-27.015798007652872
3.1212499,7.494406243438496,-4.138009813854573,1.2246972672747656,-36.9743067333501,27.620841975905446,-26.72782630110307
3.1312499,7.443547653680395,-4.0903139321444595,1.2595234599140828,-35.503492380761365,29.694891820540725,-25.16142225112504
3.1412499,7.500858885415366,-4.0527615356133255,1.3250725088311592,-32.69055442145805,30.992558357594294,-22.52007192436761
3.1512499,7.570099423908374,-4.09920158969327,1.2838609493314044,-28.166962643549542,30.846200576270103,-19.130512333391952
3.1612499,7.549809026981442,-4.122689895006007,1.178773761782403,-22.45770522286486,29.755511497985022,-14.811188764310888
3.1712499,7.474545976022096,-4.031851703491527,1.080774148753887,-17.43864269713039,28.23549848873348,-9.899382589203512
3.1812499,7.4805898942098,-3.8777225995757902,0.9735881598679146,-14.130152191455432,26.40206831104945,-4.878040171932376
3.1912499,7.521987656441703,-3.692677547784054,0.8712316822570775,-12.792753329351463,24.70894192968232,-0.09634196472628734
3.2012499,7.505310078132738,-3.5011534900506973,0.7735439667227084,-13.571763086789172,23.00450703411441,4.0159807489514465
3.2112499,7.664838253438157,-3.386049766121127,0.6495875402369384,-16.153672003437148,21.455662824788934,7.682783113071623
3.2212499,8.038651037457113,-3.342277757656531,0.6000693398877194,-19.69522429634953,20.25648815980828,11.038999103514803
3.2312499,8.328928363825531,-3.3903302372576705,0.7121084878293535,-23.310466392995053,19.483992687848463,14.01902876311137
3.2412499,8.501525083378882,-3.4811287264451676,0.8381584310799376,-26.933417993009535,19.670515141921797,16.76674724657633
3.2512499,8.627544356095358,-3.5783723587073535,0.8475651706832942,-30.326319546083532,20.381017830544256,19.093493954577134
3.2612499,8.751929066197617,-3.689634227015556,0.7587044602816447,-33.125268432537204,20.876011292652983,20.773651093881437
3.2712499,8.792254798550463,-3.7222836081457955,0.6950340244050544,-35.91141954338206,21.120748697024684,21.89580952833773
3.2812499,8.686369815228613,-3.7527762221699907,0.6879095954739334,-39.14998085095247,21.232920460619944,22.865998923052103
3.2912499,8.654709612140616,-3.941003747577503,0.7025311042608693,-42.41319350452149,21.747373058518125,23.603957101322646
3.3012499,8.547226504655702,-4.000614952923211,0.7194988049544457,-47.14216033906196,21.553994501015776,23.945183026971186
3.3112499,8.438731698942131,-3.9542034926467915,0.7894820464295069,-52.30673644714577,21.281108110712225,23.556307418248096
3.3212499,8.772886388747493,-4.489158069103937,1.0329420614698943,-53.551002310686485,22.914473753961317,23.01794777679257
3.3312499,8.713282270270318,-4.886570783056215,1.1615828821489151,-56.28028975610622,22.61371985177923,23.317121665696572
3.3412499,8.655597603425822,-5.244832953159394,1.2227752743129758,-58.178905040751275,22.5597473755433,24.019013867547574
3.3512499,8.8348407361356,-5.714635897510988,1.4066227875047144,-56.28008800032338,23.65376383693207,25.055087757012494
3.3612499,8.745624598675109,-5.9545140547291195,1.4589125552084947,-53.8418395000673,23.013622195323812,25.084960908360994
3.3712499,8.667789895593721,-6.195451632411392,1.4437352538369488,-49.28788466846022,21.523500608832997,23.94416316381403
3.3812499,8.79269475868494,-6.524651641142039,1.5277608745223783,-40.90915419517324,20.46467232887206,22.551592826216634
3.3912499,8.734335691874847,-6.582149059522669,1.527101137886631,-32.668626969158716,18.741613910864704,20.81117534889254
3.4012499,8.846169369093852,-6.578639814360361,1.5246222369782594,-24.180389144696914,18.817343125407884,19.241920990864507
3.4112499,8.935898459206296,-6.488429058489561,1.5325987006505704,-15.979099669478536,18.772300887362412,17.781088493351838
3.4212499,8.819147991563684,-6.147344096781698,1.3635191773591584,-10.95290668743985,17.112292111749827,16.279777190891735
3.4312499,8.972076880592265,-5.939526358644211,1.2455544587523035,-6.981697277681604,17.277099865337235,14.718335141608026
3.4412499,8.910921152185722,-5.548079723467292,1.1807284152899267,-5.542784673643538,17.709514676628437,12.971351352640891
3.4512499,8.680016854954953,-5.1230855472905095,1.0392347673147047,-6.722912736972333,17.406691614801,11.350190663324316
3.4612499,8.661631828811599,-4.970381125488805,0.9148050007984793,-8.403977347198479,17.860253532455427,10.167140957561466
3.4712499,8.669705003985856,-4.8723140525337865,0.8623808639375433,-10.403147861412423,19.087054594327494,9.65805025711555
3.4812499,8.394155404008847,-4.6959071973166004,0.8052121086821779,-12.97755240265824,19.32619700274741,9.578549746579798
3.4912499,8.12810510642921,-4.590219571838295,0.7783401166567502,-15.314083684689997,19.1963965321103,9.94069147665885
3.5012499,8.042948827157833,-4.592081340823985,0.8591515039852734,-16.903334842346677,19.879145891190852,10.960104248244782
3.5112499,7.95382531481151,-4.599562526473625,0.9436799168924768,-17.905906006970262,20.483236196262784,12.72315594794575
3.5212499,7.947163918482921,-4.740235249503175,1.0884528213773392,-18.379292371789347,20.776815528357083,14.996341803936495
3.5312499,8.001900390690713,-4.988491095223264,1.345204838074017,-18.96724807676277,21.42322993046568,17.53389463852419
3.5412499,7.957400098588434,-5.244294089577652,1.5865312007180823,-19.21647777655226,22.291848364721584,19.566409712967406
3.5512499,7.892048804712443,-5.547474483476099,1.8435978434959543,-18.95709001010815,22.86387267612283,20.414357883411142
3.5612499,7.809162647182305,-5.956992016626638,2.1205409370106447,-18.02285746230406,23.07764520835523,19.923108092737543
3.5712499,7.658537779462115,-6.30274494123674,2.319011288693836,-16.76517893041224,22.306397693028277,18.49989812472378
3.5812499,7.6304101857126625,-6.542854361915449,2.475737354747558,-15.157372952346332,21.23963670608149,16.323295402198845
3.5912499,7.702765294521037,-6.726636186215153,2.609941310366613,-12.94300353948979,20.09710485934531,13.695699210134025
3.6012499,7.7192289625850075,-6.807671160084172,2.7126178279401234,-10.704021081332941,18.42130678815907,10.981154015948034
3.6112499,7.755130925315082,-6.820835810007142,2.7534708135892814,-8.008502952926777,16.487579422697053,8.23118606676014
3.6212499,7.830492378899728,-6.810784937639597,2.709731562522302,-4.804525484637516,14.373260381542641,5.711357375396926
3.6312499,7.889871892267522,-6.726562347156749,2.645706109660289,-1.365193571427541,11.899711104015092,3.8304305288598632
3.6412499,8.002215013728314,-6.595803624088967,2.595712567968011,2.3403251754298533,9.126889446814868,2.711269663358782
3.6512499,8.167762981765224,-6.388023259982751,2.5239196321513764,5.284906218482558,6.362146468076398,2.0001319221825558
3.6612499,8.319569611085697,-6.146792742795093,2.4866928208626518,7.266704567454373,3.809758963276634,1.3654890021701587
3.6712499,8.37219909111775,-5.964583933926504,2.3908031763566227,8.741285929422116,1.4365413656312032,0.7833341271516224
3.6812499,8.284302185796,-5.848800348241181,2.214963257577301,9.500591702276301,-1.1430451458886826,0.27519527604794586
3.6912499,8.226333827887904,-5.81494685556033,2.153421012649166,9.756223791235469,-3.3416101264584035,-0.046247967269397436
3.7012499,8.19470471570572,-5.726637131690527,2.1206374149756217,9.526852056843,-5.31420429808963,-0.29171598513644653
3.7112499,8.178544597946845,-5.67672788962491,2.0409096024718125,9.365023563836727,-6.9892482563336635,-0.5441226276569114
3.7212499,8.186485707830382,-5.707548607938572,2.025044030335628,8.892868391892945,-8.274357130251323,-0.7767393750025708
3.7312499,8.165098678012145,-5.723031374996573,2.043446179876746,7.988583368360007,-8.953089772155879,-0.8227134342989763
3.7412499,8.132640103611115,-5.70852295717412,2.0244499830083087,7.239729054512929,-9.118000683260327,-0.9842793692609844
3.7512499,8.074848240032438,-5.68084181839295,1.9475886076649542,6.869253834989338,-9.38795608203859,-1.2827516304702444
3.7612499,7.981307584628322,-5.730070246663247,1.8685970804071845,7.018502495031086,-9.627255888277388,-1.4447386723923612
3.7712499,7.895985406597675,-5.821683419389186,1.8270790207657819,7.149587125844382,-9.666625363346148,-1.5477730709708435
3.7812499,7.830012907736183,-5.86877221106117,1.784081042256612,7.264757556823371,-9.625446809135756,-1.7298305432375132
3.7912499,7.779113603880966,-5.888840897894456,1.758787659020574,7.350303301989708,-9.427697471535822,-1.902671033234425
3.8012499,7.723760919614943,-5.8875327364449195,1.747685387025229,7.301580205361469,-9.072852381421686,-2.026702124517524
3.8112499,7.6449710864112825,-5.876213274617921,1.7255396138032215,7.307332509388968,-8.775730406116189,-2.1165997880013556
3.8212499,7.601578772952578,-5.887758726028338,1.7094998339325258,7.398206605343727,-8.45941111070159,-2.211087216180389
3.8312499,7.555288929980333,-5.901958464976851,1.7193181653053269,7.7004787952449965,-7.965302458652818,-2.1340723021724344
3.8412499,7.457359741857402,-5.908276651412453,1.706408899019,8.271598315680043,-7.736205499526904,-1.903040560260573
3.8512499,7.401109944694932,-5.92498547400276,1.6924756741874092,8.905188296453334,-7.762779193480848,-1.6514804097701763
3.8612499,7.405437840503021,-5.914776543122326,1.7086803490720393,9.4263750197307,-7.531189451719716,-1.254101372569642
3.8712499,7.400384397232565,-5.857666052899555,1.705039604103715,9.578589354452252,-7.27238148210315,-0.8142834004572644
3.8812499,7.44126931291357,-5.838648774361236,1.6284475683850592,9.520290011154618,-7.288252341802263,-0.20183332400994147
3.8912499,7.457710446115318,-5.7574188990897675,1.5348976814201771,8.492601398706153,-7.570623825570055,0.40499687649768973
3.9012499,7.4774149556118905,-5.616046520608946,1.5412784256303755,6.221015968929023,-7.597713831101278,0.7025316337646201
3.9112499,7.573256446867561,-5.663519986874309,1.5566310724831736,4.460971978036937,-6.990831222217596,1.089616448194716
3.9212499,7.521082634895241,-5.715329381873663,1.5208117693524075,2.2917248229965073,-6.711948008231142,1.5380298581491896
3.9312499,7.516113527832268,-5.794016830087087,1.4766016174438108,1.20780096115188,-6.683364494954098,1.8357134681905096
3.9412499,7.596267711158246,-5.868995365554116,1.4106203450139805,0.9702601601674401,-6.4026347530332215,2.1989883758172053
3.9512499,7.643435453054663,-5.8781649753992165,1.4222855894764215,0.9453760245290924,-5.91568891906373,2.4910034869335247
3.9612499,7.721287825240209,-5.8716229474557595,1.5109515858991172,1.2279490366873589,-5.262569042538464,2.633509013184868
3.9712499,7.841967838885439,-5.857592969209634,1.5527964941085797,1.3625344904323407,-4.381791355882504,2.8915567639990236
3.9812499,7.8693589052450745,-5.939074844416273,1.5213784380161859,2.0891420890410504,-3.26225839962549,3.2428834414997065
3.9912499,7.803721766761459,-6.016880695467378,1.467804813166259,2.8811584236301284,-2.504400117626058,3.5090090440370334
4.0012499,7.7953831726124,-6.08266600059184,1.4825809405359458,3.9792178163808973,-1.9827778823637143,3.8169002340079903
4.0112499,7.78181084327271,-6.124465570699378,1.5470273938787553,5.290396204433844,-1.3802643553009009,3.836134326733555
4.021249900000001,7.738917258760031,-6.02896507103357,1.538362570634244,5.6685351414341385,-1.2525008907769912,3.518483533554519
4.031249900000001,7.765940631454529,-5.938896375114729,1.47307219514976,5.6121300308548445,-0.941841798654046,3.1646555450256373
4.0412499,7.764848624164601,-5.912568570502199,1.4148953108441638,5.099958190153809,-0.6338366871847134,3.0017060251749443
4.0512499,7.759372098221985,-5.900446637160825,1.405896872332396,3.747353970307391,-0.47235112531544543,3.149715496920667
4.061249900000001,7.749430882445694,-5.896658475063039,1.4740890689449353,2.0089920214871095,0.030409006202802624,3.2674172905786016
4.071249900000001,7.701447136403676,-5.895569999285666,1.539513473266274,0.33368946712227865,0.5184843888144897,3.1772787582432396
4.0812499,7.728727282492922,-5.959481054889517,1.5758480914616984,-0.6127876158419606,0.8691214484249296,2.8368385617057417
4.0912499,7.7729185815566355,-6.047918215518078,1.5949586851356787,-0.9628490076007313,1.1665410524032513,2.583976368868248
4.1012499,7.7425327483736925,-6.101339008834403,1.6071053181898072,-1.0142192413585551,1.3241240915714199,2.4658758914323937
4.111249900000001,7.71347640300223,-6.138024071962897,1.6444463131636282,-0.823732699618053,1.3958962021685242,2.331098794908103
4.1212499000000005,7.709290516174881,-6.1313951784883685,1.6609571709208402,-0.5066890865779287,1.5999132930218531,2.3923349976521973
4.1312499,7.669471802550984,-6.041853845525791,1.5958024852383326,-0.6706570139999602,1.6233826109449518,2.4890630381019987
4.1412499,7.667302453059878,-5.980846770563899,1.5652807948221408,-1.1451472947522483,1.5786578743622852,2.3945043987318715
4.151249900000001,7.680998073312811,-5.98242076301296,1.5871080296998235,-1.8293709613077636,1.7380720555308449,2.3175122916620827
4.1612499000000005,7.5916757884595,-5.983047153865504,1.5745338478467001,-2.7020029790243694,1.6595090232033145,2.3502371044944663
4.1712499,7.550727871208781,-5.984466386236394,1.5345870462402045,-3.518193908312479,1.6050643194387906,2.2759962141263212
4.1812499,7.579431017312135,-5.991739847518305,1.5347847199531455,-4.050504384535562,1.5421811364875244,2.0837474811735186
4.191249900000001,7.57715176862344,-6.017343769279109,1.540902612231095,-4.612289187171461,1.4815097618867548,2.294516001162339
4.2012499000000005,7.57574695033837,-5.990557361084109,1.5034036719951158,-5.617997619094704,1.6153419668770166,2.674514555323178
4.2112499,7.614357219483627,-5.948254166221309,1.474667329474622,-6.391891457268636,1.7535219772114274,3.027417925703223
4.2212499,7.5742828531722335,-5.942595940797772,1.4530466789216216,-7.036867240827838,1.8705385306000684,3.422303305740683
4.231249900000001,7.474463200618645,-5.946756190285322,1.3978797361853756,-7.789352983704838,2.1403598860489237,3.9109114133619594
4.241249900000001,7.464080041444774,-5.974875043873394,1.3551326024202242,-8.4553006783985,2.456885694553588,4.495948824696172
4.2512499,7.497569064586447,-6.008579036808941,1.3469692091128787,-9.192464264606315,2.9131782014179897,5.06878361284502
4.2612499,7.499796285208432,-6.040645541089267,1.359602419108428,-9.712005172951603,3.5403260664096314,5.672975183566065
4.271249900000001,7.508795266134582,-6.071123668851236,1.3613549639528155,-10.440270887971389,4.195164895617313,6.252831117800289
4.281249900000001,7.497420885714383,-6.10444061741447,1.341991642160335,-10.878750440207735,4.876921367996038,6.929822053028117
4.2912499,7.47581401578474,-6.162726682354594,1.3146014318464547,-10.641174863051441,5.358531282215798,7.844387747097405
4.3012499,7.490047149107891,-6.20638462853226,1.2538510800134444,-10.35329279526221,5.4877317017893645,8.879778582074861
4.311249900000001,7.525175332066154,-6.212410235839231,1.1955841648168677,-10.363225882733886,5.478588444332616,10.008191370037267
4.321249900000001,7.553884297162622,-6.1640018222537805,1.1321504936354663,-11.181528671600605,5.497970039292596,11.013980204442392
4.3312499,7.557491121151744,-6.125995052913934,1.0194902156866952,-12.922272339998308,5.651387231973781,11.816594733148433
4.3412499,7.5313280741519355,-6.132162383246161,0.9730131803214779,-15.647338756280643,5.840422851544018,12.570060707536495
4.351249900000001,7.4377345302930395,-6.171243369959915,0.9210760504214044,-19.220047470371846,6.229871552615282,13.56100557766029
4.361249900000001,7.248413832743812,-6.289317018081384,0.7676253975077979,-22.764004332309277,6.713798588621911,14.214313186872545
4.3712499000000005,7.032309553498936,-6.416375059595229,0.6144713563273605,-26.176157350368555,7.252724587642091,14.649449966461276
4.3812499,6.847275520509625,-6.550178593493146,0.49918133902463163,-29.68632199682292,8.03493809871509,15.06268094840433
4.3912499,6.664082038735055,-6.75440665739075,0.4197788185431355,-32.647351410076475,9.199986692096951,15.270791985958391
4.401249900000001,6.3947584968725515,-6.944819039399458,0.34925395052592795,-35.94750879250592,10.999816864397864,15.280969044201685
4.4112499000000005,6.06909631966696,-7.066602919904976,0.1556892471029545,-38.96051465685566,13.123290290213133,15.572249181867972
4.4212499,5.850480554255752,-7.126322128498602,-0.06283324336380537,-41.031154129447856,15.305048681944498,16.36603121120801
4.4312499,5.71786105846013,-7.1058196844524035,-0.22979042361250226,-43.30272126141362,18.069842928003915,17.45883676297763
4.441249900000001,5.5803819582506975,-7.018713947709556,-0.3653717615008473,-46.02962412670362,21.561254788622325,19.14816489701316
4.4512499000000005,5.417743274929544,-6.95387512070394,-0.4339561409717743,-48.84901290075073,26.13906780527379,21.425152839181507
4.4612499,5.199610990769286,-6.9632165180783705,-0.5126668223822141,-50.66814098002061,31.677665765951605,24.267293156278633
4.4712499,4.92409082992398,-6.956257754526002,-0.5957075767965244,-51.24206009642415,37.38567859088662,27.888389184380948
4.481249900000001,4.662180204192166,-6.96544813019592,-0.6016308561355839,-50.055582407937294,43.513945882914214,32.36134033010266
4.491249900000001,4.370372547258088,-6.956917046463715,-0.6028639260086444,-47.74863598811432,50.13038347259285,37.55071319821264
4.5012499,4.100845828485316,-6.871094303845233,-0.6225894261430772,-45.19744101879002,57.20768303329871,43.37267644796204
4.5112499,3.856234420996716,-6.65863866948785,-0.6601585413319854,-42.969618768542375,64.82502645582036,49.593287149273365
4.521249900000001,3.5530125733468827,-6.447044385039455,-0.6493711645634223,-41.75263869327381,72.29834069651918,56.0098300505773
4.531249900000001,3.2912409360031543,-6.316689054280756,-0.5307376996217178,-42.140573877657204,80.06342626023303,62.485327361804565
4.5412499,3.0603032882579484,-6.142301641950683,-0.4690854269087162,-44.2327419126248,88.19727611407296,68.61832392909139
4.5512499,2.7637556624450514,-5.9007334055032885,-0.4406808861370883,-47.81202940483425,95.75605649957527,74.26147712228025
4.561249900000001,2.5327824251048843,-5.709017572186734,-0.3408764794261081,-52.426380837312,103.1646859024286,79.63801745522994
4.571249900000001,2.2872155928555435,-5.553403359156171,-0.20108896895601547,-57.005238273628585,110.3607719721802,84.82841313103141
4.5812499,1.9425912478004748,-5.396793002021079,-0.03958511098312245,-61.45034353329554,116.68448114721889,90.18898803138005
4.5912499,1.5974674343516055,-5.424045942566252,0.2285038540929506,-64.74106314976105,122.47943107910993,96.25436043926794
4.601249900000001,1.2430255823067693,-5.506358024611966,0.483366784083978,-66.34358597741725,127.77086655739126,102.7546081634582
4.611249900000001,0.8441059417858454,-5.477829043344004,0.6571699800282429,-65.19098417674039,132.5307520184637,111.20540606048019
4.6212499000000005,0.6017065355084226,-5.360159074407277,0.8899228496976503,-61.36811665271083,136.73090914901502,121.46128964011334
4.6312499,0.5179894618034155,-5.155036207774198,1.2124486461839223,-56.87137124913153,140.30090644189772,131.95505942032472
4.6412499,0.4245374810322913,-4.873354141351717,1.530834479818265,-52.14898978788398,144.2839019403471,144.12978735328818
4.651249900000001,0.3487296008793993,-4.545871794671675,1.731377343240756,-47.827176539805336,148.9002117213148,158.05396747185762
4.6612499000000005,0.2926923568047996,-4.232645171998279,1.8883478359521086,-43.859167036401146,154.0169203269575,173.38144280970968
4.6712499,0.2157755797995677,-4.101001452440038,2.144800054242375,-39.44732697902278,159.3113975063207,189.88204687601115
4.6812499,0.11999001306869035,-4.381812392118088,2.6549107769514326,-34.136189932790316,164.03502551610993,206.96218842034767
4.691249900000001,0.03413321417586825,-4.7869558063911635,3.188953060624635,-27.507899798614698,168.20537606195694,223.72551987096017
4.7012499000000005,-0.12295970181553698,-4.97270275541245,3.448346054875623,-20.275769323732455,170.9999167866284,238.9253925093473
4.7112499,-0.28568152346850106,-5.199646961558367,3.8242264208225554,-12.430594368591857,172.140217578054,252.73487182511658
4.7212499,-0.31456797212734705,-5.528168754652247,4.38247503665855,-5.122022405135536,172.9289609086501,265.8739377105927
4.731249900000001,-0.2992884156498855,-5.638532093495657,4.65686914058713,0.6448936531553876,173.43782506757313,278.2775534015021
4.741249900000001,-0.3711748112732173,-5.6802993951661005,4.933416389067164,4.593320174507994,172.8730836135184,290.17315163294194
4.7512499,-0.552472668929285,-6.2086107292955806,5.695966486193436,6.634389424800797,171.73467391817775,302.06770840544567
4.7612499,-0.8285173335472121,-6.9636333259927445,6.539064733987086,7.089436863262558,170.34042818152847,313.818512865296
4.771249900000001,-1.2400511367590628,-7.864548344394772,7.320645715963647,8.623928505981981,167.56729455176864,323.7754536025103
4.781249900000001,-1.6018003730017876,-9.21406777029765,8.332956977744324,12.441189526589064,162.57927179063282,331.7756631751158
4.7912499,-1.916716011186575,-11.024235204141453,9.718344367865987,19.15719074058776,152.72704202845708,337.5814446292842
4.8012499,-2.1707205237795737,-12.840618892126745,11.464503987010147,27.346387937814555,137.06433122441095,339.6998366430731
4.811249900000001,-1.9751824164074774,-14.172630979729028,13.318136174366325,32.268691481815026,117.46819535207091,337.13800273598497
4.821249900000001,-1.0935081443998902,-16.341724428855713,15.973264516479942,33.05870836410315,88.6354256438866,325.44142776590394
4.8312499,0.06386964952074353,-20.361736045503804,19.497077055486134,37.18516668085043,47.24088528969746,301.4612191427687
4.8412499,1.2567904511991796,-24.36513328415633,22.643461419721632,50.546321341352225,1.2457773601969224,269.51662601082114
4.851249900000001,3.1773969782455573,-27.81525624560899,25.408401662600998,73.24597539749787,-52.153788150497114,225.99266050621074
4.861249900000001,5.043642716989276,-30.13897791975778,27.774529160447173,99.15713182438357,-113.53235853670554,168.88241491104984
4.8712499000000005,6.030008335944706,-30.10755683150584,30.27472187955347,112.18131697509122,-179.64014705229408,101.74725706835703
4.8812499,7.044120454748898,-28.318588090191394,32.774787172217394,94.72168733437806,-246.2215945741102,29.202492710692802
4.8912499,7.597511113827413,-26.722121649969143,34.783185793117404,50.38693274164185,-310.5612321765939,-49.15954904425573
4.901249900000001,6.249583100034413,-27.65879376854665,36.86245653295082,5.846617960100098,-371.02963018136745,-135.0374610364659
4.9112499000000005,3.071470700840136,-31.519757619652637,38.11586864415181,-13.39046265834405,-427.00240757091746,-224.4301926054459
4.9212499,-0.7644441553702958,-36.730775237473125,37.93951457163246,5.936659023895492,-476.74712351736065,-313.0797320237813
4.9312499,-5.951163619445205,-42.92540824222182,37.25999668165697,61.09657069648582,-500.7672065707869,-393.2055275899577
4.941249900000001,-12.572294545205038,-49.863053012604716,34.755648058718215,149.9532180799787,-500.1925463946528,-450.7783879073729
4.9512499000000005,-19.757459914261645,-52.28070451092811,29.50670114284694,240.8705124845733,-499.62686977604415,-480.7921175286848
4.9612499,-26.508453956483237,-45.88892618771316,22.390305003895417,279.84646310062016,-500.13701789209,-494.81754139657073
4.9712499,-30.670880059996595,-36.675770975517395,14.85001948613272,258.5991305262349,-500.3839614481831,-494.89822920033487
4.981249900000001,-33.57428983247892,-28.590068981566887,7.905414175362384,181.2298199877104,-498.7574037465564,-477.0581375049199
4.991249900000001,-34.85478576188383,-20.154683338967487,-0.11444804894689482,71.28804745627868,-501.98172340689564,-450.01058899139065
5.0012499,-31.192202685560808,-11.615741727140621,-6.921229163245174,-43.38867544286658,-496.89014168715795,-425.9908506742426
5.0112499,-28.143978200483197,-5.459056916017564,-8.436304051652925,-122.62986841368071,-426.88152600534977,-404.00455356370486
5.021249900000001,-30.95828971029417,-5.3245522908025595,-10.059789649939216,-120.73514069096662,-325.5941282492792,-359.6587701429136
5.031249900000001,-31.508678346749775,-7.374023013723064,-14.053733738034934,-39.27970261132246,-239.35993969846606,-259.96612336034127
5.0412499,-26.330163542110025,-3.7716754331492948,-15.690488499425872,65.26345396556007,-174.92782675337946,-132.5479764030507
5.0512499,-21.082432252295636,5.130977749059185,-14.905501630475047,106.54381128258042,-131.218722116857,-49.012466545010874
5.061249900000001,-17.873765100241183,12.737659537811895,-12.145419956653482,76.94951197515925,-87.19022945605822,-3.906080213993389
5.071249900000001,-16.393462493052088,13.3284320654609,-8.261078023394624,13.51179575591074,-48.196466060078876,31.372254191390017
5.0812499,-15.315900124049119,9.241074479316254,-4.395529993195299,-52.78449659261156,-18.63864538053111,65.00259440095408
5.0912499,-13.551325501647446,5.412257820013706,-0.548775152251872,-103.6930723328119,2.3858734412779476,86.68359826036742
5.101249900000001,-10.414388538001875,1.9746423462267353,2.8163632007974644,-130.85981168731516,15.404852104079236,91.55111445621391
5.111249900000001,-6.336490026357197,-2.0355758434385365,5.142655613763853,-134.61737578230927,25.24435192196742,87.76332043859703
5.1212499000000005,-2.4341242448805436,-5.9458164895358685,5.832304753653947,-118.68266134738613,32.38729272820012,82.52562087455617
5.1312499,1.510248652440877,-8.639082187170096,5.012954060830653,-85.11825476392863,36.173901885407275,75.398972139046
5.1412499,5.422733685589148,-9.959771736045806,4.232553938361098,-39.29489193783896,35.91635254340678,64.27691356973064
5.151249900000001,8.809642523992661,-10.14787511888018,4.403164911825381,4.463797030565158,33.90055550027134,50.78932103327096
5.1612499000000005,11.202149683700819,-9.131413651792665,4.6996816930875065,31.780701835276528,32.968372275044544,36.92858665889235
5.1712499,12.412564928230822,-7.969056030520053,4.654433562586077,42.065015821860406,33.46542572173566,22.725153132608924
5.1812499,12.903278133219965,-7.173686904132087,4.620168377110508,39.29592509492145,33.97468316333362,8.549808097849912
5.191249900000001,12.996944579386009,-6.434868865094721,4.6805069108313795,26.42309869443031,32.434179996714796,-5.317578713020074
5.2012499000000005,12.755065239278803,-5.970996740620804,4.764465092948422,8.307051527103624,28.531059109652492,-18.761455635591915
5.2112499,12.178624040409867,-5.974074433901508,4.884770625956001,-9.64857212725067,23.809414797209545,-30.45180394452398
5.2212499,11.39108913561167,-6.374045329164311,5.119176554371841,-22.258449398046274,19.32411881181097,-38.80583432231815
5.231249900000001,10.73886087954302,-6.982361688257016,5.219787342970098,-27.399478991485903,15.437829340046312,-42.675723188544126
5.241249900000001,10.359427191597772,-7.678624987980973,4.855871252079666,-23.98056804678137,11.583785288255513,-42.64637231942092
5.2512499,10.008275970331864,-8.067403546432736,4.3087131356029245,-11.854058362783784,7.022108167247638,-40.87436576287683
5.2612499,9.509637252501658,-7.879415235095968,4.240681445034318,2.4371985749751808,0.9257307046068151,-39.79740596534408
5.271249900000001,9.080670360010226,-7.322100152910061,4.2156149444236934,14.810727738382786,-6.797453840948159,-39.85111772558446
5.281249900000001,8.860681632710422,-6.595161468842238,3.840083030404022,23.592387542171483,-14.871632274440566,-40.88302693206243
5.2912499,8.673431393998747,-5.868049463108506,3.385004008760586,26.235665933606132,-21.5274896367098,-42.229084270568286
5.3012499,8.440531606412353,-5.114581744725294,2.9463191640196054,21.368204211668136,-26.103353691603797,-42.92261220718762
5.311249900000001,8.221273369711538,-4.382277012839921,2.6274433095416745,9.579532762868794,-28.53413203483669,-43.38180839634751
5.321249900000001,8.0563472591303,-3.7474002805925486,2.316885361322281,-6.654856043683246,-28.416785061289417,-43.87628681933685
5.3312499,7.947935904930657,-3.2823085221820727,1.9777621661049765,-24.533831676888987,-26.135583558907932,-44.48218529903854
5.3412499,7.800767195679716,-2.945678129715571,1.7208233396854509,-42.36188990645374,-22.917305614309456,-45.11276823689177
5.351249900000001,7.591077264823854,-2.8183142545348585,1.5478732113632312,-58.266237349578795,-19.639213482083143,-45.36010433502381
5.361249900000001,7.445565662546464,-3.090746276507826,1.4102147007691561,-69.70749009927992,-16.29975462964346,-44.64419548840087
5.3712499000000005,7.432857091579114,-3.4697596922058547,1.3377982083478162,-76.5533055808926,-12.521163928959549,-42.533088050633516
5.3812499,7.572737800610767,-3.6655221479370965,1.417624305409995,-79.4494155538029,-8.320735589332669,-39.323760630177006
5.3912499,7.748475799802385,-3.757198324040258,1.5980320034754947,-78.58817956322316,-4.323596261766171,-35.746008900625874
5.401249900000001,7.754308907590604,-3.943208410964921,1.7875042388114828,-74.17527978716225,-0.8746227985436248,-31.72894353764111
5.4112499000000005,7.593801684016077,-4.214246038128401,1.8905884594686915,-67.75981149732534,2.1037130554906303,-27.19824241275626
5.4212499,7.4218100832428,-4.230911055892166,1.829181995270009,-62.29381744070412,5.060891664958951,-22.98800458719735
5.4312499,7.3531610507667935,-4.018907545349085,1.7709360397285225,-58.845761049845564,8.099504175814854,-20.063401910272983
5.441249900000001,7.4850232441810505,-3.8379759343567943,1.8071164880201263,-57.01302746118652,11.232178935385834,-18.634138167834887
5.4512499000000005,7.771120712613949,-3.750617804311018,1.8742808302980822,-55.775949733350345,14.461465580279633,-18.24358493501043
5.4612499,8.039192370104905,-3.722890188328395,1.9429151396891164,-53.4256856473177,17.83286692724586,-18.02896362053255
5.4712499,8.199741930899565,-3.7123601513917874,1.9967249776347085,-50.15601081430389,20.156530157691257,-17.21841170551799
5.481249900000001,8.284033386193126,-3.7619891712123277,2.0893218020926247,-45.78030966086404,21.131783027322378,-15.22659480220042
5.491249900000001,8.358427447523177,-3.8562244578040357,2.141833463519359,-39.97151861041364,21.319582742534667,-11.859760564800373
5.5012499,8.429131181531089,-3.8846633622324367,2.061038653304307,-33.88142943118386,20.316103618233633,-7.702318109709036
5.5112499,8.473509694821946,-3.863996058147065,1.9047839397894404,-28.244891272598192,17.709243960880727,-3.2875549442258176
5.521249900000001,8.493238754668353,-3.8231165483884753,1.846540017355365,-23.79820387878944,14.326012241761372,0.8086061719404356
5.531249900000001,8.498191668630335,-3.7437072653312513,1.7551872266655886,-21.026181099540167,10.846864930306824,3.8462463954439805
5.5412499,8.50405400382499,-3.7455902614022802,1.6227007848663049,-19.372369013705608,6.905050456581419,6.144102024732855
5.5512499,8.585392481982398,-3.799679068458044,1.5614425433014456,-19.43857973818253,3.3389458120329794,7.8013311456511545
5.561249900000001,8.711771253197583,-3.8346365495660177,1.6089263948628985,-21.611911776230357,0.9132367817893375,8.894875446836185
5.571249900000001,8.845246332171424,-3.8700853201529,1.7002546478821978,-25.502212008576446,-0.6401391625310654,9.217586720485205
5.5812499,8.956915228336776,-3.8837764181155583,1.7017216098634973,-30.891006773049153,-1.1583697183123653,8.966722768288191
5.5912499,8.890557893844543,-3.9065677637707945,1.6728630845634223,-37.25368053649924,-1.2845525428249238,8.477860318632544
5.601249900000001,8.713744198261942,-4.031090404720973,1.688383671495323,-43.94947614851074,-0.9679222579930002,7.7011430431105605
5.611249900000001,8.589094387890919,-4.233369705274289,1.6721023902980283,-49.85452880455074,-0.041048987030826926,6.764319186626555
5.6212499000000005,8.417963336942066,-4.4624712278355965,1.627119694071173,-54.12003497279194,0.6718826713825807,5.743885957602598
5.6312499,8.270159393521094,-4.714316393202685,1.632129999773479,-56.57669291045755,1.174502452535985,5.3279294777472845
5.6412499,8.255521599361149,-4.9581878112672095,1.7285915838412564,-56.8152671109697,1.9058257199065562,5.632060213027039
5.651249900000001,8.332828213935578,-5.244752224971498,1.8834618659195244,-54.2199339403946,3.74278134593726,6.381302915175641
5.6612499000000005,8.388626878616613,-5.515127620476472,2.035204432305163,-49.31213794133778,6.151176748989658,8.648118094150018
5.6712499,8.456631428309322,-5.698540185164721,2.139059199587876,-41.46042994922789,8.656618029388651,11.0487426574471
5.6812499,8.430787229003174,-5.7016823109714725,2.1598232908909907,-33.0453573826226,10.212417936953964,10.68691781137766
5.691249900000001,8.451427227804825,-5.55685690624123,2.0864640493068625,-26.06428589898913,11.699679416132017,10.013626584019448
5.7012499000000005,8.664154934650703,-5.613627244837487,1.9738274756398353,-17.82772010210934,14.025111866096932,9.669922654021113
5.7112499,8.4208736531687,-5.456079966557034,1.8023460044174116,-12.111188580073275,13.556957763743712,9.06538654025985
5.7212499,8.3640482071953,-5.343414906861944,1.7040793042191178,-7.017883395481703,12.73374874582743,8.18864065968523
5.731249900000001,8.590796530330941,-5.290095882272941,1.733096189878512,-1.7938484246227995,12.813842172155702,7.076304050460522
5.741249900000001,8.555255641588841,-5.07009732109191,1.7450309904007497,1.2231828656172707,12.419724040642466,5.97514039520037
5.7512499,8.436170935733703,-4.939479290636359,1.7381840173894738,2.7379138571574715,11.788843606215076,5.154127980373212
5.7612499,8.352296642055999,-4.7774530756562745,1.7160059294678416,2.392608723252965,11.0590494576217,4.647049349593215
5.771249900000001,8.330531480758836,-4.619875718290896,1.6853638835566969,0.16893183408680673,10.922642083239579,4.331047076491118
5.781249900000001,8.26542769745515,-4.519544941770711,1.690505880695107,-3.10880348900809,10.96130990820827,3.9264597821062432
5.7912499,8.092345717004102,-4.465614707823141,1.7078995832915445,-6.799972616591064,10.442627153138046,3.360400903385538
5.8012499,7.9561521133610755,-4.627569498253791,1.79480820919708,-9.883666449454322,9.66695690524386,3.2335941773309895
5.811249900000001,7.794444309019773,-4.823932466291405,1.881566386208274,-12.157597049942689,9.085389607434102,3.6479343734208944
5.821249900000001,7.6250560870850945,-4.954607987333977,1.9239713132002227,-13.33850422703172,8.675698803659046,4.489701697971948
5.8312499,7.553054422381445,-5.076818955842004,2.0166466094457243,-13.637345988551868,8.275220978986011,5.328703781426586
5.8412499,7.592728906264758,-5.253431628528032,2.1464121439623844,-12.59997792105312,8.757915126280109,6.528610918466614
5.851249900000001,7.574589990998365,-5.33860101672008,2.2548132767610705,-11.399931297523494,9.461064492488921,8.074567049066735
5.861249900000001,7.5797663303609175,-5.333382962082747,2.3364140296551086,-10.57217123421682,9.922003638027848,9.264804846094833
5.8712499000000005,7.714414889490737,-5.396167948740407,2.4042429078791523,-8.966422253615347,10.253493976227274,9.948505471192252
5.8812499,7.839596337215815,-5.455211530834397,2.4216329869496844,-6.454012381029191,10.571327099732112,10.133398939375663
5.8912499,7.919171673727464,-5.464614194034487,2.4246978370161805,-3.244451614415453,10.59766709220788,9.716584119247404
5.901249900000001,7.989101091477368,-5.504019494255571,2.4944949054057473,0.07588399730537031,9.882850813020736,9.21491118527623
5.9112499000000005,8.070232299704003,-5.5621986508707995,2.5764765441640414,3.3432124764985223,8.91842104199827,8.939775289085743
5.9212499,8.124763862802972,-5.580350219664831,2.5623305683460442,6.208822513233829,8.035715589738505,8.354379212446185
5.9312499,8.111810295052917,-5.5575906817761425,2.508249897867537,7.940746197364789,6.738168163353546,7.928979406827201
5.941249900000001,8.146176030970203,-5.488269381760955,2.476166549340849,8.508788297505903,5.666996592959207,7.823335635024662
5.9512499000000005,8.254590214127392,-5.429589170246814,2.4372884224167617,8.389618338046837,4.828082362008797,6.963741180784316
5.9612499,8.372013802112646,-5.38505355705441,2.4461692428615396,7.8356919781447685,3.6234546393544558,5.707313225946705
5.9712499,8.491894907688605,-5.420829019714962,2.5310129498096274,7.604619338726394,2.6595768263510355,4.574647579725745
5.981249900000001,8.55905832016786,-5.544015085250052,2.5661775982132187,8.432807556544482,1.8838984107811303,3.7486578009657148
5.991249900000001,8.57724931811221,-5.6246170758102485,2.534793165413726,10.06152656053989,0.944387176464688,3.2201329174836584
6.0012499,8.577247012575532,-5.67834626342062,2.5153619313715647,12.527396069431363,-0.13206007072035844,2.8492952262985742
6.0112499,8.549774846937288,-5.708382634740146,2.4869519824838573,15.364676038350371,-1.5902168612840852,2.437067064228591
6.021249900000001,8.593233302062735,-5.653312480281851,2.408320528907222,18.145613808254616,-3.02851283219545,1.9230218684475422
6.031249900000001,8.600450837217116,-5.5440286406224,2.3062265779742,20.46847938110666,-4.448266832965848,1.3527056326091274
6.0412499,8.569649649623699,-5.4060618897682655,2.2244518428791493,21.628902199573112,-5.778440019465841,0.6948500045410023
6.0512499,8.549114705325954,-5.2218920185227855,2.122944446951146,21.253509115326402,-6.767823877076103,0.1176196670861692
6.061249900000001,8.480896878271773,-5.098157136172863,2.0267099160468947,19.805685365688717,-7.603081354747807,-0.3923985585545978
6.071249900000001,8.409507811983913,-5.037225290814733,2.014687087845026,17.586201766738473,-8.193492632120417,-0.468999277692793
6.0812499,8.366612550002928,-5.000451260003354,2.0604958703168235,14.752731372797697,-8.528345065635436,-0.29691375105681744
6.0912499,8.316273637605738,-5.047554046830593,2.0766907631545872,11.905914570055177,-8.637579448340027,-0.12420606104332545
6.101249900000001,8.185578475392118,-5.1535390915506465,2.081674925478646,9.366942305203086,-8.804762685947574,0.15882025536501115
6.111249900000001,8.016518645747544,-5.250800440649879,2.1059027400995074,7.543122822639064,-9.101128987693345,0.3200742886741418
6.1212499000000005,7.872088001448428,-5.3765337615172735,2.1318430837692373,6.607455483957686,-9.393871302573762,0.4944327493176269
6.1312499,7.76483247365978,-5.476461651548106,2.140408569521066,6.467083729011512,-9.715513080771874,0.8874155010842828
6.141249900000001,7.660501284659799,-5.58612903894532,2.1621352969794234,7.189875158969165,-10.057303627410999,1.2285433268328678
6.151249900000001,7.592956419132128,-5.7181573629260365,2.222690677161978,8.522098230441502,-10.328380103308097,1.7962394658392016
6.1612499000000005,7.63484338509087,-5.736682550191682,2.2549022052577334,10.023373142448852,-10.300879218848996,2.5965059327863327
6.1712499,7.6798062807475835,-5.6504626552905,2.2277492910159906,11.072508081413993,-10.068629921411446,3.012107971809558
6.1812499,7.660746624016894,-5.566274091594112,2.1861858524500852,11.18563839525197,-9.837186321497063,2.9680714226978684
6.191249900000001,7.66628409125264,-5.512265782654069,2.187211329790992,10.557670218442313,-9.51622317488362,2.83263494895262
6.2012499000000005,7.644295565858724,-5.401565645369502,2.1580548985209482,8.620904423362994,-9.195736583432875,2.4910236421185568
6.2112499,7.61553545198397,-5.3365487833002305,2.0545623488756193,6.498963513491233,-8.765331698806426,2.0593288770614055
6.2212499,7.618680449001992,-5.433631340264734,1.9682948195270664,4.9615959428527034,-8.191504326857059,2.09735982822237
6.231249900000001,7.551978311964132,-5.43672258226081,1.919862839263202,2.721906116260333,-8.32804132247805,2.616996991916323
6.241249900000001,7.654916814632979,-5.4872661214416505,1.9189614377470958,2.168781091772112,-8.00723336628485,3.1994577218437743
6.2512499,7.775972773153185,-5.488567773058512,1.883823825885704,1.9967256083550893,-7.367318881887829,3.80304765245678
6.2612499,7.7539055580747895,-5.485150609668001,1.8736982733591914,2.0992764357776843,-7.045327617230806,4.768346907565897
6.271249900000001,7.792076285718018,-5.5650966149647285,1.9443695734756397,3.2599577669478856,-6.1846011695321,6.128077096065571
6.281249900000001,7.831191734527276,-5.575036088380731,1.9368676053231855,4.244321523907068,-5.128907141096774,7.677963777015489
6.2912499,7.802064704345025,-5.598459413842261,1.88943629586271,5.228038930911942,-4.524518172184837,9.1768318276087
6.3012499,7.777957651840993,-5.565213764584691,1.8940708532200876,5.27772505984679,-3.8847954411367995,10.133923313221644
6.311249900000001,7.816746952306285,-5.512512202690754,1.8898570001748662,4.49586462670513,-2.7816602274830986,10.138840895701458
6.321249900000001,7.8293017281742525,-5.6001914344749455,1.904995202714375,3.573708403449535,-2.281098898328355,9.639252221865274
6.3312499,7.8614494955065615,-5.723972385621865,1.9704404615237117,2.6977898952544495,-1.750301324483311,8.822607119910439
6.3412499,7.864743176347841,-5.763450484243945,2.021702851126437,2.001686370854955,-1.108452155887522,7.88198442978
6.351249900000001,7.829251121899525,-5.825465770486651,2.0388285365552705,1.6563757947646625,-0.8387624139768542,6.969666390691252
6.361249900000001,7.821731314216912,-5.911806915260287,2.0637813538664607,2.1627429021395703,-0.7076701534954641,6.3287593474132215
6.3712499000000005,7.803975213173557,-5.908548053436889,2.08313741023615,3.0851605955272805,-0.7002249663451191,6.022242804797834
6.3812499,7.874379325273178,-5.911264000595373,2.0869899333620614,4.354385529654269,-0.5242491182567258,6.015668035576376
6.391249900000001,7.972690758952891,-5.884490540508681,2.1266573686021712,5.400987068415721,-0.33468672280473555,6.155928790578726
6.401249900000001,8.040887200828907,-5.791979964038787,2.1876096655546045,5.929635040715847,-0.020896924876260683,6.08195369692071
6.4112499000000005,8.114978115230693,-5.74150597260055,2.228626609179986,6.037940203965034,0.3610717356395224,5.922697775953006
6.4212499,8.125166992644195,-5.701607549893494,2.233514694632313,5.8081110553778945,0.5921507195980361,5.792757579062208
6.4312499,8.063278280227939,-5.606345279539903,2.197135764592462,4.949123823616823,0.4159567830938239,5.464122529751775
6.441249900000001,8.027064047628574,-5.578339104830331,2.195483325433778,4.002750991345117,-0.07126295640890558,5.1690147352466544
6.4512499000000005,7.968785477335743,-5.62174473278695,2.1899289511081093,2.8752743184922043,-0.6949412557773392,5.08666859032593
6.4612499,7.832567087289687,-5.603215899112134,2.13000315074549,0.9250794983145539,-1.641165026318319,4.9710347935494
6.4712499,7.7771978748892305,-5.590367142285172,2.079162212849729,-1.3780288430652592,-2.455949859283152,4.514300221425563
6.481249900000001,7.797104753080107,-5.617002078429068,2.053731756169511,-3.7810285621457744,-2.8483321302389286,4.018700526726889
6.491249900000001,7.797044631458741,-5.647280025825139,2.053649762039215,-6.166638569902851,-3.2160269823640166,3.449858987472344
6.5012499,7.812449343580417,-5.697057767206826,2.086916550310409,-7.896133687166055,-3.53057687326228,2.8052660131863885
6.5112499,7.748221104677627,-5.798328547916382,2.1040656764311216,-8.851920922250544,-3.5710466532376053,2.34046746360625
6.521249900000001,7.603648772786323,-5.943716977836742,2.080082082354745,-9.151604911909814,-3.626270654072628,2.271083099720882
6.531249900000001,7.4851049369140705,-6.001340849714113,1.9886931562904009,-8.978957288383565,-3.6698261383213375,2.5068683168797823
6.5412499,7.425920964825314,-5.980481718412465,1.864483437990471,-8.715163605643285,-3.6851039141485304,2.7791826760017386
6.5512499,7.4391923768508885,-5.941787465707579,1.833267703212768,-8.955924742095796,-3.7055716220590833,2.916754451031268
6.561249900000001,7.461038772702062,-5.904225436396838,1.8340981338069486,-9.734774671627152,-3.303871093529866,3.004355914245709
6.571249900000001,7.449460086568084,-5.906160462714895,1.784867340345402,-10.712262708092348,-2.6581244833794946,3.306142518157058
6.5812499,7.408636196402078,-5.923164467292217,1.698993801708218,-11.924658598694817,-1.8650826487407872,3.7712648800274993
6.5912499,7.330804715681216,-5.9524843758552235,1.6053357275311708,-13.191167787468045,-0.872662704528778,4.4125823102777915
6.601249900000001,7.281209150854388,-5.994615266688462,1.540116143586489,-14.247982988843452,0.19278138150213975,4.994860859080483
6.611249900000001,7.288343247896279,-5.980720698270155,1.4766712977992418,-15.607315299733857,1.2075728267648784,5.435675662796632
6.6212499000000005,7.300749986655766,-5.990925675374647,1.4291417749596644,-16.868456568389128,2.3233098542807897,5.954006224245194
6.6312499,7.26541187674305,-6.081908683095146,1.3910786705229692,-17.682073824067107,3.8776556512071867,6.319711790966814
6.641249900000001,7.229850107240591,-6.156472719832835,1.3000811710193843,-18.543225673880674,5.508760728807699,6.70912902301053
6.651249900000001,7.260727009627206,-6.2393990245212825,1.2081877139977946,-19.26516850109126,7.309269203262188,7.414860256899459
6.6612499000000005,7.268371737537329,-6.324528832658452,1.171210354191269,-20.056100455275615,9.47737964306998,8.170774678210634
6.6712499,7.240500787254388,-6.3629423494943955,1.116496150534237,-21.515845228003478,12.038444328442528,8.941604713786065
6.6812499,7.159012671412463,-6.365381322132556,0.9965585123200345,-23.418262237623626,14.745588980064648,9.741330918257459
6.691249900000001,7.023873097577043,-6.375172306988201,0.8524683832973994,-26.041784772997072,17.60712578947236,10.521052235896324
6.7012499000000005,6.873949720082249,-6.406303909133012,0.7050314721697833,-29.41597092398239,20.888187376590686,11.334005914832712
6.7112499,6.717931274382369,-6.463458260407684,0.544516956183736,-32.84805100839174,24.258457051122136,12.1181463587883
6.7212499,6.53812979605648,-6.4935855999220475,0.3950239734624448,-36.662740764130064,27.934271962061615,13.28136257749403
6.731249900000001,6.316303700561977,-6.4860098795454055,0.2634530862570187,-40.79643634605562,32.41726967702409,15.051967086620982
6.741249900000001,6.095191123575787,-6.466059007048323,0.12511333612000183,-43.88691062154884,36.87123807973629,17.010709493616673
6.7512499,5.862579839399315,-6.453531186774266,0.023884361965367546,-45.75014282957658,41.01625043954883,19.274814218192134
6.7612499,5.629490198741969,-6.500579164798263,0.015975638011325136,-46.72985046829287,45.425169581092355,21.96730822330526
6.771249900000001,5.3811246370461285,-6.493809191076327,0.01541299807337456,-47.16540202032128,50.48184629519239,25.217354454949703
6.781249900000001,5.098793109821636,-6.372089906920185,-0.054497384880899405,-47.150999290190214,55.894474218293304,29.21246580934293
6.7912499,4.8088153411171435,-6.169743437696285,-0.10758103419727899,-47.276986559334325,61.279511854784424,34.08629724423465
6.8012499,4.5040541908862,-5.9488190963242955,-0.13805894133285865,-47.74428449544223,66.99136549153737,40.01237309048399
6.811249900000001,4.164136842202656,-5.640532390461896,-0.2384445941036276,-49.26328529440732,72.99199808213193,46.889198452242006
6.821249900000001,3.8277445564407633,-5.133003965765384,-0.49818944246603336,-52.44733587160316,78.71771882266899,54.25764219625168
6.8312499,3.578989067159882,-4.52228759600294,-0.7985035022633044,-57.68757167743729,84.15695253404493,61.73384125651429
6.8412499,3.3572409762590922,-3.9534147023918944,-0.9213559501001545,-66.33792804969711,89.62565871232175,69.91282424281411
6.851249900000001,3.088868080193363,-3.532628490568414,-0.93654412490607,-77.25094915861312,95.7177358330772,79.18076906522936
6.861249900000001,2.8035733790014397,-3.2073481202428633,-0.9623368319874811,-88.78894599387465,102.27311949095333,89.17012664976531
6.8712499000000005,2.4917616924667674,-2.9875949262089017,-0.9290023734533517,-100.01426885952885,108.39901662795567,100.50844023510881
6.8812499,2.112544345677461,-2.9191781143832944,-0.8151111216405262,-109.64352941126948,114.29841138530907,113.21204238829583
6.891249900000001,1.6625596917133054,-3.0652547139381876,-0.580524885260529,-116.23746874935706,119.58229071226226,126.87614876505141
6.901249900000001,1.1912347745789902,-3.5257137304909416,-0.20499797620437296,-118.3451141816361,124.20955838196907,141.5872993234678
6.9112499000000005,0.6110534192040553,-4.152681580577623,0.2748468287474189,-114.75191014778453,128.0301927613663,157.03157572618449
6.9212499,0.003945515511765222,-4.7286933074728035,0.6643086951510313,-106.00512000752029,130.6321134428006,171.66733110471435
6.9312499,-0.4638418005547569,-5.1856644759094435,0.8240441247786953,-92.68831780491438,131.75679874628997,185.6290580105211
6.941249900000001,-0.7477611322190456,-5.449517576205461,0.9228203243009296,-73.46128084287881,131.70985837626856,201.61774632235398
6.9512499000000005,-0.926861778365183,-5.493472168054985,1.0874900624795476,-53.881481099222945,131.5317003917681,216.75369160527904
6.9612499,-1.1464944989076449,-5.443648464302149,1.4966659796588941,-38.427823930807904,131.91437576130318,229.84049379662903
6.9712499,-1.4570240814266486,-5.416668181616764,1.9947701820538375,-26.56263801139333,133.35569404344082,243.04249896595786
6.981249900000001,-1.899644554455883,-5.444101860248349,2.3472610855455924,-18.920285586430975,135.11840117777183,255.75624569611253
6.991249900000001,-2.399437066268823,-5.48958014671424,2.6875822200151047,-15.658236344505589,136.58228826309477,267.3686319594858
7.0012499,-2.837555689398809,-5.540340149904913,2.990502176115567,-15.87348239530831,137.9585251292836,276.82097892244053
7.0112499,-3.2652300759794284,-5.864649268408792,3.2787635102928228,-17.445711972412287,138.5321802045561,284.8015937255738
7.021249900000001,-3.6006107511068457,-6.809460927462096,3.932595147730365,-17.88875670170551,138.18711090244787,293.03908332708534
7.031249900000001,-3.703619771045272,-7.9749727447013194,4.771614693960108,-16.767104232652315,137.79094826208024,302.63178678224244
7.0412499,-3.8373007802459735,-8.831411307584926,5.513221490377362,-14.698054191918608,136.67424608250795,313.20758302364175
7.0512499,-4.098786395165593,-9.929158251574986,6.5984992065624075,-11.365581110871913,134.4834349957417,323.6796179040599
7.061249900000001,-4.368660877591628,-11.25024682638857,7.768180270363522,-7.618998621849518,131.54666876404244,332.5918937817109
7.071249900000001,-4.816363272087183,-12.387003008455133,8.562557219322935,-3.6025924771445053,126.10803988690124,337.8018307146351
7.0812499,-5.26509913936607,-13.496460429379994,9.509914517790147,-0.03895465883172641,117.21392956391003,338.4541372817152
7.0912499,-5.6065110775671085,-14.865745869332239,10.948420308655338,3.231287331500256,105.82771215202911,334.4204617143888
7.101249900000001,-5.992844601996039,-16.755385798653286,12.584141806982391,8.852833896172244,91.62364044189518,325.2701419871443
7.111249900000001,-5.78274411170858,-19.304829310013655,14.071237223752403,21.510085207788865,74.88870441051613,311.8713237409744
7.1212499000000005,-4.378820438160998,-22.39284863192834,15.91528015420287,44.72796648045184,56.405121672238394,294.68876893147234
7.1312499,-2.0928948287355014,-25.74895738190681,18.357807777355006,78.79119157587087,36.55103278431385,273.71571751218096
7.141249900000001,0.7243226969909351,-28.829214243809997,20.645516820405383,123.61036373820006,12.02647145890419,245.938972138678
7.151249900000001,4.503387683463286,-30.410436535221827,22.55079860141751,176.32523736800718,-27.249673977016094,201.24963365691542
7.1612499000000005,8.271218964745442,-29.51393634751578,24.05771133981605,211.9190848290445,-77.26677115570527,144.59067622138016
7.1712499,11.042359884217019,-27.3188678334382,25.74806102268569,221.0873038802356,-132.11965881312238,81.79020216151591
7.1812499,12.606485241555761,-25.224182127387305,28.022646061402256,207.57693392133558,-194.92490506243058,13.319918785728088
7.191249900000001,11.756146467297059,-24.782720020242714,31.241062376812593,173.1102389758025,-265.9273566750592,-53.03926116943353
7.2012499000000005,8.811622047139196,-26.201956835568243,35.352933144256646,134.7031188606171,-337.57041008204584,-118.61566169861798
7.2112499,4.639445926484139,-28.160014027983944,39.40341207232748,108.93433801625426,-413.42555537786944,-188.89550463501752
7.2212499,-0.4406121728694572,-30.498063496811458,42.180483594201164,104.30969232262578,-482.42830282905896,-263.66564979496934
7.231249900000001,-6.72930845246873,-33.19786264404174,42.79806602461518,112.52440935972862,-503.0326518245727,-335.1457643187745
7.241249900000001,-13.214100256826567,-37.080080547589844,41.443261774552674,137.35128060391074,-499.1429575783488,-394.2993863226579
7.2512499,-19.053596622719066,-40.874822278064656,39.08993114738554,178.67514555263736,-500.0144664618021,-433.7769284541026
7.2612499,-25.197123438426743,-40.24181158622256,34.33648936799521,202.40533412135247,-500.14483994069144,-452.45269867734135
7.271249900000001,-30.35477866541301,-34.930688788464266,25.952033195673785,180.86023740597815,-499.79113784651133,-453.28169290920005
7.281249900000001,-33.037199767158874,-29.027102972778938,17.216518195785287,114.04122571107108,-500.5331048390296,-438.77286739847364
7.2912499,-34.22473917402929,-21.347235067642593,8.729103151488639,7.838723924033825,-498.9903792782758,-421.90679230169843
7.3012499,-31.72184709662932,-12.120573409411694,0.8487783135717785,-113.63991743643432,-500.65715015089216,-416.6507962365532
7.311249900000001,-28.27501454879656,-7.896453991689719,-1.871639064136769,-197.39572330993423,-501.66210145301795,-412.3927874476285
7.321249900000001,-30.920074938050472,-10.451674573067086,-2.856033472304756,-188.68085344549624,-434.1798812978703,-372.10968068222917
7.3312499,-34.09067942240253,-12.825524731497591,-8.502002993221232,-102.11856949942226,-320.7990888294972,-279.30544722743963
7.3412499,-29.345850791002157,-8.116288277403093,-13.185325628434065,-3.7950363080208898,-246.49766054950686,-171.942774088699
7.351249900000001,-22.003451966245766,2.9121570211969234,-13.333888759364552,47.40561993363164,-193.48579009109025,-94.06698099369378
7.361249900000001,-18.324822554802413,11.365074493347503,-12.395178867950127,32.34975910660295,-131.11777804332962,-42.18344437626057
7.3712499,-16.20489369213175,12.633556916574365,-10.306296747141252,-25.146243854140206,-78.87650340676682,1.967150250832889
7.3812499,-14.393431472389704,9.810989763282578,-6.415037156431873,-86.79281924553628,-45.53471326821952,39.12919987969964
7.391249900000001,-13.336471540976033,6.387620766181296,-1.8387347070815476,-134.9515891125452,-20.308158801410656,65.1980722543477
7.401249900000001,-11.987299989883837,2.578813063510444,2.1037698879726143,-156.482049829816,-6.536222228974163,76.88081300967562
7.4112499,-9.162230666366652,-1.9723977117500697,4.92509602923079,-147.69281619039697,-3.1838435626739803,80.06329469483389
7.4212499,-5.2771935035985695,-5.8416300210899745,5.592438195072383,-119.30696997252586,-4.447493176458174,81.36068776663512
7.4312499,-1.3204696265465894,-7.925171960778523,3.851288120706149,-81.34674564508414,-8.12905769515969,81.8886312772681
7.441249900000001,2.8299200922116694,-8.188310231871515,2.181444377227324,-44.381148788560864,-10.735286663861134,80.34728189953155
7.4512499,6.882979705614415,-7.386340492240358,1.9510277013575825,-18.434435798708364,-9.479016871657869,74.01154154185475
7.4612499,9.87431245231308,-6.549297286671983,2.3516716083053564,-4.294133745145139,-4.661126957445848,61.79592261871256
7.4712499,11.489950759070217,-6.145104406309577,2.5402276462192104,-0.5844124512788654,2.633826269195661,45.71398535647301
7.481249900000001,11.924787632796283,-6.352041878248139,2.2782632971278938,-3.991557403036128,10.31016818853376,29.391474407067356
7.491249900000001,11.891787806509281,-6.788834964243118,1.963075034674137,-10.491638481150215,17.40293549038784,14.675398405489856
7.5012499,11.942825709152922,-6.941233600964914,1.957251631416624,-19.699533976092397,23.596912407767,0.996720857300675
7.5112499,11.998983011011257,-6.803295512749488,1.939973400959425,-30.788599704825995,28.923692585511883,-11.718304038018005
7.521249900000001,11.854659632996754,-6.664126598549189,1.8231512501709537,-40.30351041379625,33.344246383777715,-23.67426266439086
7.531249900000001,11.476032063235495,-6.675515108384293,1.9069574826525928,-46.06530090988396,36.51068346323609,-34.33973293384644
7.5412499,10.864499671853425,-6.937526535579348,2.1552219776277757,-46.2367900777319,36.918062569759975,-42.45006266840655
7.5512499,10.286227535569482,-7.395386765964375,2.400688797093343,-39.852404472783775,33.893781190044045,-47.44106128279921
7.561249900000001,9.906767737933745,-7.747507025520759,2.375885242200031,-29.30516895210061,28.782187659001313,-49.598206236130395
7.571249900000001,9.551303258948433,-7.746355684160233,2.024230798905341,-15.578176024468577,21.607439125405694,-49.329961202799176
7.5812499,9.177846163902016,-7.306044830556211,1.7042417863762274,-1.3323703891756795,13.398995383695103,-47.20860125811442
7.5912499,8.811349498825484,-6.703563022623538,1.651657470882288,7.761217248607244,7.242628380054353,-44.7981598377769
7.601249900000001,8.419129174268683,-6.111017256707614,1.732268357644974,12.340418400968224,2.584131124118291,-42.26117441634315
7.611249900000001,8.039432295691295,-5.592720808724284,1.757043319704608,12.961429878310744,-0.49727000531147375,-39.28828689093796
7.6212499,7.706717873217272,-5.083629145320057,1.6003432217102982,9.168741822122241,-2.187532327851082,-35.69323693587386
7.6312499,7.487431601573917,-4.5045795158937665,1.372588209755392,1.604240015090679,-3.6237483756869397,-31.780274510398055
7.641249900000001,7.522566330623738,-4.024233960187348,1.134272112827611,-7.795685960385736,-4.278561996184501,-28.15791932627884
7.651249900000001,7.703622173009291,-3.75885542083745,0.9092641054065438,-17.40686361338319,-4.753064883956186,-25.042792175924962
7.6612499,7.87224351335474,-3.6059656892089156,0.8442443293918642,-26.243435186061358,-5.734659454614848,-22.51545072619531
7.6712499,7.927794476988785,-3.6323308675675174,0.9980035786886786,-33.41234710230831,-6.496992445450315,-20.067217181661015
7.6812499,7.880872679164055,-3.7085718886272714,1.095955062276359,-39.1794871506439,-6.5743663526777665,-17.243871308281776
7.691249900000001,7.9668959294281025,-3.7015014828466812,0.9992114023300479,-43.46014646681661,-6.163298225561763,-14.607569707516049
7.7012499,8.109124037851684,-3.675002155173943,1.0147849529366468,-46.75625354135114,-5.1726732737497265,-12.28417895702212
7.7112499,8.159400578911837,-3.6848149186355488,1.1978969520071716,-49.84937507179915,-2.886059059139398,-10.503887114595784
7.7212499,8.170119019756928,-3.7020087784681275,1.1983043468342582,-52.72450681130975,0.0025401736824936256,-9.135495825234035
7.731249900000001,8.25237890360285,-3.637842397608265,1.0965002314665533,-55.19309539546083,2.7539730672829514,-8.405802268219228
7.741249900000001,8.339845217259604,-3.5893223775393968,1.153549426574625,-56.89979490440497,6.07602121119679,-8.368322131790558
7.7512499,8.296814585602151,-3.713638121118305,1.224724104152692,-56.831788598326476,9.988916827271419,-8.370572243272576
7.7612499,8.283361923721756,-3.9110937578795713,1.231901778963667,-53.899035101211915,14.196513892396498,-7.67401026610893
7.771249900000001,8.40685779353522,-3.990400794334437,1.3021059959242431,-48.86008852471676,18.562982384394793,-6.284457424103733
7.781249900000001,8.40762190236662,-4.0270318071697435,1.418865833482185,-41.421296817664256,22.507110724557414,-4.078835706536395
7.7912499,8.270016406035154,-4.056437072215299,1.3375834192225617,-31.831167664002383,25.634826357296074,-1.1564844729284978
7.8012499,8.253804451021237,-3.9251160140918864,1.0999441844064188,-23.896379678460878,27.67924768888917,1.4703174807100652
7.811249900000001,8.258558008306954,-3.755465752281324,1.012364564809543,-17.901214305137028,29.03718667294119,3.8849955460867225
7.821249900000001,8.220051050261741,-3.669370103632541,1.0209716431830467,-13.963300828192017,30.129314807401183,5.835628360379282
7.8312499,8.28329537683479,-3.500780057071596,0.9658244676880556,-13.309854000497785,31.378631188734907,6.671377639072197
7.8412499,8.487064194680876,-3.3191071421432228,0.9766676781763528,-15.165098204610107,32.828391339253756,6.2330373428022785
7.851249900000001,8.728356925828292,-3.293253893593557,1.1000624506273382,-17.711724132381818,34.205034811210325,4.992736336325882
7.861249900000001,8.881908953792205,-3.398873737052298,1.1877961485782464,-20.173269255606936,35.16844407655156,3.6624483678146738
7.8712499,8.891768724978432,-3.6021221109189665,1.2727259107127262,-21.8420982192688,35.65977845013923,2.9142176095615793
7.8812499,8.732410749538676,-3.8780486678792916,1.34044324028375,-22.267488198054274,35.62143985852435,2.9171152780125182
7.891249900000001,8.476745804978892,-4.093105512637447,1.3259490346586913,-22.16014805233767,34.989520722371196,3.309444077549393
7.901249900000001,8.409206208697881,-4.16457167249393,1.29077259094587,-21.994677791368936,34.32928954648482,3.46221711307658
7.9112499,8.523407246423742,-4.267069915894121,1.3847184752382165,-21.413010334759775,33.69552779879201,3.4102547821462212
7.9212499,8.651317199972691,-4.471556408607842,1.7055991022424162,-20.384680547893765,33.49849867293349,3.0820571997320134
7.931249900000001,8.835354878851781,-4.623631092559878,1.9153893723867697,-19.250099392217564,33.94251252796324,2.3796716558179667
7.941249900000001,9.015526064064696,-4.7045625506439865,1.8988589073945779,-17.986829007473066,33.791885816587104,1.9257719905824735
7.9512499,9.076124431893575,-4.8371138593645355,1.8692527704034647,-16.50581621882183,32.79841951102954,1.8833802578542436
7.9612499,8.949460296076213,-4.95237339253737,1.8180985259259566,-15.26591135053367,31.253085462239028,2.8531163466978304
7.9712499,8.853783360651274,-4.9481664508085155,1.6504971130728472,-14.595716155345627,29.494539040929723,4.856747704564876
7.981249900000001,8.948942218058388,-5.019741027926851,1.4890766582944606,-14.295891015622665,27.955831329770966,5.470558419697907
7.991249900000001,8.955083018514676,-5.133764405802897,1.459389831232932,-14.280005670569023,26.394529550067308,6.773445149354095
8.0012499,8.826220060438903,-5.093567550734351,1.4432127886941066,-15.74111844159329,23.76521897673476,9.117776704762106
8.0112499,8.950527942699333,-5.005578527393797,1.3948560653410167,-17.63068534029249,22.1627648590963,10.506871590132345
8.021249899999999,9.13840485634565,-5.099162569235499,1.3906230400323163,-18.02493925174168,21.691500015151217,11.43747226498682
8.031249899999999,8.70242101146808,-5.15640884013694,1.3437370472152599,-19.202644382319033,18.845465730840456,12.463698148214862
8.0412499,8.272140953346772,-5.228024324274732,1.2666905595661513,-19.80313554486802,15.42089640822099,13.372948313800109
8.0512499,8.126897609911394,-5.298233034834048,1.2022993701223454,-19.32063660374768,13.074608739863853,14.086755907350886
8.0612499,7.927418022765718,-5.25760937613689,1.1498703735638414,-19.795030496782736,11.12748204782225,15.40752207811167
8.0712499,7.709430573456973,-5.1807433115242985,1.2060760337004381,-21.61642426893983,8.977188651394766,17.02871316825314
8.0812499,7.689427012117251,-5.033147901951305,1.3003899706978148,-24.680698643584844,7.671825527770046,18.547575978559422
8.0912499,7.864541676070207,-4.918088096700457,1.414335862161683,-28.369853584685053,7.7930784023118225,19.452251560318224
8.1012499,8.039020365666792,-4.870946477816205,1.6198713100131628,-32.2101192201744,8.579649553012466,19.360046016572465
8.111249899999999,8.252258491241099,-4.868279727988349,1.8027570963472808,-35.15746255594551,10.11975028600451,18.428659795041607
8.1212499,8.426562898325013,-4.9022020534033794,2.0014551343590745,-36.68217956130723,12.268131050740235,16.813557765705518
8.1312499,8.495402762130825,-5.036293081769774,2.210707812396766,-36.54706379313955,14.398175193694268,15.028806596792895
8.1412499,8.558005375769252,-5.237869378172115,2.335359070327909,-34.412157467153136,16.44800270647516,13.527367886528998
8.1512499,8.66304593993143,-5.534286391995875,2.4388679696550777,-29.205520601196607,18.35215184486513,12.373266683183031
8.1612499,8.663252941676156,-5.718331050705547,2.556417643796316,-22.24844699461297,19.12688500245791,11.460930670021384
8.1712499,8.775456977574885,-5.823965903599334,2.7065149569980758,-13.858467633693373,20.233348123615098,10.497741241685404
8.1812499,8.846545496092201,-5.816290360976164,2.857731360533684,-5.64009980314861,20.398980841266102,9.231043176929067
8.191249899999999,8.742717707032332,-5.674171224140968,2.863320221435768,1.0504194004170415,18.974788421046878,7.896149017337888
8.201249899999999,8.67805795949153,-5.5997588311561834,2.8004114178924824,7.015479175727161,17.208655391762797,6.283375242968331
8.2112499,8.471700925008612,-5.325782016440183,2.6872551819757406,9.99213523823917,14.093609766029246,3.942631555790466
8.2212499,8.330225662693291,-5.104345304680574,2.615174842026655,10.065572212706133,10.777593853760882,1.8132551106648593
8.2312499,8.250142955192498,-4.983510921307903,2.6162980122381563,7.476665468957335,8.065358748535303,0.2299943602480133
8.2412499,8.149083732905645,-4.815624642414258,2.607570101131153,2.5352890314711103,5.588435590982275,-1.295414656286307
8.2512499,8.044821291334081,-4.760740157403646,2.5620650455368863,-3.309801056052921,3.226441109617332,-2.8962106225687925
8.2612499,7.908311429630287,-4.842705989880886,2.487429766458123,-8.775078091575727,0.7222106235097064,-4.385064618201047
8.271249899999999,7.825160080489195,-4.9815817343814075,2.426939257056375,-12.561201033575596,-1.3872163709852654,-5.405031548675375
8.281249899999999,7.762879511728829,-5.10560348022939,2.398263217969347,-14.36887157781855,-3.150345522894717,-5.251080700754415
8.2912499,7.786585733383671,-5.249242013338137,2.395621236535866,-13.780976200506943,-4.718154089225603,-4.3233831307253165
8.3012499,7.9534266972707375,-5.385157878364242,2.3866701753802033,-11.002039045953062,-5.421580106009231,-2.962409165877395
8.3112499,8.063578489370185,-5.445985516813508,2.343436730112699,-7.442006902709096,-5.60544380127895,-1.294253318571557
8.3212499,8.090292978445285,-5.4719751492772195,2.2403893232780203,-3.293382910184553,-5.463050810369727,0.39229481915027814
8.3312499,8.127856573349408,-5.4631805108182485,2.1422060561279075,1.291903275573278,-4.973561883984305,1.8073868944124016
8.3412499,8.172864061142757,-5.436062510548258,2.0406551389209318,5.417274976199511,-4.690958815786853,2.697295355790042
8.3512499,8.222840888840253,-5.453261900812039,1.9477148741379522,9.279780621739835,-4.292259274485462,3.34199969376774
8.361249899999999,8.269331834906865,-5.429624447641917,1.9294539072133352,12.727448073626908,-3.7349250790913526,3.5209852779416515
8.3712499,8.34509098345944,-5.396918695535034,1.941386207042845,15.460655508816727,-2.809348305412236,3.1472034679059453
8.3812499,8.386228510993988,-5.397979825996972,1.966985487496843,17.005756296706487,-1.7019037134512833,2.4384083836405384
8.3912499,8.317791321241552,-5.379652608343629,1.9816661887392135,17.372102515881636,-0.7677304625774173,1.7239911831329409
8.4012499,8.178237727358075,-5.3848540536015195,1.9627622009227006,16.952414366046124,-0.3894121101771241,1.166239461203936
8.4112499,8.063525394304914,-5.433592131772453,1.9300993733558591,16.58866309837068,-0.2668095852085076,0.41162908016292765
8.4212499,7.982121751755616,-5.444961380949054,1.889801513028314,16.685332272930204,-0.6789952584297233,-0.8479382053295241
8.4312499,7.925927863948489,-5.442279244739039,1.912122383167601,16.630533263737792,-1.6377273982608773,-1.8066275764069333
8.441249899999999,7.904575496441259,-5.464414684579132,1.9863250710323237,15.803130751311127,-2.2416964291418884,-2.2709015188714465
8.451249899999999,7.8454110076781784,-5.387082364179326,2.0187916471626446,14.210591968103456,-2.658189631820618,-2.4175140913993682
8.4612499,7.804581558293682,-5.274037613325742,1.9687099480345949,12.166970683946827,-2.9342999976910478,-2.337600735706329
8.4712499,7.814944420028668,-5.266970060297001,1.891636710862076,10.437271818055354,-3.3672381492854737,-2.2546489016213838
8.4812499,7.825700663770656,-5.299777911132341,1.8836931704786442,8.894326331297076,-3.8575457659059293,-1.657673635251056
8.4912499,7.860744620909778,-5.330804413957893,1.9600091399051718,7.330117620593109,-3.9606053241417922,-0.709871001699941
8.5012499,7.891426604826153,-5.311092172767244,2.0116134236935954,6.1287495533077765,-3.801953339579667,-0.09904815787585962
8.5112499,7.877081774694738,-5.249568275767168,1.9996372897368717,5.166560590047074,-3.5788779393967767,0.35043296932604184
8.521249899999999,7.897890091058224,-5.299080525759662,2.007431315216438,4.897593742327289,-3.077854080749116,1.0554329606812152
8.531249899999999,7.850322299540281,-5.392740567989579,2.071211338307499,4.959925689740285,-2.8035126052940007,1.715317753607827
8.5412499,7.804904152302591,-5.461023748593346,2.063926560044699,5.605357469889081,-2.712870083151131,2.078735722668306
8.5512499,7.864632556165562,-5.596274141883451,2.026641522772704,7.576227551514721,-2.6562115391371828,2.478786119895999
8.5612499,7.851177565602698,-5.580863129368413,2.0292344652483676,8.73675346420417,-2.920826230620044,3.0393499010933085
8.5712499,7.8255183337174214,-5.460957316341074,2.044360514536141,9.117434130182795,-2.906406207980512,3.444801574965176
8.5812499,7.872965359564586,-5.324787239246021,2.014882533597021,8.257185351531497,-2.6250447389525267,3.5574484397210546
8.5912499,7.981420809338156,-5.231134219981246,1.956809917806346,6.507396465877602,-2.2083695365789704,3.4206113254886894
8.6012499,8.058572661524925,-5.177858659653699,1.9740462194269754,4.4258184522942114,-1.4487608259123976,3.0582694032272206
8.611249899999999,8.07125738990796,-5.211762786161794,2.0842428021621053,2.3845963479339907,-0.600669915659216,2.5824539065603362
8.6212499,8.081072787310218,-5.361091729313955,2.151342877125839,1.3469573023081725,0.45417696460492435,2.2292347546040956
8.6312499,8.012737801802414,-5.51528386887713,2.1336406623667874,1.5449744842574011,1.2552997918750293,1.9943602859161593
8.6412499,7.876297846743013,-5.617203556574895,2.114862789338469,2.9300987112481836,1.2593683866351586,1.9497434486078085
8.6512499,7.8394984205087885,-5.675745167747183,2.1171510126312056,4.728674023642253,0.9258922429718096,1.8227805032794158
8.6612499,7.86631244936909,-5.736829206665761,2.1411234616068837,6.636369187971402,0.5380064236266443,1.8647752932018218
8.6712499,7.840361573401859,-5.749880185554894,2.1305615227527253,8.171162857565875,0.23489661881882856,2.216974808473437
8.6812499,7.877585227518554,-5.664085697086918,2.123876155251333,8.566443587919562,0.2340167744285655,2.5935354231533014
8.691249899999999,7.944863528515426,-5.5283706247406625,2.131022510143013,7.8582954845570985,0.3501547369729189,2.713478197253156
8.7012499,7.935960761696179,-5.427174387472428,2.0919077080272483,6.391714993007714,0.5327713012420293,2.565422284608115
8.7112499,7.946865672876948,-5.406659168459061,2.0834220883624823,4.6065136248925,0.8500147492264555,2.5534363337172286
8.7212499,7.959229307342151,-5.4259675613218485,2.123043853821225,2.72668711214707,1.027459287976408,2.549441239856932
8.7312499,7.982371301100779,-5.481688858727246,2.134135271728368,1.3694490445803915,1.2683591289101028,2.317221268980159
8.7412499,7.983197351071291,-5.516133954122458,2.1209927360275045,0.5187713862489703,1.4187355980052014,2.0649964784285197
8.7512499,7.991846461062501,-5.543079553621053,2.161376786682147,0.2839941853305886,1.521761162697132,1.9584870524502147
8.7612499,8.020010036691929,-5.595007396871675,2.204359630750267,0.9016762054842965,1.826890762828391,2.0026060734731552
8.771249899999999,7.979325856771295,-5.590807731331386,2.175905083661171,1.5966402494202157,1.9013404231002407,2.158303228610992
8.781249899999999,7.9465829216409976,-5.570343310523449,2.1428845892220525,2.271871437013817,1.947343948957877,2.2378270609443334
8.7912499,7.929542176247349,-5.527930349626994,2.1552511213374457,2.4485029481705407,1.9282581697517536,2.613743104464904
8.8012499,7.913323553234521,-5.487391192210366,2.1768483199492756,2.1318627934753613,1.9280322190237358,2.993326676414619
8.8112499,7.927339348647189,-5.516189003817603,2.219584868643621,1.6059356006773793,2.3598868815426175,3.0997340164950935
8.8212499,7.8976267886821505,-5.513285500768857,2.2519074582280085,0.6334359647556472,2.463832410346334,3.1284045522224013
8.8312499,7.833649368589893,-5.545637482102581,2.2746313894886367,0.2175755068878459,2.223732790013304,3.1443508305440915
8.8412499,7.779300786840583,-5.5896370179106585,2.283037531117721,0.17244141331501608,1.8370123725216452,3.2260222586032175
8.8512499,7.747364850044173,-5.602497541319935,2.261381825097296,0.22039844204859185,1.2513057907502123,3.557827467510199
8.861249899999999,7.718328455320798,-5.577880027870733,2.2728248124240644,0.19519483740435217,0.8114702255235271,3.9725632203554007
8.8712499,7.735247241358765,-5.535535636580878,2.2874180354339124,-0.1277569179473028,0.5553820867186815,4.302517567686565
8.8812499,7.802380004485215,-5.532352139656302,2.2804626712114113,-0.6225525457983834,0.2548736599678187,4.46534786520488
8.8912499,7.823661797505303,-5.542877595437366,2.301502660036337,-1.2290633050194646,0.044141224354299215,4.623424498457402
8.9012499,7.807119484629878,-5.53809059349137,2.2987075955767287,-1.8570226781397345,0.09801461020465402,4.5930428762303155
8.9112499,7.809399815087608,-5.542494643530985,2.2371736424543514,-2.2972273003385566,0.09703797253742955,4.45161036356873
8.9212499,7.798785161321714,-5.559729104157348,2.1934536615097713,-2.470362843932482,0.03146714788036021,4.393771210650001
8.9312499,7.781758340063558,-5.5579660218301425,2.186916047290525,-2.6976312046141437,-0.0023955455139233906,4.482610170387943
8.941249899999999,7.834306156551628,-5.590915839455093,2.19857472513022,-2.6929013329007985,0.2183717859772344,4.657570153883515
8.9512499,7.911884174167627,-5.607577011583026,2.219885047306459,-2.5022258695112076,0.613672970168613,5.037146604385908
8.9612499,7.957467326410095,-5.615150977755223,2.220115812840595,-2.370166853667294,0.9502660772415074,5.525788869268608
8.9712499,7.9561307352921515,-5.65504562963952,2.186125819609878,-2.2994001595960754,1.1769434038416682,5.874163137451205
8.9812499,7.92948057704135,-5.706905445872012,2.1366348738390455,-2.005255002137976,1.2673236110423507,6.208389434920697
8.9912499,7.87825708710687,-5.701552979058351,2.05008303225395,-2.1482099418756624,1.1257535498105513,6.453213506698945
9.0012499,7.834438385671428,-5.685767347602313,1.9760557227584419,-3.249855390817815,0.8887423599495008,6.82915245632592
9.0112499,7.819213504138483,-5.703092623046485,1.9283052602003385,-5.229180855370993,1.0411193564194732,7.339848824785996
9.0212499,7.835538521555786,-5.701239461421295,1.8393823915064689,-8.365039028148034,1.278819775421947,7.922484383270667
9.0312499,7.8560533246911834,-5.727110813946829,1.773586725491757,-12.07278780634747,1.5715648758994583,8.534952849423542
9.0412499,7.824182265498985,-5.848571251577682,1.7328743346458284,-15.783506971470663,1.855471653457237,9.23955144121904
9.0512499,7.756201525281961,-6.030160797725007,1.6415330300757505,-19.727706050687384,2.022623773628586,10.025243639868707
9.0612499,7.6519071542265955,-6.222699549885382,1.471238693898527,-23.875003549994126,1.9137157240822353,11.22831477306241
9.0712499,7.48792137631351,-6.364587637067984,1.245763944333214,-27.86773157164086,1.542618041585323,12.472110628369727
9.0812499,7.290190651084896,-6.433629793493229,1.0111477092845165,-32.20182987420606,0.8215677136244878,14.01342728194061
9.0912499,7.0984171846773645,-6.486872123866722,0.7901843456741668,-36.77683516509046,-0.12186438000805483,15.90015134465344
9.1012499,6.978598789010738,-6.539275506400168,0.5768537434461598,-41.689122672299064,-0.7049670624212567,17.827364931280847
9.1112499,6.811574859668649,-6.530642588689588,0.35434271293717123,-46.98171323201217,-1.017711265039726,19.986764463334467
9.1212499,6.5856522427216335,-6.474604343310428,0.16066522573985575,-52.359976947331354,-0.9463938791698345,22.165609529770418
9.1312499,6.370147014908642,-6.449516931002331,0.022477015568542556,-57.732820709269994,-0.16468398823199953,24.530897927903716
9.1412499,6.13769914449654,-6.503937652265956,-0.07936153023615519,-62.487966564245426,1.3769403616072469,27.458976210626272
9.1512499,5.886397951721094,-6.59112990038673,-0.11673574128098098,-66.40089903172014,3.794296185580459,30.8681356156768
9.1612499,5.631557852434752,-6.565320077507493,-0.1288646806079255,-69.67956041959414,6.966929241985497,34.82658731707435
9.1712499,5.3604762224160645,-6.498943584665537,-0.19258168414106624,-71.91645557886844,10.954177271696786,39.07480690103464
9.1812499,4.992865619263203,-6.606453132675106,-0.2851888698404374,-72.52838080012673,15.541425049079264,44.100491202179626
9.1912499,4.554382887414442,-6.649593290746086,-0.3709493934653887,-72.34800150891547,20.71481863071883,50.39689017953467
9.2012499,4.188982515509909,-6.428221159115283,-0.4990510205951617,-72.65491031090457,27.026643586110662,57.198739075482365
9.2112499,3.8473788832439935,-6.114347860615079,-0.5619280734874109,-74.25475638394323,34.14157769794462,63.80563604345326
9.2212499,3.523015815598724,-5.833658038521313,-0.503504836272801,-77.81210179875387,41.777746289758106,69.73259825254075
9.2312499,3.2098139605044342,-5.534887316262205,-0.5068835071984038,-82.86921565311508,50.19074348790142,74.39962910631097
9.2412499,2.804312296555642,-5.318439663729674,-0.5483856682861746,-87.73228972366346,58.69339457297472,78.33243456058106
9.2512499,2.391717775154382,-5.311359501513303,-0.5124413637244292,-91.0721989981531,66.69361782037389,82.30687462970386
9.2612499,1.9523287992849216,-5.416847471442652,-0.4664193729924751,-91.97284486018964,75.01743759495984,87.84928762383595
9.2712499,1.4594608122646522,-5.422651052633178,-0.44463300776631104,-90.45205426934868,84.48223555021575,97.12879309532966
9.2812499,1.133017208757798,-5.27787811655969,-0.41984013008993415,-87.61114719403578,93.21518997215203,107.98212516621977
9.2912499,0.9648541356892621,-5.029430982473177,-0.37008884069445774,-83.89648530904708,101.51370670143358,119.74374961195083
9.3012499,0.8410395967227003,-4.752881965165424,-0.24237138850441622,-79.88836199381882,110.12083331341682,132.84999862610326
9.3112499,0.7215690901053393,-4.534197107843013,-0.09612107573685028,-75.59574155083239,118.79254644649087,146.3123352356881
9.3212499,0.6279359524239599,-4.30956141683018,-0.01522792502362653,-70.63142840331489,127.24157099859346,159.90238426993724
9.3312499,0.5054499788731449,-4.225523460236788,0.18607377774367556,-64.92720037827465,134.85273176115237,173.37126830234686
9.3412499,0.33953740473052635,-4.369846953974785,0.6256128220762657,-58.69650855336728,142.19327976314895,186.62018274665311
9.3512499,0.1509378684395882,-4.566058379633418,0.9367100662029719,-51.935273342433035,149.21595268251278,199.0347786688694
9.3612499,-0.030717558585098493,-4.661998628423619,1.0274423837460218,-44.123446489841875,155.01150357601762,210.43042403730516
9.3712499,-0.14212365111792807,-4.76451321247773,1.2522219699421908,-35.706219703660054,159.54940116908006,220.96001677592616
9.3812499,-0.26523359896549614,-5.2377213806444844,1.8831475942640215,-27.18393867561582,163.3868994877906,231.07298601059813
9.3912499,-0.39921379933105533,-5.745515522998123,2.5298475417144486,-19.110164348124652,167.79562097865664,241.03574019106577
9.4012499,-0.6089533192468315,-6.118593556541073,2.987442259713403,-11.02786059825057,171.35013435699608,250.08829633425484
9.4112499,-0.8416412287850126,-6.718318695279096,3.6222233495549934,-2.8250874741040235,173.72239944033586,258.09123848401856
9.4212499,-0.9881717519916726,-7.222268067217267,4.256525860714056,5.138068601161554,176.00192658288245,264.87128995104524
9.4312499,-1.1682228849697793,-7.813746836374966,4.845615158344358,14.104852209198889,176.3384002983454,270.34803723395845
9.4412499,-1.331699581977025,-8.84437018996555,5.653889176152825,24.389623506775425,174.7957789047854,275.44739679536735
9.4512499,-1.4642372386028972,-9.628886717623809,6.387497917625263,34.581863846979005,171.4450621274784,280.1560233614459
9.4612499,-1.6055018062831743,-10.304734094561093,7.1978184970706875,44.42657659179356,163.92613472964834,283.38138985548613
9.4712499,-1.6489949374727482,-11.263647142732042,8.35624725313874,53.87146937219371,152.90810111310836,284.5564713331612
9.4812499,-1.6583044239080154,-12.051979621746618,9.555163371083903,62.58256445675764,137.40118925069734,282.31658381379793
9.4912499,-1.5569936832338584,-12.927782256622322,10.602245025978538,70.05126946184755,119.4702686724174,277.96193697354545
9.5012499,-1.169436010907325,-14.189189526091905,11.751468461148704,76.54765681537785,101.09790103092465,274.0939642106887
9.5112499,-0.5438624514321202,-15.612721286372107,13.492340196903095,84.35299563056977,80.36241160285819,270.0048191910116
9.5212499,0.23654326535657763,-17.470835261003316,15.548184862896122,97.0000405351844,56.56432459161539,264.66472455897036
9.5312499,1.1221005872019245,-19.69013965005354,17.17870937671117,117.68307532333841,29.094660394020387,257.1980161362691
9.5412499,1.86849393992956,-21.844312276682565,18.818390394193933,144.71251494453972,-1.9240196764544197,246.27406412967804
9.5512499,2.3267269148645164,-23.55867832955436,20.36089262358967,174.07024627146097,-36.38489559119074,230.4237997685457
9.5612499,2.7228508727811294,-24.23703479311361,20.762446815173462,198.21337471286992,-74.70673403467684,208.0334419340775
9.5712499,3.2203995986855682,-23.498203974398905,20.630847854688717,204.38578190545994,-116.15867224396003,178.46174279058715
9.5812499,3.924017705107899,-21.21690014513059,21.283090136529815,182.41944979399472,-161.04779378346007,139.6300085304348
