# Time (seconds),Accel_X,Accel_Y,Accel_Z,Gyro_X,Gyro_Y,Gyro_Z
0.0012499,3.993528366088867,-7.9846625328063965,4.302380561828613,-0.0457763671875,0.2899169921875,-0.0457763671875
0.0037499,3.9815573692321777,-8.020575523376465,4.311957359313965,-0.2593994140625,0.457763671875,-0.335693359375
0.0062499,3.971980571746826,-8.063671112060547,4.3191399574279785,-0.1373291015625,0.274658203125,-0.244140625
0.0087499,3.957615375518799,-8.101978302001953,4.323928356170654,0.1068115234375,0.2593994140625,-0.1678466796875
0.0112499,3.950432777404785,-8.130708694458008,4.326322555541992,0.4119873046875,-0.06103515625,-0.06103515625
0.0137499,3.936067581176758,-8.14028549194336,4.321534156799316,0.3509521484375,-0.1373291015625,-0.1220703125
0.016249899999999998,3.928884983062744,-8.142680168151855,4.311957359313965,0.42724609375,-0.18310546875,-0.3204345703125
0.0187499,3.9264907836914062,-8.123526573181152,4.2975921630859375,0.42724609375,-0.1678466796875,-0.1373291015625
0.021249900000000002,3.931279182434082,-8.097189903259277,4.2760443687438965,0.457763671875,-0.1983642578125,-0.030517578125
0.023749899999999997,3.9456443786621094,-8.063671112060547,4.2544965744018555,0.579833984375,0.06103515625,-0.3509521484375
0.0262499,3.9624037742614746,-8.02536392211914,4.235342979431152,0.3814697265625,-0.0457763671875,-0.2899169921875
0.028749900000000002,3.974374771118164,-7.989450931549072,4.218583583831787,0.4425048828125,0,-0.0457763671875
0.031249899999999997,3.9863457679748535,-7.953537940979004,4.216189384460449,0.213623046875,0.030517578125,-0.0457763671875
0.0337499,3.9887399673461914,-7.929595947265625,4.213795185089111,-0.0152587890625,-0.1220703125,0.06103515625
0.0362499,3.993528366088867,-7.91283655166626,4.223371982574463,0.0457763671875,0.0762939453125,0.152587890625
0.0387499,3.993528366088867,-7.903259754180908,4.235342979431152,-0.1373291015625,0.0762939453125,0.0762939453125
0.0412499,3.9911341667175293,-7.908048152923584,4.240131378173828,-0.42724609375,0.06103515625,0.091552734375
0.0437499,3.9815573692321777,-7.9176249504089355,4.2544965744018555,-0.42724609375,0.213623046875,0.18310546875
0.0462499,3.971980571746826,-7.9415669441223145,4.264073371887207,-0.335693359375,0.274658203125,0.1678466796875
0.0487499,3.957615375518799,-7.970297336578369,4.278438568115234,-0.335693359375,0.274658203125,0.1678466796875
0.0512499,3.9432501792907715,-8.003816604614258,4.290409564971924,-0.213623046875,0.1220703125,0.0762939453125
0.053749899999999996,3.931279182434082,-8.037335395812988,4.309563159942627,-0.1983642578125,0.0152587890625,0.1678466796875
0.0562499,3.9240965843200684,-8.063671112060547,4.326322555541992,-0.18310546875,0.0457763671875,0.030517578125
0.0587499,3.9217023849487305,-8.087613105773926,4.335899353027344,-0.1220703125,0.0457763671875,0.213623046875
0.061249899999999996,3.9240965843200684,-8.099584579467773,4.343081951141357,-0.06103515625,0.0152587890625,0.1068115234375
0.0637499,3.93367338180542,-8.101978302001953,4.347870349884033,0.1983642578125,-0.06103515625,0.1068115234375
0.0662499,3.9408559799194336,-8.097189903259277,4.343081951141357,0.244140625,-0.1068115234375,0.1220703125
0.0687499,3.952826976776123,-8.08282470703125,4.338293552398682,0.3204345703125,-0.213623046875,0
0.0712499,3.957615375518799,-8.063671112060547,4.32871675491333,0.30517578125,-0.091552734375,-0.1373291015625
0.0737499,3.9647979736328125,-8.044517517089844,4.311957359313965,0.274658203125,-0.18310546875,-0.1220703125
0.0762499,3.971980571746826,-8.020575523376465,4.2951979637146,0.1678466796875,-0.2288818359375,0.030517578125
0.0787499,3.9815573692321777,-7.999027729034424,4.268861770629883,0.3662109375,-0.1983642578125,0.06103515625
0.0812499,3.9887399673461914,-7.977479934692383,4.2544965744018555,0.18310546875,0.06103515625,-0.0152587890625
0.0837499,3.998316764831543,-7.9631147384643555,4.240131378173828,0.213623046875,0.1983642578125,-0.091552734375
0.0862499,3.998316764831543,-7.951143741607666,4.23773717880249,-0.0457763671875,0.2899169921875,-0.152587890625
0.0887499,3.995922565460205,-7.953537940979004,4.242525577545166,-0.0152587890625,0.06103515625,-0.1678466796875
0.0912499,3.995922565460205,-7.960720539093018,4.24970817565918,0.152587890625,0.244140625,-0.1983642578125
0.0937499,3.9911341667175293,-7.970297336578369,4.261679172515869,0.0152587890625,0.18310546875,-0.1373291015625
0.0962499,3.9887399673461914,-7.9846625328063965,4.2760443687438965,0.030517578125,0.1220703125,-0.244140625
0.0987499,3.9863457679748535,-7.999027729034424,4.285621166229248,0.1678466796875,0.244140625,-0.152587890625
0.1012499,3.9839515686035156,-8.010998725891113,4.299986362457275,-0.1220703125,0.335693359375,-0.091552734375
0.1037499,3.97916316986084,-8.02536392211914,4.314351558685303,0.091552734375,0.1068115234375,-0.0762939453125
0.1062499,3.97916316986084,-8.039729118347168,4.331110954284668,0.0762939453125,0.152587890625,-0.152587890625
0.1087499,3.976768970489502,-8.051700592041016,4.345476150512695,-0.030517578125,0.274658203125,-0.152587890625
0.1112499,3.974374771118164,-8.066065788269043,4.355052947998047,0.091552734375,0.18310546875,-0.0152587890625
0.1137499,3.9695863723754883,-8.073247909545898,4.357447147369385,0.1220703125,0.30517578125,0.1220703125
0.1162499,3.9624037742614746,-8.075642585754395,4.355052947998047,0.244140625,0.1068115234375,0.1068115234375
0.1187499,3.957615375518799,-8.070854187011719,4.350264549255371,0.3204345703125,-0.0152587890625,-0.0152587890625
0.1212499,3.957615375518799,-8.063671112060547,4.3406877517700195,0.3662109375,0.0762939453125,-0.0152587890625
0.1237499,3.9647979736328125,-8.042123794555664,4.314351558685303,0.42724609375,0,0.0762939453125
0.1262499,3.9647979736328125,-8.030152320861816,4.299986362457275,0.3662109375,-0.0152587890625,0.091552734375
0.1287499,3.9647979736328125,-8.015787124633789,4.2951979637146,0.2593994140625,0.0152587890625,0.091552734375
0.1312499,3.9695863723754883,-8.003816604614258,4.285621166229248,0.30517578125,-0.030517578125,0.030517578125
0.1337499,3.9695863723754883,-7.989450931549072,4.278438568115234,0.18310546875,-0.0457763671875,0.0762939453125
0.1362499,3.971980571746826,-7.977479934692383,4.266467571258545,0.1678466796875,0.0457763671875,0.152587890625
0.1387499,3.974374771118164,-7.965508937835693,4.2544965744018555,0.091552734375,-0.1220703125,0.1678466796875
0.1412499,3.971980571746826,-7.95832633972168,4.244919776916504,-0.1068115234375,0.091552734375,0.1373291015625
0.1437499,3.9647979736328125,-7.948749542236328,4.23773717880249,-0.2288818359375,-0.06103515625,0.2593994140625
0.1462499,3.952826976776123,-7.943961143493652,4.230554580688477,-0.244140625,-0.1983642578125,0.2593994140625
0.1487499,3.936067581176758,-7.9415669441223145,4.225766181945801,-0.2899169921875,-0.244140625,0.244140625
0.1512499,3.9240965843200684,-7.94635534286499,4.225766181945801,-0.4425048828125,-0.1373291015625,0.274658203125
0.1537499,3.912125587463379,-7.951143741607666,4.225766181945801,-0.7476806640625,-0.1678466796875,0.2899169921875
0.1562499,3.909731388092041,-7.95832633972168,4.235342979431152,-0.7781982421875,-0.091552734375,0.18310546875
0.1587499,3.912125587463379,-7.9631147384643555,4.244919776916504,-0.579833984375,-0.0152587890625,0.1220703125
0.1612499,3.9193081855773926,-7.970297336578369,4.256890773773193,-0.5645751953125,-0.091552734375,0.3814697265625
0.1637499,3.9264907836914062,-7.979874134063721,4.266467571258545,-0.9002685546875,0.0457763671875,0.3814697265625
0.1662499,3.9384617805480957,-7.994239330291748,4.273650169372559,-1.03759765625,0.030517578125,0.4425048828125
0.1687499,3.9456443786621094,-8.010998725891113,4.2760443687438965,-0.8544921875,-0.1220703125,0.54931640625
0.1712499,3.952826976776123,-8.030152320861816,4.278438568115234,-0.8087158203125,-0.0152587890625,0.5340576171875
0.1737499,3.9600095748901367,-8.04691219329834,4.28322696685791,-0.9765625,0,0.4119873046875
0.17624990000000001,3.9600095748901367,-8.061277389526367,4.2951979637146,-0.8392333984375,-0.0152587890625,0.4119873046875
0.1787499,3.9600095748901367,-8.073247909545898,4.304774761199951,-0.8087158203125,0.030517578125,0.4425048828125
0.1812499,3.9600095748901367,-8.08282470703125,4.314351558685303,-0.54931640625,0.1068115234375,0.335693359375
0.1837499,3.957615375518799,-8.085219383239746,4.3191399574279785,-0.5340576171875,-0.091552734375,0.2899169921875
0.1862499,3.9671921730041504,-8.085219383239746,4.3191399574279785,-0.3509521484375,0.0152587890625,0.244140625
0.1887499,3.9671921730041504,-8.073247909545898,4.314351558685303,-0.4119873046875,-0.0152587890625,0.1220703125
0.1912499,3.9695863723754883,-8.061277389526367,4.311957359313965,-0.1983642578125,-0.244140625,0.1068115234375
0.1937499,3.974374771118164,-8.04691219329834,4.307168960571289,-0.030517578125,-0.1983642578125,-0.0152587890625
0.1962499,3.974374771118164,-8.034940719604492,4.304774761199951,-0.091552734375,-0.335693359375,-0.0457763671875
0.1987499,3.97916316986084,-8.022970199584961,4.304774761199951,-0.0152587890625,-0.1220703125,0.1068115234375
0.2012499,3.9839515686035156,-8.010998725891113,4.299986362457275,0.18310546875,-0.0152587890625,-0.030517578125
0.2037499,3.9887399673461914,-8.001421928405762,4.2975921630859375,0.18310546875,-0.0152587890625,-0.335693359375
0.2062499,3.998316764831543,-7.99184513092041,4.2975921630859375,0.274658203125,-0.030517578125,-0.3814697265625
0.20874990000000002,4.005499362945557,-7.982268333435059,4.292803764343262,0.3204345703125,0.0457763671875,-0.2288818359375
0.2112499,4.01268196105957,-7.979874134063721,4.2975921630859375,0.4119873046875,0.1678466796875,-0.18310546875
0.2137499,4.015076160430908,-7.9846625328063965,4.2975921630859375,0.30517578125,0.152587890625,-0.3204345703125
0.2162499,4.010287761688232,-7.999027729034424,4.304774761199951,0.274658203125,0.1068115234375,-0.2288818359375
0.2187499,4.005499362945557,-8.015787124633789,4.309563159942627,0.42724609375,0.2899169921875,-0.1220703125
0.2212499,3.9911341667175293,-8.039729118347168,4.311957359313965,0.3509521484375,0.3662109375,-0.152587890625
0.2237499,3.9815573692321777,-8.058882713317871,4.3191399574279785,0.4119873046875,0.2593994140625,-0.2288818359375
0.2262499,3.971980571746826,-8.078036308288574,4.321534156799316,0.6866455078125,0.030517578125,0
0.2287499,3.9624037742614746,-8.092401504516602,4.32871675491333,0.732421875,0.091552734375,-0.1068115234375
0.2312499,3.955221176147461,-8.10437297821045,4.333505153656006,0.6561279296875,0.091552734375,-0.244140625
0.2337499,3.955221176147461,-8.106766700744629,4.331110954284668,0.6561279296875,-0.091552734375,-0.0762939453125
0.2362499,3.955221176147461,-8.106766700744629,4.323928356170654,0.762939453125,-0.30517578125,-0.030517578125
0.23874990000000001,3.957615375518799,-8.099584579467773,4.304774761199951,0.6256103515625,-0.0762939453125,-0.06103515625
0.2412499,3.9647979736328125,-8.08282470703125,4.290409564971924,0.54931640625,-0.06103515625,-0.213623046875
0.2437499,3.9647979736328125,-8.058882713317871,4.273650169372559,0.3662109375,0.06103515625,-0.0152587890625
0.2462499,3.9671921730041504,-8.020575523376465,4.256890773773193,0.6256103515625,-0.244140625,0.0762939453125
0.2487499,3.9671921730041504,-7.99184513092041,4.240131378173828,0.54931640625,-0.3814697265625,0.0457763671875
0.2512499,3.9624037742614746,-7.95832633972168,4.223371982574463,0.3204345703125,-0.18310546875,0.06103515625
0.25374990000000003,3.9624037742614746,-7.931990146636963,4.213795185089111,0.1983642578125,-0.1678466796875,0.3204345703125
0.25624990000000003,3.957615375518799,-7.920019149780273,4.213795185089111,0.1068115234375,0.1068115234375,0.030517578125
0.25874990000000003,3.950432777404785,-7.910442352294922,4.225766181945801,-0.1373291015625,-0.06103515625,0.1220703125
0.26124990000000003,3.9384617805480957,-7.915230751037598,4.240131378173828,-0.335693359375,-0.1220703125,0.152587890625
0.26374990000000004,3.9217023849487305,-7.920019149780273,4.259284973144531,-0.3204345703125,0.06103515625,0.1983642578125
0.26624990000000004,3.9049429893493652,-7.931990146636963,4.271255970001221,-0.396728515625,0.2593994140625,0.1220703125
0.26874990000000004,3.8953661918640137,-7.94635534286499,4.280832767486572,-0.54931640625,0.18310546875,0.2288818359375
0.27124990000000004,3.892971992492676,-7.965508937835693,4.288015365600586,-0.5645751953125,0.1068115234375,0.2288818359375
0.27374990000000005,3.8977603912353516,-7.982268333435059,4.292803764343262,-0.5340576171875,-0.030517578125,0.2288818359375
0.27624990000000005,3.9049429893493652,-8.001421928405762,4.2975921630859375,-0.67138671875,-0.0457763671875,0.1678466796875
0.27874990000000005,3.9169139862060547,-8.01339340209961,4.304774761199951,-0.5645751953125,-0.1678466796875,0.3662109375
0.28124990000000005,3.9264907836914062,-8.022970199584961,4.307168960571289,-0.701904296875,0.06103515625,0.1373291015625
0.28374990000000005,3.9408559799194336,-8.032546997070312,4.311957359313965,-0.518798828125,0.213623046875,0.1068115234375
0.28624990000000006,3.952826976776123,-8.039729118347168,4.314351558685303,-0.7171630859375,0.1220703125,-0.0457763671875
0.28874990000000006,3.955221176147461,-8.039729118347168,4.3191399574279785,-0.5950927734375,-0.1373291015625,0.1068115234375
0.2912499,3.9624037742614746,-8.037335395812988,4.316745758056641,-0.152587890625,-0.1220703125,0.2899169921875
0.2937499,3.9624037742614746,-8.034940719604492,4.311957359313965,-0.2288818359375,-0.244140625,0.2593994140625
0.2962499,3.9671921730041504,-8.034940719604492,4.299986362457275,-0.1373291015625,-0.1983642578125,0.1068115234375
0.2987499,3.976768970489502,-8.042123794555664,4.285621166229248,-0.3509521484375,-0.06103515625,0.1220703125
0.3012499,3.9815573692321777,-8.051700592041016,4.2760443687438965,-0.2899169921875,0.030517578125,0.18310546875
0.3037499,3.995922565460205,-8.054094314575195,4.2760443687438965,-0.030517578125,-0.0457763671875,0.0152587890625
0.3062499,4.000710964202881,-8.054094314575195,4.278438568115234,-0.396728515625,-0.1983642578125,-0.3662109375
0.3087499,4.010287761688232,-8.04691219329834,4.285621166229248,-0.213623046875,-0.0762939453125,-0.2593994140625
0.3112499,4.01268196105957,-8.039729118347168,4.290409564971924,0.0762939453125,-0.030517578125,-0.1983642578125
0.3137499,4.01268196105957,-8.030152320861816,4.302380561828613,-0.0152587890625,-0.1220703125,-0.1678466796875
0.31624990000000003,4.0078935623168945,-8.022970199584961,4.304774761199951,0.1373291015625,-0.06103515625,-0.030517578125
0.31874990000000003,4.003105163574219,-8.018181800842285,4.311957359313965,0.3662109375,0.0762939453125,-0.30517578125
0.32124990000000003,3.998316764831543,-8.015787124633789,4.321534156799316,0.4425048828125,0.0762939453125,-0.2899169921875
0.32374990000000003,3.995922565460205,-8.020575523376465,4.323928356170654,0.3204345703125,0.213623046875,-0.3814697265625
0.32624990000000004,3.998316764831543,-8.02536392211914,4.331110954284668,0.42724609375,0.3509521484375,-0.335693359375
0.32874990000000004,4.000710964202881,-8.039729118347168,4.335899353027344,0.48828125,0.2288818359375,-0.3204345703125
0.33124990000000004,4.003105163574219,-8.04930591583252,4.343081951141357,0.7476806640625,0.213623046875,-0.18310546875
0.33374990000000004,3.9911341667175293,-8.070854187011719,4.355052947998047,0.5645751953125,0.030517578125,-0.3662109375
0.33624990000000005,3.9887399673461914,-8.078036308288574,4.355052947998047,0.885009765625,0.030517578125,-0.274658203125
0.33874990000000005,3.9863457679748535,-8.075642585754395,4.343081951141357,0.9918212890625,-0.1220703125,-0.30517578125
0.34124990000000005,3.9863457679748535,-8.068459510803223,4.335899353027344,0.9307861328125,-0.0457763671875,-0.2899169921875
0.34374990000000005,3.9863457679748535,-8.04930591583252,4.3191399574279785,1.007080078125,-0.152587890625,-0.2899169921875
0.34624990000000005,3.9815573692321777,-8.027758598327637,4.307168960571289,0.7781982421875,-0.213623046875,-0.3509521484375
0.34874990000000006,3.9815573692321777,-8.003816604614258,4.288015365600586,0.8697509765625,-0.0457763671875,-0.2593994140625
0.35124990000000006,3.974374771118164,-7.9846625328063965,4.280832767486572,0.7781982421875,0.0762939453125,-0.244140625
0.3537499,3.9695863723754883,-7.9631147384643555,4.261679172515869,0.79345703125,-0.0762939453125,-0.274658203125
0.3562499,3.9624037742614746,-7.943961143493652,4.247313976287842,0.5950927734375,-0.0152587890625,-0.030517578125
0.3587499,3.9480385780334473,-7.924807548522949,4.230554580688477,0.54931640625,0.091552734375,0.06103515625
0.3612499,3.9432501792907715,-7.905653953552246,4.218583583831787,0.4119873046875,0.0457763671875,-0.0762939453125
0.3637499,3.936067581176758,-7.893682956695557,4.211400985717773,0.0762939453125,0.0152587890625,0.0457763671875
0.3662499,3.9384617805480957,-7.886500358581543,4.211400985717773,-0.1678466796875,-0.1678466796875,0.1068115234375
0.3687499,3.93367338180542,-7.888894557952881,4.213795185089111,-0.30517578125,0.06103515625,0.335693359375
0.3712499,3.931279182434082,-7.8960771560668945,4.223371982574463,-0.42724609375,0.0762939453125,0.244140625
0.3737499,3.9264907836914062,-7.905653953552246,4.225766181945801,-0.5950927734375,0.0457763671875,0.3204345703125
0.3762499,3.9217023849487305,-7.924807548522949,4.235342979431152,-0.7781982421875,0.0457763671875,0.3509521484375
0.37874990000000003,3.9193081855773926,-7.936778545379639,4.23773717880249,-0.762939453125,0.0762939453125,0.5035400390625
0.38124990000000003,3.914519786834717,-7.955932140350342,4.244919776916504,-0.6866455078125,-0.06103515625,0.5950927734375
0.38374990000000003,3.9169139862060547,-7.975085735321045,4.252102375030518,-1.0528564453125,-0.030517578125,0.396728515625
0.38624990000000003,3.914519786834717,-7.996633529663086,4.264073371887207,-1.2054443359375,-0.0457763671875,0.2899169921875
0.38874990000000004,3.9193081855773926,-8.018181800842285,4.280832767486572,-1.15966796875,-0.0152587890625,0.4425048828125
0.39124990000000004,3.9264907836914062,-8.039729118347168,4.2951979637146,-1.1138916015625,-0.1373291015625,0.518798828125
0.39374990000000004,3.93367338180542,-8.051700592041016,4.307168960571289,-1.15966796875,-0.213623046875,0.579833984375
0.39624990000000004,3.9480385780334473,-8.058882713317871,4.314351558685303,-1.129150390625,-0.1220703125,0.579833984375
0.39874990000000005,3.9624037742614746,-8.061277389526367,4.309563159942627,-1.15966796875,-0.1983642578125,0.4730224609375
0.40124990000000005,3.976768970489502,-8.058882713317871,4.299986362457275,-0.9613037109375,-0.3662109375,0.4425048828125
0.40374990000000005,3.9839515686035156,-8.054094314575195,4.285621166229248,-0.8697509765625,0.0152587890625,0.457763671875
0.40624990000000005,3.993528366088867,-8.051700592041016,4.273650169372559,-1.15966796875,-0.091552734375,0.2899169921875
0.40874990000000005,3.9911341667175293,-8.051700592041016,4.268861770629883,-1.129150390625,-0.1068115234375,0.30517578125
0.41124990000000006,3.9887399673461914,-8.04930591583252,4.268861770629883,-0.885009765625,-0.0457763671875,0.3662109375
0.41374990000000006,3.9863457679748535,-8.051700592041016,4.2760443687438965,-0.8087158203125,-0.1220703125,0.3509521484375
0.41624990000000006,3.97916316986084,-8.054094314575195,4.278438568115234,-0.762939453125,-0.0762939453125,0.3204345703125
0.4187499,3.974374771118164,-8.056488990783691,4.28322696685791,-0.6561279296875,-0.030517578125,0.1373291015625
0.4212499,3.971980571746826,-8.061277389526367,4.285621166229248,-0.5035400390625,-0.030517578125,0.2899169921875
0.4237499,3.971980571746826,-8.058882713317871,4.285621166229248,-0.48828125,-0.091552734375,0.06103515625
0.4262499,3.974374771118164,-8.061277389526367,4.285621166229248,-0.4425048828125,-0.1068115234375,0.0152587890625
0.4287499,3.974374771118164,-8.061277389526367,4.290409564971924,-0.274658203125,0.030517578125,0.091552734375
0.4312499,3.97916316986084,-8.061277389526367,4.2951979637146,-0.244140625,-0.0457763671875,0.0762939453125
0.4337499,3.9839515686035156,-8.063671112060547,4.304774761199951,-0.1983642578125,-0.0152587890625,0.0762939453125
0.4362499,3.9863457679748535,-8.070854187011719,4.311957359313965,0.06103515625,0.0152587890625,-0.0762939453125
0.4387499,3.9911341667175293,-8.073247909545898,4.3191399574279785,0.152587890625,0.091552734375,0.0152587890625
0.44124990000000003,3.9887399673461914,-8.078036308288574,4.321534156799316,0.3814697265625,0.2288818359375,0.06103515625
0.44374990000000003,3.9911341667175293,-8.08043098449707,4.321534156799316,0.42724609375,0.091552734375,-0.1068115234375
0.44624990000000003,3.9911341667175293,-8.08282470703125,4.321534156799316,0.579833984375,0.2288818359375,-0.06103515625
0.44874990000000003,3.9887399673461914,-8.08282470703125,4.321534156799316,0.762939453125,0.0762939453125,-0.2288818359375
0.45124990000000004,3.993528366088867,-8.085219383239746,4.323928356170654,0.579833984375,0.0762939453125,-0.2288818359375
0.45374990000000004,3.995922565460205,-8.085219383239746,4.323928356170654,0.9918212890625,0.18310546875,-0.3509521484375
0.45624990000000004,4.000710964202881,-8.078036308288574,4.323928356170654,0.8392333984375,0.1373291015625,-0.48828125
0.45874990000000004,4.000710964202881,-8.070854187011719,4.311957359313965,0.8392333984375,0.152587890625,-0.54931640625
0.46124990000000005,4.003105163574219,-8.056488990783691,4.304774761199951,1.2054443359375,0,-0.2899169921875
0.46374990000000005,4.000710964202881,-8.042123794555664,4.2951979637146,1.220703125,0.1678466796875,-0.3204345703125
0.46624990000000005,3.995922565460205,-8.030152320861816,4.292803764343262,1.0528564453125,0.18310546875,-0.3662109375
0.46874990000000005,3.9863457679748535,-8.01339340209961,4.290409564971924,1.0528564453125,0.0457763671875,-0.2899169921875
0.47124990000000005,3.97916316986084,-8.001421928405762,4.288015365600586,1.0986328125,0.213623046875,-0.30517578125
0.47374990000000006,3.9647979736328125,-7.989450931549072,4.28322696685791,0.885009765625,0.18310546875,-0.3204345703125
0.47624990000000006,3.952826976776123,-7.975085735321045,4.28322696685791,0.8544921875,0.1983642578125,-0.30517578125
0.47874990000000006,3.9408559799194336,-7.972691535949707,4.278438568115234,0.79345703125,0.1983642578125,-0.2288818359375
0.4812499,3.931279182434082,-7.965508937835693,4.2760443687438965,0.701904296875,-0.0152587890625,-0.152587890625
0.4837499,3.9240965843200684,-7.967903137207031,4.271255970001221,0.7171630859375,0.1220703125,-0.1373291015625
0.4862499,3.9193081855773926,-7.965508937835693,4.271255970001221,0.9002685546875,-0.030517578125,-0.0457763671875
0.4887499,3.9169139862060547,-7.9631147384643555,4.273650169372559,0.5950927734375,-0.030517578125,-0.091552734375
0.4912499,3.9193081855773926,-7.951143741607666,4.278438568115234,0.2288818359375,-0.0762939453125,-0.1068115234375
0.4937499,3.9240965843200684,-7.9415669441223145,4.285621166229248,0.244140625,-0.0457763671875,-0.1068115234375
0.4962499,3.931279182434082,-7.931990146636963,4.280832767486572,0.0762939453125,-0.0152587890625,-0.152587890625
0.4987499,3.936067581176758,-7.929595947265625,4.28322696685791,-0.0152587890625,0.0152587890625,-0.030517578125
0.5012499,3.9432501792907715,-7.927201747894287,4.278438568115234,-0.274658203125,0.030517578125,0
0.5037499000000001,3.9456443786621094,-7.936778545379639,4.285621166229248,-0.2899169921875,-0.1220703125,0.0457763671875
0.5062499,3.952826976776123,-7.943961143493652,4.290409564971924,-0.3509521484375,0.06103515625,0.1373291015625
0.5087499000000001,3.957615375518799,-7.955932140350342,4.299986362457275,-0.2593994140625,0.1220703125,0.244140625
0.5112499,3.9600095748901367,-7.960720539093018,4.304774761199951,-0.3814697265625,-0.0762939453125,0.2593994140625
0.5137499,3.957615375518799,-7.970297336578369,4.302380561828613,-0.3509521484375,-0.091552734375,0
0.5162499,3.955221176147461,-7.977479934692383,4.302380561828613,-0.4119873046875,-0.213623046875,0.152587890625
0.5187499,3.9480385780334473,-7.982268333435059,4.2975921630859375,-0.6561279296875,0,-0.0762939453125
0.5212499,3.9480385780334473,-7.989450931549072,4.299986362457275,-0.457763671875,0.030517578125,0
0.5237499,3.950432777404785,-7.994239330291748,4.304774761199951,-0.4425048828125,0.0457763671875,0.1068115234375
0.5262499,3.957615375518799,-8.003816604614258,4.307168960571289,-0.640869140625,0.0457763671875,0.0762939453125
0.5287499,3.9695863723754883,-8.010998725891113,4.309563159942627,-0.6103515625,-0.06103515625,0.2899169921875
0.5312499,3.97916316986084,-8.020575523376465,4.304774761199951,-0.8392333984375,0.030517578125,0.213623046875
0.5337499,3.9887399673461914,-8.02536392211914,4.299986362457275,-0.5950927734375,-0.06103515625,0.54931640625
0.5362499000000001,3.9911341667175293,-8.030152320861816,4.302380561828613,-0.579833984375,0.0457763671875,0.3662109375
0.5387499,3.9911341667175293,-8.037335395812988,4.309563159942627,-0.6866455078125,-0.030517578125,0.42724609375
0.5412499000000001,3.9863457679748535,-8.054094314575195,4.333505153656006,-0.6866455078125,-0.0762939453125,0.457763671875
0.5437499,3.9839515686035156,-8.063671112060547,4.335899353027344,-0.6866455078125,-0.030517578125,0.30517578125
0.5462499000000001,3.976768970489502,-8.066065788269043,4.32871675491333,-0.3509521484375,-0.1068115234375,0.30517578125
0.5487499,3.971980571746826,-8.068459510803223,4.314351558685303,-0.4730224609375,-0.1678466796875,0.274658203125
0.5512499000000001,3.971980571746826,-8.066065788269043,4.304774761199951,-0.3204345703125,0.0152587890625,0.30517578125
0.5537499,3.974374771118164,-8.058882713317871,4.2951979637146,-0.3204345703125,0.06103515625,0.06103515625
0.5562499000000001,3.97916316986084,-8.04930591583252,4.292803764343262,-0.3814697265625,-0.2288818359375,0.213623046875
0.5587499,3.9839515686035156,-8.037335395812988,4.290409564971924,-0.274658203125,-0.1373291015625,0.1373291015625
0.5612499000000001,3.9911341667175293,-8.022970199584961,4.290409564971924,-0.2593994140625,-0.18310546875,0.1373291015625
0.5637499,3.9911341667175293,-8.008605003356934,4.288015365600586,-0.0762939453125,-0.213623046875,0.3204345703125
0.5662499000000001,3.993528366088867,-7.994239330291748,4.290409564971924,-0.1220703125,-0.0762939453125,0.091552734375
0.5687499,3.9911341667175293,-7.987056732177734,4.290409564971924,0.0152587890625,-0.06103515625,0.244140625
0.5712499000000001,3.9911341667175293,-7.987056732177734,4.292803764343262,-0.1678466796875,0.1373291015625,0.1678466796875
0.5737499,3.9863457679748535,-7.99184513092041,4.2975921630859375,-0.18310546875,0.152587890625,0.152587890625
0.5762499000000001,3.97916316986084,-8.003816604614258,4.302380561828613,-0.2288818359375,0.152587890625,0.1373291015625
0.5787499,3.971980571746826,-8.01339340209961,4.304774761199951,-0.1373291015625,0.213623046875,0.152587890625
0.5812499,3.9671921730041504,-8.022970199584961,4.307168960571289,-0.0457763671875,0.1373291015625,0
0.5837499,3.9624037742614746,-8.034940719604492,4.302380561828613,0.091552734375,0,0
0.5862499,3.9671921730041504,-8.04691219329834,4.2951979637146,0.1373291015625,0.1220703125,0.0152587890625
0.5887499,3.9671921730041504,-8.058882713317871,4.292803764343262,0.2288818359375,-0.091552734375,0.1220703125
0.5912499,3.9695863723754883,-8.070854187011719,4.288015365600586,0.18310546875,-0.0152587890625,-0.1068115234375
0.5937499,3.9695863723754883,-8.075642585754395,4.290409564971924,0.30517578125,0,0.0762939453125
0.5962499,3.9624037742614746,-8.075642585754395,4.290409564971924,0.2593994140625,-0.06103515625,-0.0457763671875
0.5987499000000001,3.9600095748901367,-8.068459510803223,4.288015365600586,0.2899169921875,0,0.2288818359375
0.6012499,3.957615375518799,-8.051700592041016,4.280832767486572,0.30517578125,-0.1373291015625,-0.1068115234375
0.6037499000000001,3.9600095748901367,-8.032546997070312,4.273650169372559,0.1373291015625,-0.152587890625,-0.06103515625
0.6062499,3.9600095748901367,-8.01339340209961,4.264073371887207,0.335693359375,0.0457763671875,0.030517578125
0.6087499000000001,3.9624037742614746,-7.996633529663086,4.2544965744018555,0.274658203125,0.1068115234375,-0.1220703125
0.6112499,3.9647979736328125,-7.987056732177734,4.252102375030518,0.152587890625,0.030517578125,-0.0762939453125
0.6137499000000001,3.9695863723754883,-7.982268333435059,4.24970817565918,-0.1220703125,-0.0152587890625,-0.152587890625
0.6162499,3.974374771118164,-7.9846625328063965,4.256890773773193,0,-0.0152587890625,-0.030517578125
0.6187499000000001,3.976768970489502,-7.989450931549072,4.264073371887207,0.213623046875,-0.091552734375,-0.091552734375
0.6212499,3.97916316986084,-7.99184513092041,4.2760443687438965,0.0152587890625,-0.0762939453125,-0.152587890625
0.6237499000000001,3.974374771118164,-7.999027729034424,4.288015365600586,0.1220703125,-0.0457763671875,0.0152587890625
0.6262499,3.9695863723754883,-7.999027729034424,4.2975921630859375,0.18310546875,0.0762939453125,0.1220703125
0.6287499000000001,3.9671921730041504,-8.003816604614258,4.307168960571289,-0.0762939453125,0.0152587890625,-0.1983642578125
0.6312499,3.9647979736328125,-8.008605003356934,4.311957359313965,0.030517578125,-0.0762939453125,-0.091552734375
0.6337499000000001,3.9647979736328125,-8.01339340209961,4.316745758056641,0.1678466796875,0.091552734375,0.0152587890625
0.6362499,3.9695863723754883,-8.015787124633789,4.316745758056641,0.18310546875,0.091552734375,0.1983642578125
0.6387499000000001,3.9695863723754883,-8.020575523376465,4.314351558685303,0,0.1220703125,0.0762939453125
0.6412499,3.9695863723754883,-8.02536392211914,4.311957359313965,0.030517578125,0.091552734375,-0.0152587890625
0.6437499,3.9647979736328125,-8.030152320861816,4.309563159942627,-0.0762939453125,0.06103515625,-0.1068115234375
0.6462499,3.955221176147461,-8.034940719604492,4.311957359313965,0.18310546875,0,-0.091552734375
0.6487499,3.950432777404785,-8.034940719604492,4.307168960571289,0.2593994140625,-0.0457763671875,0.06103515625
0.6512499,3.9432501792907715,-8.032546997070312,4.304774761199951,0.0762939453125,-0.030517578125,0.0152587890625
0.6537499,3.9432501792907715,-8.02536392211914,4.299986362457275,0.030517578125,-0.06103515625,0.0762939453125
0.6562499,3.9432501792907715,-8.018181800842285,4.2975921630859375,0.0762939453125,-0.0152587890625,0.0762939453125
0.6587499,3.9456443786621094,-8.01339340209961,4.292803764343262,0.1220703125,-0.030517578125,-0.06103515625
0.6612499000000001,3.950432777404785,-8.008605003356934,4.292803764343262,0.06103515625,0.0152587890625,0.0457763671875
0.6637499,3.9600095748901367,-8.001421928405762,4.288015365600586,0,-0.1068115234375,0.0152587890625
0.6662499000000001,3.9624037742614746,-7.999027729034424,4.28322696685791,0.091552734375,-0.0762939453125,0.06103515625
0.6687499,3.971980571746826,-7.994239330291748,4.280832767486572,-0.152587890625,0.1678466796875,-0.0152587890625
0.6712499000000001,3.974374771118164,-7.994239330291748,4.28322696685791,-0.091552734375,-0.1373291015625,0.213623046875
0.6737499,3.974374771118164,-7.99184513092041,4.285621166229248,-0.06103515625,-0.18310546875,0.1678466796875
0.6762499000000001,3.9647979736328125,-7.994239330291748,4.288015365600586,-0.3509521484375,0.06103515625,0.0762939453125
0.6787499,3.9600095748901367,-7.994239330291748,4.290409564971924,-0.48828125,0.18310546875,-0.06103515625
0.6812499000000001,3.9456443786621094,-7.996633529663086,4.290409564971924,-0.1068115234375,-0.1373291015625,0.3204345703125
0.6837499,3.936067581176758,-8.001421928405762,4.290409564971924,-0.152587890625,0.091552734375,0.18310546875
0.6862499000000001,3.931279182434082,-8.008605003356934,4.292803764343262,-0.3509521484375,0.152587890625,0.0457763671875
0.6887499,3.93367338180542,-8.020575523376465,4.2951979637146,-0.1678466796875,0.0152587890625,0.1678466796875
0.6912499000000001,3.9384617805480957,-8.032546997070312,4.302380561828613,-0.18310546875,-0.18310546875,0
0.6937499,3.9456443786621094,-8.042123794555664,4.304774761199951,-0.1983642578125,-0.0762939453125,0.030517578125
0.6962499000000001,3.955221176147461,-8.042123794555664,4.309563159942627,-0.1068115234375,-0.030517578125,-0.1068115234375
0.6987499,3.9647979736328125,-8.037335395812988,4.311957359313965,-0.0762939453125,-0.06103515625,0.06103515625
0.7012499000000001,3.971980571746826,-8.02536392211914,4.309563159942627,0.1373291015625,0,0.0152587890625
0.7037499,3.976768970489502,-8.018181800842285,4.304774761199951,-0.244140625,-0.030517578125,-0.1068115234375
0.7062499,3.9815573692321777,-8.01339340209961,4.302380561828613,-0.1983642578125,-0.06103515625,0.0152587890625
0.7087499,3.976768970489502,-8.015787124633789,4.292803764343262,0,0.0457763671875,0.1678466796875
0.7112499,3.971980571746826,-8.018181800842285,4.288015365600586,-0.0457763671875,-0.0762939453125,0.030517578125
0.7137499,3.9647979736328125,-8.02536392211914,4.288015365600586,0.213623046875,-0.091552734375,0.0762939453125
0.7162499,3.957615375518799,-8.027758598327637,4.28322696685791,0.1068115234375,-0.030517578125,-0.0762939453125
0.7187499,3.9456443786621094,-8.032546997070312,4.285621166229248,0.0152587890625,-0.030517578125,-0.1068115234375
0.7212499,3.9456443786621094,-8.032546997070312,4.28322696685791,-0.091552734375,-0.1983642578125,0.06103515625
0.7237499000000001,3.9456443786621094,-8.032546997070312,4.280832767486572,-0.1678466796875,0.1678466796875,0.0762939453125
0.7262499,3.952826976776123,-8.02536392211914,4.278438568115234,0,0.0152587890625,0.213623046875
0.7287499000000001,3.955221176147461,-8.015787124633789,4.28322696685791,0.06103515625,0.030517578125,0.091552734375
0.7312499,3.9600095748901367,-8.003816604614258,4.280832767486572,-0.1373291015625,0.030517578125,-0.1373291015625
0.7337499000000001,3.9600095748901367,-7.99184513092041,4.28322696685791,-0.1220703125,-0.030517578125,0.030517578125
0.7362499,3.957615375518799,-7.982268333435059,4.278438568115234,-0.06103515625,-0.213623046875,0.0152587890625
0.7387499000000001,3.957615375518799,-7.982268333435059,4.273650169372559,-0.06103515625,0.1220703125,0.0762939453125
0.7412499,3.9600095748901367,-7.989450931549072,4.273650169372559,0,0.152587890625,0.1068115234375
0.7437499000000001,3.955221176147461,-7.996633529663086,4.2760443687438965,-0.18310546875,0.1068115234375,0.1983642578125
0.7462499,3.955221176147461,-8.006210327148438,4.28322696685791,-0.152587890625,0.1068115234375,0.213623046875
0.7487499000000001,3.9480385780334473,-8.022970199584961,4.299986362457275,-0.30517578125,0.1983642578125,0.0762939453125
0.7512499,3.950432777404785,-8.030152320861816,4.304774761199951,-0.152587890625,0.1068115234375,0.1373291015625
0.7537499000000001,3.955221176147461,-8.037335395812988,4.314351558685303,-0.1678466796875,-0.091552734375,0.091552734375
0.7562499,3.955221176147461,-8.044517517089844,4.3191399574279785,-0.0762939453125,0.030517578125,-0.030517578125
0.7587499000000001,3.955221176147461,-8.04930591583252,4.323928356170654,-0.06103515625,0.0457763671875,0.1220703125
0.7612499,3.952826976776123,-8.051700592041016,4.3191399574279785,-0.091552734375,-0.06103515625,0.1220703125
0.7637499000000001,3.950432777404785,-8.04691219329834,4.314351558685303,0.091552734375,-0.152587890625,0.152587890625
0.7662499,3.955221176147461,-8.042123794555664,4.302380561828613,-0.0152587890625,-0.213623046875,0.1220703125
0.7687499000000001,3.9624037742614746,-8.027758598327637,4.292803764343262,0.06103515625,-0.1983642578125,0
0.7712499,3.971980571746826,-8.018181800842285,4.280832767486572,0.06103515625,-0.091552734375,0.0152587890625
0.7737499,3.9839515686035156,-8.008605003356934,4.273650169372559,0.06103515625,-0.030517578125,0.1678466796875
0.7762499,3.9839515686035156,-8.003816604614258,4.271255970001221,0.2288818359375,0.091552734375,0.213623046875
0.7787499,3.9887399673461914,-7.996633529663086,4.273650169372559,-0.091552734375,-0.06103515625,-0.0152587890625
0.7812499,3.97916316986084,-7.989450931549072,4.2760443687438965,-0.3662109375,-0.1068115234375,0.06103515625
0.7837499,3.971980571746826,-7.987056732177734,4.28322696685791,-0.3204345703125,0.18310546875,0.0152587890625
0.7862499000000001,3.957615375518799,-7.982268333435059,4.285621166229248,-0.2899169921875,0.0457763671875,0.091552734375
0.7887499,3.950432777404785,-7.9846625328063965,4.288015365600586,-0.2593994140625,0.091552734375,-0.030517578125
0.7912499000000001,3.9456443786621094,-7.996633529663086,4.288015365600586,-0.3509521484375,-0.0457763671875,0.0152587890625
0.7937499,3.9480385780334473,-8.008605003356934,4.285621166229248,-0.3662109375,-0.0762939453125,0.030517578125
0.7962499000000001,3.957615375518799,-8.027758598327637,4.28322696685791,-0.3204345703125,0,0.1373291015625
0.7987499,3.9647979736328125,-8.039729118347168,4.285621166229248,-0.3204345703125,-0.0457763671875,0.1068115234375
0.8012499000000001,3.971980571746826,-8.051700592041016,4.288015365600586,-0.1373291015625,-0.2288818359375,-0.030517578125
0.8037499,3.976768970489502,-8.051700592041016,4.292803764343262,-0.2288818359375,0.0152587890625,0.0762939453125
0.8062499000000001,3.97916316986084,-8.051700592041016,4.2951979637146,-0.0152587890625,-0.091552734375,0.1220703125
0.8087499,3.971980571746826,-8.04930591583252,4.2975921630859375,-0.1678466796875,-0.1220703125,0.1068115234375
0.8112499000000001,3.9695863723754883,-8.04691219329834,4.2951979637146,-0.0152587890625,-0.0762939453125,0.091552734375
0.8137499,3.957615375518799,-8.04691219329834,4.292803764343262,0.06103515625,-0.091552734375,0.1068115234375
0.8162499000000001,3.952826976776123,-8.039729118347168,4.290409564971924,-0.30517578125,-0.06103515625,0.06103515625
0.8187499,3.9480385780334473,-8.037335395812988,4.288015365600586,-0.213623046875,0.030517578125,0.18310546875
0.8212499000000001,3.9456443786621094,-8.032546997070312,4.290409564971924,-0.1983642578125,-0.06103515625,0.1373291015625
0.8237499,3.9432501792907715,-8.02536392211914,4.288015365600586,-0.0457763671875,-0.0457763671875,0.18310546875
0.8262499000000001,3.9480385780334473,-8.022970199584961,4.28322696685791,-0.1373291015625,-0.06103515625,0.1068115234375
0.8287499,3.9456443786621094,-8.020575523376465,4.280832767486572,-0.0152587890625,-0.2288818359375,0
0.8312499000000001,3.9480385780334473,-8.018181800842285,4.273650169372559,0.0762939453125,-0.213623046875,0.091552734375
0.8337499,3.950432777404785,-8.01339340209961,4.268861770629883,0.0152587890625,0.0762939453125,0.091552734375
0.8362499,3.955221176147461,-8.01339340209961,4.264073371887207,-0.152587890625,0.0762939453125,-0.0152587890625
0.8387499,3.9624037742614746,-8.003816604614258,4.259284973144531,0.030517578125,-0.0152587890625,0.0152587890625
0.8412499,3.971980571746826,-7.996633529663086,4.264073371887207,0.1068115234375,-0.0457763671875,0.0762939453125
0.8437499,3.97916316986084,-7.987056732177734,4.266467571258545,0.2593994140625,-0.091552734375,0
0.8462499,3.9839515686035156,-7.979874134063721,4.278438568115234,-0.091552734375,0,-0.0457763671875
0.8487499000000001,3.9863457679748535,-7.982268333435059,4.288015365600586,-0.2288818359375,0.1678466796875,-0.0457763671875
0.8512499,3.9839515686035156,-7.989450931549072,4.2951979637146,0.1068115234375,0.2288818359375,-0.2288818359375
0.8537499000000001,3.9815573692321777,-7.999027729034424,4.299986362457275,0.1373291015625,0.091552734375,-0.0457763671875
0.8562499,3.971980571746826,-8.018181800842285,4.304774761199951,0.091552734375,0,0.1678466796875
0.8587499000000001,3.9647979736328125,-8.030152320861816,4.309563159942627,-0.0762939453125,0.1068115234375,-0.1678466796875
0.8612499,3.955221176147461,-8.04930591583252,4.314351558685303,0,0.244140625,-0.1220703125
0.8637499000000001,3.955221176147461,-8.061277389526367,4.3191399574279785,0.2899169921875,0.030517578125,-0.091552734375
0.8662499,3.952826976776123,-8.070854187011719,4.321534156799316,0.1220703125,-0.0762939453125,0.1220703125
0.8687499000000001,3.9647979736328125,-8.073247909545898,4.3191399574279785,0.0152587890625,-0.06103515625,0.0762939453125
0.8712499,3.971980571746826,-8.070854187011719,4.304774761199951,0.091552734375,0,-0.0762939453125
0.8737499000000001,3.97916316986084,-8.063671112060547,4.2951979637146,0.3662109375,-0.091552734375,0.0762939453125
0.8762499,3.9815573692321777,-8.051700592041016,4.280832767486572,0.2288818359375,-0.1983642578125,-0.0457763671875
0.8787499000000001,3.976768970489502,-8.039729118347168,4.2760443687438965,0.2593994140625,-0.1678466796875,-0.0762939453125
0.8812499,3.9671921730041504,-8.027758598327637,4.278438568115234,0.4119873046875,-0.0457763671875,-0.0152587890625
0.8837499000000001,3.9624037742614746,-8.01339340209961,4.2760443687438965,0.2288818359375,-0.0457763671875,0.1373291015625
0.8862499,3.957615375518799,-8.001421928405762,4.28322696685791,0.1983642578125,-0.0152587890625,0
0.8887499000000001,3.9600095748901367,-7.989450931549072,4.288015365600586,0.1373291015625,0.213623046875,0.06103515625
0.8912499,3.9624037742614746,-7.9846625328063965,4.2951979637146,0.091552734375,0.244140625,-0.1678466796875
0.8937499000000001,3.9647979736328125,-7.977479934692383,4.304774761199951,0.030517578125,0.1678466796875,0.030517578125
0.8962499,3.9647979736328125,-7.975085735321045,4.304774761199951,0.1220703125,0.0762939453125,-0.06103515625
0.8987499,3.9671921730041504,-7.967903137207031,4.2975921630859375,0.0152587890625,0,0.0762939453125
0.9012499,3.9647979736328125,-7.9631147384643555,4.2951979637146,0.030517578125,-0.06103515625,0.0152587890625
0.9037499,3.9600095748901367,-7.965508937835693,4.292803764343262,0.0762939453125,-0.1068115234375,0.1373291015625
0.9062499,3.957615375518799,-7.970297336578369,4.2951979637146,-0.1678466796875,0.1220703125,0.0457763671875
0.9087499,3.955221176147461,-7.979874134063721,4.302380561828613,-0.06103515625,0.18310546875,-0.1678466796875
0.9112499000000001,3.957615375518799,-7.989450931549072,4.304774761199951,0.1373291015625,-0.091552734375,0.06103515625
0.9137499,3.955221176147461,-7.994239330291748,4.302380561828613,0.1678466796875,-0.0762939453125,0.030517578125
0.9162499000000001,3.955221176147461,-7.994239330291748,4.299986362457275,0.06103515625,-0.0152587890625,-0.1220703125
0.9187499,3.955221176147461,-7.996633529663086,4.288015365600586,-0.0762939453125,-0.0152587890625,0
0.9212499000000001,3.952826976776123,-7.999027729034424,4.278438568115234,-0.274658203125,0.1678466796875,-0.030517578125
0.9237499,3.955221176147461,-8.006210327148438,4.278438568115234,0.1068115234375,0.1068115234375,0
0.9262499000000001,3.955221176147461,-8.015787124633789,4.2760443687438965,0.0457763671875,0.2288818359375,0
0.9287499,3.9600095748901367,-8.020575523376465,4.280832767486572,-0.06103515625,0.06103515625,0.06103515625
0.9312499000000001,3.9624037742614746,-8.027758598327637,4.285621166229248,-0.2288818359375,-0.06103515625,0.1373291015625
0.9337499,3.971980571746826,-8.030152320861816,4.280832767486572,-0.335693359375,0.0457763671875,0.030517578125
0.9362499000000001,3.97916316986084,-8.034940719604492,4.278438568115234,-0.30517578125,-0.06103515625,-0.0152587890625
0.9387499,3.9839515686035156,-8.034940719604492,4.271255970001221,-0.3204345703125,-0.1983642578125,0.1983642578125
0.9412499000000001,3.9839515686035156,-8.032546997070312,4.266467571258545,-0.518798828125,-0.06103515625,0.1983642578125
0.9437499,3.9815573692321777,-8.02536392211914,4.259284973144531,-0.5340576171875,-0.0762939453125,0.1678466796875
0.9462499000000001,3.976768970489502,-8.018181800842285,4.256890773773193,-0.335693359375,-0.06103515625,0.244140625
0.9487499,3.974374771118164,-8.01339340209961,4.252102375030518,-0.335693359375,-0.030517578125,0.1678466796875
0.9512499000000001,3.974374771118164,-8.010998725891113,4.252102375030518,-0.4119873046875,0.1373291015625,0.2899169921875
0.9537499,3.976768970489502,-8.01339340209961,4.256890773773193,-0.5340576171875,0.091552734375,0.244140625
0.9562499000000001,3.9815573692321777,-8.022970199584961,4.273650169372559,-0.4730224609375,0.1220703125,0.2288818359375
0.9587499,3.9839515686035156,-8.030152320861816,4.280832767486572,-0.457763671875,0.213623046875,0.152587890625
0.9612499,3.97916316986084,-8.02536392211914,4.292803764343262,-0.3814697265625,0.06103515625,0.2899169921875
0.9637499,3.9695863723754883,-8.030152320861816,4.299986362457275,-0.335693359375,-0.1373291015625,0.244140625
0.9662499,3.957615375518799,-8.02536392211914,4.309563159942627,-0.3662109375,-0.1220703125,0.244140625
0.9687499,3.9480385780334473,-8.030152320861816,4.314351558685303,-0.30517578125,-0.1373291015625,0.2899169921875
0.9712499,3.9456443786621094,-8.030152320861816,4.316745758056641,-0.396728515625,-0.152587890625,0.2899169921875
0.9737499000000001,3.9480385780334473,-8.034940719604492,4.3191399574279785,-0.244140625,0.030517578125,0.1373291015625
0.9762499,3.955221176147461,-8.034940719604492,4.307168960571289,-0.1373291015625,-0.06103515625,-0.0762939453125
0.9787499000000001,3.9647979736328125,-8.042123794555664,4.302380561828613,-0.030517578125,-0.0457763671875,-0.1068115234375
0.9812499,3.9647979736328125,-8.037335395812988,4.290409564971924,-0.1373291015625,-0.0762939453125,0.1678466796875
0.9837499000000001,3.9647979736328125,-8.034940719604492,4.285621166229248,-0.0762939453125,-0.091552734375,0.152587890625
0.9862499,3.9671921730041504,-8.02536392211914,4.280832767486572,-0.213623046875,0.06103515625,0.1373291015625
0.9887499000000001,3.9624037742614746,-8.018181800842285,4.285621166229248,-0.1220703125,0.1373291015625,-0.06103515625
0.9912499,3.9647979736328125,-8.010998725891113,4.290409564971924,0.3509521484375,0.2593994140625,-0.0152587890625
0.9937499000000001,3.9671921730041504,-8.006210327148438,4.299986362457275,0.244140625,0.18310546875,0
0.9962499,3.9624037742614746,-8.006210327148438,4.307168960571289,0.2288818359375,0.06103515625,-0.0152587890625
0.9987499000000001,3.9671921730041504,-8.003816604614258,4.311957359313965,0.2593994140625,0.030517578125,-0.152587890625
1.0012499,3.957615375518799,-8.003816604614258,4.314351558685303,0.4119873046875,0.0457763671875,-0.06103515625
1.0037498999999999,3.952826976776123,-8.006210327148438,4.311957359313965,0.2288818359375,-0.18310546875,-0.1373291015625
1.0062499,3.9456443786621094,-8.010998725891113,4.304774761199951,0.2288818359375,-0.0152587890625,-0.091552734375
1.0087499,3.9408559799194336,-8.01339340209961,4.292803764343262,0.3662109375,-0.06103515625,-0.213623046875
1.0112499,3.9384617805480957,-8.015787124633789,4.28322696685791,0.213623046875,-0.152587890625,-0.2288818359375
1.0137498999999999,3.9408559799194336,-8.010998725891113,4.273650169372559,0.0762939453125,0.1373291015625,-0.244140625
1.0162499,3.9480385780334473,-8.006210327148438,4.268861770629883,0.06103515625,0.244140625,-0.1678466796875
1.0187499,3.952826976776123,-8.001421928405762,4.266467571258545,0.0762939453125,0.0457763671875,0.091552734375
1.0212499,3.952826976776123,-7.999027729034424,4.266467571258545,0.1983642578125,0.1983642578125,0
1.0237498999999999,3.950432777404785,-8.003816604614258,4.2760443687438965,0.152587890625,0.30517578125,-0.0457763671875
1.0262498999999998,3.9456443786621094,-8.006210327148438,4.285621166229248,0.0457763671875,0.0457763671875,-0.030517578125
1.0287499,3.9408559799194336,-8.01339340209961,4.2975921630859375,0,0.1373291015625,0.0762939453125
1.0312499,3.9384617805480957,-8.01339340209961,4.304774761199951,0.152587890625,0.152587890625,0.1220703125
1.0337498999999999,3.9408559799194336,-8.018181800842285,4.311957359313965,0.1068115234375,-0.0457763671875,-0.091552734375
1.0362498999999998,3.9432501792907715,-8.018181800842285,4.314351558685303,-0.06103515625,0.1068115234375,0.091552734375
1.0387499,3.9480385780334473,-8.022970199584961,4.3191399574279785,0.1373291015625,0.030517578125,-0.030517578125
1.0412499,3.955221176147461,-8.020575523376465,4.314351558685303,0.1068115234375,0.1373291015625,-0.1220703125
1.0437499,3.9624037742614746,-8.015787124633789,4.311957359313965,-0.0152587890625,0,-0.1068115234375
1.0462498999999998,3.9647979736328125,-8.01339340209961,4.302380561828613,-0.06103515625,-0.030517578125,-0.06103515625
1.0487499,3.9600095748901367,-8.006210327148438,4.2975921630859375,-0.1373291015625,0.1373291015625,-0.06103515625
1.0512499,3.952826976776123,-8.006210327148438,4.292803764343262,-0.06103515625,0.152587890625,0.06103515625
1.0537499,3.9408559799194336,-8.001421928405762,4.292803764343262,-0.091552734375,-0.06103515625,0.0152587890625
1.0562498999999999,3.9384617805480957,-7.999027729034424,4.290409564971924,-0.030517578125,0.0152587890625,0.0457763671875
1.0587499,3.936067581176758,-7.994239330291748,4.285621166229248,0,0.1220703125,0.18310546875
1.0612499,3.936067581176758,-7.996633529663086,4.280832767486572,-0.0457763671875,0.1220703125,0.1068115234375
1.0637499,3.936067581176758,-7.996633529663086,4.2760443687438965,-0.1068115234375,0.335693359375,0.1373291015625
1.0662498999999999,3.9384617805480957,-8.001421928405762,4.278438568115234,-0.213623046875,0.0762939453125,0.213623046875
1.0687499,3.936067581176758,-7.999027729034424,4.28322696685791,-0.1983642578125,-0.2288818359375,0.06103515625
1.0712499,3.9384617805480957,-7.999027729034424,4.292803764343262,-0.244140625,-0.1983642578125,0.0762939453125
1.0737499,3.9408559799194336,-8.001421928405762,4.299986362457275,-0.274658203125,-0.06103515625,0.3509521484375
1.0762498999999999,3.9432501792907715,-8.008605003356934,4.2975921630859375,-0.244140625,-0.1373291015625,0.244140625
1.0787499,3.9480385780334473,-8.015787124633789,4.2975921630859375,-0.1983642578125,-0.1983642578125,0.18310546875
1.0812499,3.955221176147461,-8.022970199584961,4.290409564971924,-0.335693359375,-0.091552734375,0.274658203125
1.0837499,3.9647979736328125,-8.022970199584961,4.285621166229248,-0.4119873046875,0.0457763671875,0.2899169921875
1.0862498999999999,3.974374771118164,-8.022970199584961,4.2760443687438965,-0.3204345703125,-0.0457763671875,0.1373291015625
1.0887499,3.9863457679748535,-8.01339340209961,4.271255970001221,-0.1678466796875,0.030517578125,0.06103515625
1.0912499,3.993528366088867,-8.010998725891113,4.266467571258545,-0.0457763671875,-0.0457763671875,0
1.0937499,3.995922565460205,-8.003816604614258,4.261679172515869,-0.1373291015625,0.0762939453125,0.0762939453125
1.0962498999999999,3.995922565460205,-8.006210327148438,4.264073371887207,-0.18310546875,0.030517578125,0.274658203125
1.0987498999999998,3.995922565460205,-8.008605003356934,4.266467571258545,-0.1068115234375,-0.0152587890625,0.091552734375
1.1012499,3.9887399673461914,-8.01339340209961,4.271255970001221,-0.1983642578125,0.1068115234375,-0.0152587890625
1.1037499,3.9863457679748535,-8.018181800842285,4.273650169372559,-0.244140625,0.1068115234375,0.030517578125
1.1062499,3.9815573692321777,-8.022970199584961,4.278438568115234,-0.152587890625,0.0457763671875,0.152587890625
1.1087498999999998,3.976768970489502,-8.027758598327637,4.28322696685791,-0.274658203125,0.1068115234375,0.06103515625
1.1112499,3.971980571746826,-8.032546997070312,4.288015365600586,-0.030517578125,0.1678466796875,0.1373291015625
1.1137499,3.9600095748901367,-8.037335395812988,4.2951979637146,-0.1678466796875,0.1220703125,0.1678466796875
1.1162499,3.950432777404785,-8.042123794555664,4.2975921630859375,-0.244140625,0.0762939453125,0.274658203125
1.1187498999999999,3.9408559799194336,-8.039729118347168,4.302380561828613,-0.18310546875,0.06103515625,0.1220703125
1.1212499,3.9408559799194336,-8.042123794555664,4.302380561828613,-0.274658203125,-0.1678466796875,0.2288818359375
1.1237499,3.9480385780334473,-8.04691219329834,4.304774761199951,-0.0152587890625,-0.1068115234375,-0.030517578125
1.1262499,3.9600095748901367,-8.04691219329834,4.304774761199951,0.06103515625,0.06103515625,-0.1220703125
1.1287498999999999,3.971980571746826,-8.051700592041016,4.299986362457275,0.0152587890625,-0.0152587890625,0.1373291015625
1.1312499,3.9815573692321777,-8.044517517089844,4.299986362457275,0.18310546875,-0.0152587890625,-0.091552734375
1.1337499,3.9911341667175293,-8.037335395812988,4.288015365600586,0.3662109375,-0.1983642578125,0.1373291015625
1.1362499,3.995922565460205,-8.030152320861816,4.285621166229248,0.1678466796875,0.06103515625,0.06103515625
1.1387498999999999,4.000710964202881,-8.022970199584961,4.278438568115234,0.1983642578125,0.06103515625,0
1.1412499,3.995922565460205,-8.015787124633789,4.280832767486572,0.2288818359375,0,0.0457763671875
1.1437499,3.9911341667175293,-8.01339340209961,4.280832767486572,0.1068115234375,-0.0457763671875,0.030517578125
1.1462499,3.97916316986084,-8.010998725891113,4.28322696685791,0.030517578125,0.0152587890625,0.18310546875
1.1487498999999999,3.9695863723754883,-8.006210327148438,4.285621166229248,0.1983642578125,0.1068115234375,0.2899169921875
1.1512499,3.9600095748901367,-8.008605003356934,4.285621166229248,0.152587890625,-0.0457763671875,0.244140625
1.1537499,3.955221176147461,-8.008605003356934,4.290409564971924,0.1220703125,0.0762939453125,-0.1068115234375
1.1562499,3.950432777404785,-8.01339340209961,4.2951979637146,0.0762939453125,0.0152587890625,0.1678466796875
1.1587498999999999,3.9480385780334473,-8.022970199584961,4.2975921630859375,0.213623046875,-0.0152587890625,0.091552734375
1.1612498999999998,3.9456443786621094,-8.032546997070312,4.2951979637146,0.0457763671875,0.152587890625,-0.06103515625
1.1637499,3.9408559799194336,-8.039729118347168,4.28322696685791,0.30517578125,-0.06103515625,0.335693359375
1.1662499,3.936067581176758,-8.037335395812988,4.28322696685791,0.213623046875,-0.06103515625,0.1678466796875
1.1687499,3.9432501792907715,-8.030152320861816,4.273650169372559,0.30517578125,-0.06103515625,-0.091552734375
1.1712498999999998,3.9456443786621094,-8.022970199584961,4.273650169372559,0.213623046875,0.091552734375,-0.1220703125
1.1737499,3.952826976776123,-8.010998725891113,4.264073371887207,-0.0152587890625,-0.0152587890625,-0.091552734375
1.1762499,3.957615375518799,-8.008605003356934,4.264073371887207,0.152587890625,0,-0.1220703125
1.1787499,3.957615375518799,-7.999027729034424,4.266467571258545,-0.0457763671875,0.06103515625,0.0457763671875
1.1812498999999999,3.957615375518799,-7.999027729034424,4.271255970001221,-0.0457763671875,-0.0457763671875,-0.091552734375
1.1837499,3.952826976776123,-7.994239330291748,4.285621166229248,0.0762939453125,-0.030517578125,0.0457763671875
1.1862499,3.957615375518799,-7.994239330291748,4.288015365600586,-0.18310546875,0.091552734375,0
1.1887499,3.957615375518799,-7.99184513092041,4.2951979637146,0.091552734375,0.1983642578125,0.030517578125
1.1912498999999999,3.9600095748901367,-7.999027729034424,4.2951979637146,0.1220703125,0.244140625,-0.0152587890625
1.1937499,3.9647979736328125,-8.006210327148438,4.2975921630859375,0.091552734375,0.18310546875,0.0762939453125
1.1962499,3.9671921730041504,-8.018181800842285,4.304774761199951,0.1068115234375,0.0152587890625,0.18310546875
1.1987499,3.9671921730041504,-8.030152320861816,4.311957359313965,0.091552734375,-0.1220703125,0.06103515625
1.2012498999999999,3.974374771118164,-8.037335395812988,4.314351558685303,0.0457763671875,0.152587890625,-0.152587890625
1.2037499,3.976768970489502,-8.04930591583252,4.311957359313965,0.152587890625,0.030517578125,0.0152587890625
1.2062499,3.976768970489502,-8.04930591583252,4.309563159942627,0.18310546875,0.030517578125,-0.091552734375
1.2087499,3.974374771118164,-8.04691219329834,4.299986362457275,0.3204345703125,-0.0152587890625,-0.0762939453125
1.2112498999999999,3.976768970489502,-8.039729118347168,4.2951979637146,0.2593994140625,-0.0152587890625,-0.244140625
1.2137499,3.974374771118164,-8.030152320861816,4.292803764343262,0.091552734375,0,-0.0152587890625
1.2162499,3.97916316986084,-8.020575523376465,4.288015365600586,0.0762939453125,-0.0457763671875,0.1373291015625
1.2187499,3.97916316986084,-8.01339340209961,4.285621166229248,0.030517578125,0,0.06103515625
1.2212498999999999,3.976768970489502,-8.008605003356934,4.290409564971924,0.0457763671875,0.0457763671875,-0.0762939453125
1.2237498999999998,3.971980571746826,-8.010998725891113,4.2951979637146,0.1220703125,0.091552734375,-0.2288818359375
1.2262499,3.9671921730041504,-8.01339340209961,4.2975921630859375,0.3204345703125,0.091552734375,-0.30517578125
1.2287499,3.9671921730041504,-8.018181800842285,4.2975921630859375,0.0762939453125,-0.0152587890625,-0.30517578125
1.2312499,3.9671921730041504,-8.020575523376465,4.2951979637146,0.0457763671875,0.0457763671875,-0.1068115234375
1.2337498999999998,3.9671921730041504,-8.022970199584961,4.285621166229248,0.0762939453125,-0.0762939453125,0.1373291015625
1.2362499,3.9647979736328125,-8.022970199584961,4.280832767486572,0.06103515625,0.06103515625,0.396728515625
1.2387499,3.9600095748901367,-8.018181800842285,4.2760443687438965,0.06103515625,0.06103515625,0.1678466796875
1.2412499,3.955221176147461,-8.015787124633789,4.271255970001221,0.06103515625,0,0.213623046875
1.2437498999999999,3.950432777404785,-8.010998725891113,4.271255970001221,0.0457763671875,-0.0762939453125,0.152587890625
1.2462499,3.9480385780334473,-8.006210327148438,4.271255970001221,0.1068115234375,0.030517578125,0.06103515625
1.2487499,3.9480385780334473,-7.996633529663086,4.2760443687438965,0.1373291015625,-0.1373291015625,0.1678466796875
1.2512499,3.952826976776123,-7.9846625328063965,4.2760443687438965,-0.1220703125,-0.213623046875,0.0152587890625
1.2537498999999999,3.9600095748901367,-7.975085735321045,4.278438568115234,-0.091552734375,-0.06103515625,0.0762939453125
1.2562499,3.9600095748901367,-7.967903137207031,4.278438568115234,-0.1220703125,0.0152587890625,0.1220703125
1.2587499,3.955221176147461,-7.970297336578369,4.280832767486572,-0.2288818359375,-0.030517578125,0.2288818359375
1.2612499,3.950432777404785,-7.972691535949707,4.288015365600586,-0.18310546875,-0.0457763671875,0.152587890625
1.2637498999999999,3.9456443786621094,-7.982268333435059,4.290409564971924,-0.0762939453125,0.030517578125,0.18310546875
1.2662499,3.9456443786621094,-7.99184513092041,4.2975921630859375,-0.1373291015625,-0.1068115234375,0.1678466796875
1.2687499,3.9456443786621094,-8.003816604614258,4.2951979637146,-0.3662109375,-0.030517578125,0.0152587890625
1.2712499,3.9408559799194336,-8.01339340209961,4.2975921630859375,-0.244140625,-0.1983642578125,0.091552734375
1.2737498999999999,3.9408559799194336,-8.018181800842285,4.292803764343262,-0.2288818359375,-0.1678466796875,-0.0152587890625
1.2762499,3.9384617805480957,-8.015787124633789,4.288015365600586,-0.0457763671875,-0.0152587890625,0
1.2787499,3.9384617805480957,-8.008605003356934,4.28322696685791,0.030517578125,-0.152587890625,0.1373291015625
1.2812499,3.9480385780334473,-8.001421928405762,4.278438568115234,-0.152587890625,-0.1678466796875,0.0152587890625
1.2837498999999999,3.957615375518799,-7.994239330291748,4.273650169372559,-0.18310546875,-0.0762939453125,0.1373291015625
1.2862498999999998,3.9647979736328125,-7.989450931549072,4.271255970001221,-0.244140625,-0.0152587890625,0.030517578125
1.2887499,3.974374771118164,-7.989450931549072,4.266467571258545,-0.213623046875,0.2288818359375,0
1.2912499,3.97916316986084,-7.994239330291748,4.271255970001221,-0.18310546875,0.0457763671875,-0.0762939453125
1.2937499,3.97916316986084,-8.003816604614258,4.271255970001221,-0.244140625,0.1068115234375,-0.06103515625
1.2962498999999998,3.9815573692321777,-8.01339340209961,4.2760443687438965,-0.4119873046875,0.152587890625,-0.06103515625
1.2987499,3.9839515686035156,-8.027758598327637,4.280832767486572,-0.5035400390625,0.2899169921875,0.091552734375
1.3012499,3.9815573692321777,-8.037335395812988,4.28322696685791,-0.30517578125,0.091552734375,0.0457763671875
1.3037499,3.97916316986084,-8.051700592041016,4.290409564971924,-0.3509521484375,0.0762939453125,0.1220703125
1.3062498999999999,3.976768970489502,-8.066065788269043,4.2975921630859375,-0.30517578125,0.030517578125,0.091552734375
1.3087499,3.971980571746826,-8.08282470703125,4.302380561828613,-0.274658203125,0,0.335693359375
1.3112499,3.976768970489502,-8.092401504516602,4.302380561828613,-0.213623046875,-0.030517578125,0.1220703125
1.3137499,3.976768970489502,-8.099584579467773,4.302380561828613,-0.0152587890625,-0.1373291015625,0.0762939453125
1.3162498999999999,3.9815573692321777,-8.097189903259277,4.302380561828613,-0.1068115234375,0,-0.030517578125
1.3187499,3.9839515686035156,-8.090007781982422,4.304774761199951,0.0457763671875,0.244140625,-0.0457763671875
1.3212499,3.9887399673461914,-8.078036308288574,4.304774761199951,0.18310546875,-0.091552734375,-0.0457763671875
1.3237499,3.9887399673461914,-8.066065788269043,4.304774761199951,0.244140625,-0.0762939453125,0.06103515625
1.3262498999999999,3.9863457679748535,-8.04930591583252,4.302380561828613,-0.0152587890625,0.030517578125,-0.0152587890625
1.3287499,3.974374771118164,-8.032546997070312,4.2951979637146,0.091552734375,-0.0762939453125,0
1.3312499,3.9624037742614746,-8.015787124633789,4.288015365600586,0.3204345703125,-0.0457763671875,-0.1373291015625
1.3337499,3.952826976776123,-8.003816604614258,4.285621166229248,0.335693359375,0.0457763671875,-0.152587890625
1.3362498999999999,3.9480385780334473,-7.989450931549072,4.278438568115234,0.274658203125,-0.0457763671875,-0.1068115234375
1.3387499,3.9456443786621094,-7.982268333435059,4.280832767486572,0.3204345703125,0.06103515625,-0.06103515625
1.3412499,3.9456443786621094,-7.977479934692383,4.280832767486572,0.2593994140625,0.091552734375,-0.0762939453125
1.3437499,3.950432777404785,-7.972691535949707,4.2951979637146,0.396728515625,-0.0152587890625,-0.1678466796875
1.3462498999999999,3.952826976776123,-7.972691535949707,4.299986362457275,0.3814697265625,-0.1220703125,-0.2899169921875
1.3487498999999998,3.950432777404785,-7.975085735321045,4.307168960571289,0.274658203125,0.06103515625,-0.244140625
1.3512499,3.9480385780334473,-7.9846625328063965,4.311957359313965,0.2288818359375,0.06103515625,-0.152587890625
1.3537499,3.9432501792907715,-7.994239330291748,4.309563159942627,0.213623046875,0.030517578125,-0.091552734375
1.3562499,3.9456443786621094,-8.010998725891113,4.311957359313965,0.152587890625,0.0152587890625,-0.091552734375
1.3587498999999998,3.9456443786621094,-8.020575523376465,4.311957359313965,0.3204345703125,0.091552734375,0.030517578125
1.3612499,3.952826976776123,-8.032546997070312,4.316745758056641,0.396728515625,0.213623046875,-0.1068115234375
1.3637499,3.952826976776123,-8.039729118347168,4.316745758056641,0.4730224609375,0.06103515625,-0.1220703125
1.3662499,3.9600095748901367,-8.04691219329834,4.316745758056641,0.3814697265625,0.1068115234375,-0.0762939453125
1.3687498999999999,3.9624037742614746,-8.044517517089844,4.309563159942627,0.4119873046875,-0.0152587890625,-0.213623046875
1.3712499,3.9647979736328125,-8.037335395812988,4.302380561828613,0.3204345703125,-0.0152587890625,-0.1220703125
1.3737499,3.9671921730041504,-8.006210327148438,4.278438568115234,0.396728515625,-0.1220703125,-0.18310546875
1.3762499,3.9695863723754883,-7.989450931549072,4.264073371887207,0.1983642578125,0.091552734375,-0.091552734375
1.3787498999999999,3.971980571746826,-7.977479934692383,4.2544965744018555,0.1983642578125,-0.091552734375,-0.1373291015625
1.3812499,3.97916316986084,-7.960720539093018,4.252102375030518,0.0457763671875,-0.1678466796875,0.0762939453125
1.3837499,3.97916316986084,-7.955932140350342,4.2544965744018555,0.0762939453125,0.030517578125,-0.1068115234375
1.3862499,3.97916316986084,-7.948749542236328,4.259284973144531,-0.091552734375,0.1373291015625,-0.152587890625
1.3887498999999999,3.971980571746826,-7.94635534286499,4.268861770629883,-0.1983642578125,0.0762939453125,0.030517578125
1.3912499,3.971980571746826,-7.94635534286499,4.2760443687438965,-0.213623046875,0.0457763671875,0.30517578125
1.3937499,3.9695863723754883,-7.951143741607666,4.285621166229248,-0.3204345703125,-0.0762939453125,0
1.3962499,3.971980571746826,-7.95832633972168,4.2975921630859375,-0.335693359375,-0.0152587890625,0.1220703125
1.3987498999999999,3.971980571746826,-7.975085735321045,4.309563159942627,-0.213623046875,-0.1983642578125,0.0762939453125
1.4012499,3.9671921730041504,-7.994239330291748,4.3191399574279785,-0.2593994140625,-0.1678466796875,0.1220703125
1.4037499,3.9647979736328125,-8.010998725891113,4.323928356170654,-0.396728515625,0,0.152587890625
1.4062499,3.9624037742614746,-8.030152320861816,4.32871675491333,-0.2593994140625,0.18310546875,0.0152587890625
1.4087498999999999,3.9647979736328125,-8.04691219329834,4.32871675491333,-0.1678466796875,-0.0152587890625,0.152587890625
1.4112498999999998,3.9671921730041504,-8.058882713317871,4.326322555541992,-0.0762939453125,-0.244140625,-0.030517578125
1.4137499,3.971980571746826,-8.063671112060547,4.3191399574279785,0.030517578125,-0.1678466796875,-0.0152587890625
1.4162499,3.9695863723754883,-8.063671112060547,4.316745758056641,-0.030517578125,0.0762939453125,0.1220703125
1.4187499,3.9671921730041504,-8.056488990783691,4.309563159942627,-0.0152587890625,0.091552734375,0.2288818359375
1.4212498999999998,3.9647979736328125,-8.04930591583252,4.302380561828613,0.1068115234375,0.0152587890625,0.091552734375
1.4237499,3.9671921730041504,-8.039729118347168,4.2975921630859375,0.213623046875,-0.1373291015625,0.18310546875
1.4262499,3.9695863723754883,-8.034940719604492,4.288015365600586,0.0152587890625,0.030517578125,0.0457763671875
1.4287499,3.976768970489502,-8.027758598327637,4.28322696685791,0.06103515625,-0.0152587890625,0.0152587890625
1.4312498999999999,3.9839515686035156,-8.022970199584961,4.273650169372559,-0.1220703125,0.0457763671875,-0.1068115234375
1.4337499,3.9839515686035156,-8.010998725891113,4.271255970001221,0.0152587890625,0.030517578125,-0.0152587890625
1.4362499,3.9815573692321777,-8.001421928405762,4.259284973144531,-0.06103515625,-0.0762939453125,0.18310546875
1.4387499,3.974374771118164,-7.989450931549072,4.259284973144531,-0.244140625,0.030517578125,0
1.4412498999999999,3.9647979736328125,-7.975085735321045,4.2544965744018555,-0.1983642578125,0.0762939453125,0.0762939453125
1.4437499,3.950432777404785,-7.970297336578369,4.2544965744018555,-0.2288818359375,0,0.1678466796875
1.4462499,3.9456443786621094,-7.967903137207031,4.259284973144531,-0.2288818359375,-0.030517578125,0.1068115234375
1.4487499,3.9432501792907715,-7.970297336578369,4.266467571258545,-0.30517578125,-0.2593994140625,0.091552734375
1.4512498999999999,3.950432777404785,-7.977479934692383,4.280832767486572,-0.4425048828125,-0.213623046875,0.2288818359375
1.4537499,3.957615375518799,-7.987056732177734,4.28322696685791,-0.396728515625,-0.0762939453125,0.213623046875
1.4562499,3.9624037742614746,-7.999027729034424,4.288015365600586,-0.335693359375,0.0457763671875,0.3662109375
1.4587499,3.9647979736328125,-8.006210327148438,4.280832767486572,-0.3509521484375,-0.0457763671875,0.2288818359375
1.4612498999999999,3.9624037742614746,-8.018181800842285,4.28322696685791,-0.2593994140625,-0.1068115234375,0.2899169921875
1.4637499,3.9600095748901367,-8.02536392211914,4.280832767486572,-0.48828125,0.1220703125,0.3814697265625
1.4662499,3.9600095748901367,-8.032546997070312,4.288015365600586,-0.42724609375,0.0762939453125,0.2593994140625
1.4687499,3.9600095748901367,-8.042123794555664,4.292803764343262,-0.3509521484375,0.0457763671875,0.152587890625
1.4712498999999999,3.9624037742614746,-8.051700592041016,4.2951979637146,-0.518798828125,0.091552734375,0.30517578125
1.4737498999999998,3.9647979736328125,-8.061277389526367,4.2951979637146,-0.457763671875,-0.0152587890625,0.396728515625
1.4762499,3.9671921730041504,-8.068459510803223,4.292803764343262,-0.3662109375,0.1068115234375,0.1678466796875
1.4787499,3.9671921730041504,-8.073247909545898,4.290409564971924,-0.396728515625,0,-0.06103515625
1.4812499,3.9624037742614746,-8.070854187011719,4.285621166229248,-0.2288818359375,-0.1068115234375,0.1678466796875
1.4837498999999998,3.9624037742614746,-8.061277389526367,4.28322696685791,-0.1983642578125,-0.1220703125,0.274658203125
1.4862499,3.952826976776123,-8.051700592041016,4.2760443687438965,-0.30517578125,-0.1678466796875,0.30517578125
1.4887499,3.952826976776123,-8.034940719604492,4.268861770629883,-0.2899169921875,-0.0152587890625,0.1983642578125
1.4912499,3.950432777404785,-8.02536392211914,4.266467571258545,-0.30517578125,0.030517578125,0.2288818359375
1.4937498999999999,3.955221176147461,-8.015787124633789,4.259284973144531,-0.213623046875,-0.1373291015625,0.1373291015625
1.4962499,3.955221176147461,-8.015787124633789,4.2544965744018555,-0.2899169921875,-0.06103515625,0.274658203125
1.4987499,3.952826976776123,-8.01339340209961,4.2544965744018555,-0.2593994140625,0.091552734375,0.091552734375
1.5012499,3.9480385780334473,-8.018181800842285,4.259284973144531,-0.4730224609375,0.1068115234375,0.091552734375
1.5037498999999999,3.9384617805480957,-8.020575523376465,4.266467571258545,-0.335693359375,-0.030517578125,0.0762939453125
1.5062499,3.9384617805480957,-8.02536392211914,4.278438568115234,-0.2288818359375,-0.091552734375,0.213623046875
1.5087499,3.9384617805480957,-8.030152320861816,4.288015365600586,-0.396728515625,0.0152587890625,0.244140625
1.5112499,3.9408559799194336,-8.032546997070312,4.292803764343262,-0.2288818359375,0,0.18310546875
1.5137498999999999,3.950432777404785,-8.037335395812988,4.299986362457275,-0.1678466796875,0.1678466796875,0.06103515625
1.5162499,3.955221176147461,-8.044517517089844,4.304774761199951,-0.1068115234375,0.030517578125,0.1373291015625
1.5187499,3.9671921730041504,-8.04930591583252,4.307168960571289,0.152587890625,-0.3662109375,0.213623046875
1.5212499,3.974374771118164,-8.058882713317871,4.321534156799316,0.3509521484375,-0.1983642578125,-0.030517578125
1.5237498999999999,3.9839515686035156,-8.066065788269043,4.331110954284668,0.2899169921875,-0.18310546875,-0.18310546875
1.5262499,3.9887399673461914,-8.070854187011719,4.343081951141357,0.42724609375,-0.0152587890625,-0.1068115234375
1.5287499,3.9887399673461914,-8.070854187011719,4.352658748626709,0.5340576171875,-0.0457763671875,-0.2593994140625
1.5312499,3.9887399673461914,-8.068459510803223,4.352658748626709,0.823974609375,0.0457763671875,-0.2288818359375
1.5337498999999999,3.9815573692321777,-8.061277389526367,4.350264549255371,0.8544921875,0.213623046875,-0.396728515625
1.5362499,3.976768970489502,-8.051700592041016,4.338293552398682,0.8392333984375,0.213623046875,-0.48828125
1.5387499,3.9671921730041504,-8.042123794555664,4.331110954284668,0.9307861328125,0.1068115234375,-0.5340576171875
1.5412499,3.957615375518799,-8.034940719604492,4.321534156799316,0.7781982421875,-0.06103515625,-0.4425048828125
1.5437499,3.950432777404785,-8.030152320861816,4.311957359313965,0.8392333984375,0.0152587890625,-0.4730224609375
1.5462498999999998,3.9480385780334473,-8.020575523376465,4.302380561828613,1.03759765625,0.06103515625,-0.54931640625
1.5487499,3.9480385780334473,-8.010998725891113,4.288015365600586,1.0833740234375,0.030517578125,-0.5035400390625
1.5512499,3.952826976776123,-7.996633529663086,4.2760443687438965,0.946044921875,0.1220703125,-0.4730224609375
1.5537499,3.955221176147461,-7.982268333435059,4.266467571258545,1.007080078125,0.0457763671875,-0.335693359375
1.5562498999999999,3.952826976776123,-7.970297336578369,4.264073371887207,1.03759765625,-0.06103515625,-0.274658203125
1.5587499,3.950432777404785,-7.965508937835693,4.264073371887207,0.7476806640625,0.091552734375,-0.2593994140625
1.5612499,3.9456443786621094,-7.955932140350342,4.266467571258545,0.4119873046875,0.0457763671875,-0.1678466796875
1.5637499,3.9456443786621094,-7.951143741607666,4.271255970001221,0.579833984375,0.1373291015625,-0.1983642578125
1.5662498999999999,3.9408559799194336,-7.94635534286499,4.278438568115234,0.4730224609375,0.2288818359375,-0.274658203125
1.5687499,3.9384617805480957,-7.943961143493652,4.285621166229248,0.2288818359375,0.0762939453125,-0.0762939453125
1.5712499,3.9384617805480957,-7.943961143493652,4.290409564971924,0.1373291015625,-0.1068115234375,0.1068115234375
1.5737499,3.936067581176758,-7.951143741607666,4.2951979637146,0.06103515625,0.1983642578125,-0.0457763671875
1.5762498999999999,3.9432501792907715,-7.9631147384643555,4.2951979637146,0.1983642578125,0.0457763671875,0.0762939453125
1.5787499,3.9456443786621094,-7.979874134063721,4.288015365600586,-0.1068115234375,-0.152587890625,0.030517578125
1.5812499,3.9624037742614746,-8.010998725891113,4.271255970001221,-0.30517578125,0.06103515625,0.152587890625
1.5837499,3.9695863723754883,-8.022970199584961,4.268861770629883,-0.3204345703125,0.1068115234375,0.1068115234375
1.5862498999999999,3.976768970489502,-8.027758598327637,4.268861770629883,-0.3814697265625,0.091552734375,0.1678466796875
1.5887499,3.97916316986084,-8.02536392211914,4.266467571258545,-0.54931640625,0,0.1068115234375
1.5912499,3.971980571746826,-8.020575523376465,4.266467571258545,-0.54931640625,0.0457763671875,0.335693359375
1.5937499,3.9695863723754883,-8.015787124633789,4.259284973144531,-0.640869140625,-0.0457763671875,0.4730224609375
1.5962498999999999,3.9624037742614746,-8.015787124633789,4.256890773773193,-0.7171630859375,0.06103515625,0.5035400390625
1.5987499,3.9647979736328125,-8.010998725891113,4.252102375030518,-0.8087158203125,-0.0152587890625,0.5340576171875
1.6012499,3.9647979736328125,-8.006210327148438,4.24970817565918,-0.9765625,-0.0762939453125,0.4119873046875
1.6037499,3.9647979736328125,-8.001421928405762,4.24970817565918,-0.9307861328125,-0.0457763671875,0.335693359375
1.6062499,3.957615375518799,-7.994239330291748,4.24970817565918,-1.15966796875,-0.030517578125,0.457763671875
1.6087498999999998,3.950432777404785,-7.996633529663086,4.24970817565918,-1.312255859375,-0.2593994140625,0.732421875
1.6112499,3.9432501792907715,-8.003816604614258,4.2544965744018555,-1.2664794921875,-0.274658203125,0.823974609375
1.6137499,3.9408559799194336,-8.01339340209961,4.2544965744018555,-1.220703125,-0.030517578125,0.732421875
1.6162499,3.9408559799194336,-8.020575523376465,4.259284973144531,-1.312255859375,0,0.6561279296875
1.6187498999999999,3.9456443786621094,-8.032546997070312,4.266467571258545,-1.312255859375,-0.18310546875,0.701904296875
1.6212499,3.9480385780334473,-8.039729118347168,4.271255970001221,-1.251220703125,-0.213623046875,0.67138671875
1.6237499,3.9456443786621094,-8.04691219329834,4.278438568115234,-1.2969970703125,-0.1373291015625,0.5340576171875
1.6262499,3.9432501792907715,-8.051700592041016,4.290409564971924,-1.1749267578125,-0.2288818359375,0.6561279296875
1.6287498999999999,3.9432501792907715,-8.056488990783691,4.299986362457275,-1.007080078125,-0.06103515625,0.701904296875
1.6312499,3.9432501792907715,-8.068459510803223,4.314351558685303,-0.8697509765625,-0.18310546875,0.8087158203125
1.6337499,3.950432777404785,-8.08282470703125,4.3406877517700195,-0.6256103515625,0.1678466796875,0.579833984375
1.6362499,3.955221176147461,-8.101978302001953,4.381389141082764,0,0.30517578125,0.5340576171875
1.6387498999999999,3.971980571746826,-8.11634349822998,4.438849925994873,0.213623046875,0.30517578125,0.2288818359375
1.6412499,3.9815573692321777,-8.125920295715332,4.491522312164307,0.6103515625,0.213623046875,-0.030517578125
1.6437499,3.9911341667175293,-8.125920295715332,4.527435302734375,0.946044921875,-0.18310546875,-0.457763671875
1.6462499,3.9911341667175293,-8.1139497756958,4.508281707763672,1.3885498046875,-0.6103515625,-0.579833984375
1.6487498999999999,3.9887399673461914,-8.090007781982422,4.438849925994873,1.190185546875,-0.7171630859375,-0.79345703125
1.6512499,3.9815573692321777,-8.051700592041016,4.326322555541992,1.312255859375,-0.457763671875,-1.1444091796875
1.6537499,3.9815573692321777,-8.006210327148438,4.197035789489746,1.1749267578125,-0.335693359375,-0.9918212890625
1.6562499,3.97916316986084,-7.960720539093018,4.0964789390563965,1.0528564453125,-0.0762939453125,-0.640869140625
1.6587498999999999,3.976768970489502,-7.91283655166626,4.036623954772949,0.79345703125,0.1068115234375,-0.457763671875
1.6612499,3.971980571746826,-7.884106159210205,4.027047157287598,0.54931640625,0.48828125,-0.274658203125
1.6637499,3.9624037742614746,-7.8745293617248535,4.062960147857666,0.3509521484375,0.5950927734375,-0.030517578125
1.6662499,3.950432777404785,-7.891288757324219,4.125209331512451,0.091552734375,0.5645751953125,-0.0152587890625
1.6687499,3.936067581176758,-7.927201747894287,4.20421838760376,0.2288818359375,0.5035400390625,-0.0152587890625
1.6712498999999998,3.9217023849487305,-7.972691535949707,4.280832767486572,0.3662109375,0.518798828125,0
1.6737499,3.914519786834717,-8.022970199584961,4.350264549255371,0.4730224609375,0.3204345703125,-0.30517578125
1.6762499,3.912125587463379,-8.063671112060547,4.400542736053467,0.5340576171875,0.18310546875,-0.3662109375
1.6787499,3.931279182434082,-8.097189903259277,4.4292731285095215,0.6561279296875,0,-0.48828125
1.6812498999999999,3.957615375518799,-8.118738174438477,4.434061527252197,0.7171630859375,-0.3204345703125,-0.5950927734375
1.6837499,3.998316764831543,-8.130708694458008,4.41969633102417,0.8544921875,-0.4119873046875,-0.8544921875
1.6862499,4.041412353515625,-8.128314971923828,4.388571739196777,0.7781982421875,-0.1068115234375,-0.67138671875
1.6887499,4.0749311447143555,-8.111555099487305,4.352658748626709,0.91552734375,0.091552734375,-0.640869140625
1.6912498999999999,4.091690540313721,-8.08282470703125,4.3191399574279785,0.9307861328125,0.0762939453125,-0.518798828125
1.6937499,4.091690540313721,-8.044517517089844,4.285621166229248,0.946044921875,0.244140625,-0.5035400390625
1.6962499,4.07014274597168,-8.008605003356934,4.259284973144531,0.732421875,0.2288818359375,-0.274658203125
1.6987499,4.031835556030273,-7.977479934692383,4.240131378173828,0.640869140625,0.5340576171875,-0.1068115234375
1.7012498999999999,3.9863457679748535,-7.965508937835693,4.230554580688477,0.5950927734375,0.335693359375,0.0152587890625
1.7037499,3.9384617805480957,-7.960720539093018,4.240131378173828,0.4119873046875,0.1373291015625,0.1983642578125
1.7062499,3.8953661918640137,-7.967903137207031,4.264073371887207,0.2593994140625,0.274658203125,0.0762939453125
1.7087499,3.864241600036621,-7.972691535949707,4.299986362457275,0.0152587890625,0.152587890625,-0.06103515625
1.7112498999999999,3.847482204437256,-7.972691535949707,4.331110954284668,0.1068115234375,-0.30517578125,0.1983642578125
1.7137499,3.840299606323242,-7.9631147384643555,4.343081951141357,-0.030517578125,-0.579833984375,0.2288818359375
1.7162499,3.8498764038085938,-7.943961143493652,4.32871675491333,-0.18310546875,-0.54931640625,-0.0152587890625
1.7187499,3.866635799407959,-7.922413349151611,4.288015365600586,-0.457763671875,-0.4425048828125,0.030517578125
1.7212498999999999,3.9001545906066895,-7.903259754180908,4.23773717880249,-0.48828125,-0.457763671875,0.030517578125
1.7237499,3.936067581176758,-7.886500358581543,4.185064792633057,-0.5950927734375,-0.152587890625,0.0152587890625
1.7262499,3.974374771118164,-7.881711959838867,4.153939723968506,-0.732421875,-0.152587890625,0.4730224609375
1.7287499,4.010287761688232,-7.881711959838867,4.137180328369141,-0.9613037109375,0.091552734375,0.518798828125
1.7312499,4.0294413566589355,-7.891288757324219,4.144362926483154,-1.1749267578125,0.18310546875,0.396728515625
1.7337498999999998,4.034229755401611,-7.910442352294922,4.168305397033691,-1.1444091796875,0.2593994140625,0.5950927734375
1.7362499,4.031835556030273,-7.936778545379639,4.206612586975098,-1.3275146484375,0.335693359375,0.732421875
1.7387499,4.015076160430908,-7.977479934692383,4.244919776916504,-1.434326171875,0.1068115234375,0.762939453125
1.7412499,4.000710964202881,-8.015787124633789,4.288015365600586,-1.556396484375,-0.1220703125,0.6103515625
1.7437498999999999,3.9863457679748535,-8.058882713317871,4.321534156799316,-1.4190673828125,0.0457763671875,0.5340576171875
1.7462499,3.9671921730041504,-8.097189903259277,4.350264549255371,-1.3275146484375,0.030517578125,0.579833984375
1.7487499,3.950432777404785,-8.130708694458008,4.367023944854736,-1.2664794921875,-0.030517578125,0.457763671875
1.7512499,3.9384617805480957,-8.159439086914062,4.37420654296875,-1.0986328125,0.0152587890625,0.6256103515625
1.7537498999999999,3.928884983062744,-8.180987358093262,4.3861775398254395,-0.9918212890625,0.0457763671875,0.6103515625
1.7562499,3.93367338180542,-8.197746276855469,4.398148536682129,-0.7476806640625,-0.06103515625,0.6866455078125
1.7587499,3.9408559799194336,-8.20492935180664,4.4292731285095215,-0.244140625,-0.030517578125,0.3509521484375
1.7612499,3.955221176147461,-8.200140953063965,4.474762916564941,0.1373291015625,0.1983642578125,0.0762939453125
1.7637498999999999,3.9695863723754883,-8.183381080627441,4.520252704620361,0.8544921875,0.1220703125,0.1983642578125
1.7662499,3.974374771118164,-8.145073890686035,4.5394062995910645,0.9613037109375,-0.213623046875,-0.18310546875
1.7687499,3.976768970489502,-8.094796180725098,4.517858505249023,1.15966796875,-0.6561279296875,-0.579833984375
1.7712499,3.97916316986084,-8.037335395812988,4.438849925994873,1.2054443359375,-0.823974609375,-0.6561279296875
1.7737498999999999,3.9863457679748535,-7.977479934692383,4.321534156799316,0.9765625,-0.8087158203125,-0.8544921875
1.7762499,3.998316764831543,-7.915230751037598,4.189853191375732,0.9918212890625,-0.5340576171875,-0.8087158203125
1.7787499,4.01268196105957,-7.857769966125488,4.079719543457031,0.8544921875,-0.1373291015625,-0.8392333984375
1.7812499,4.015076160430908,-7.807491779327393,4.003105163574219,0.4119873046875,0.1373291015625,-0.335693359375
1.7837498999999999,4.005499362945557,-7.771578788757324,3.976768970489502,0.0762939453125,0.4119873046875,0.1373291015625
1.7862499,3.976768970489502,-7.762001991271973,3.9911341667175293,-0.3509521484375,0.5645751953125,0.213623046875
1.7887499,3.914519786834717,-7.848193168640137,4.129997730255127,-0.9002685546875,0.8392333984375,0.6561279296875
1.7912499,3.885789394378662,-7.931990146636963,4.225766181945801,-0.54931640625,0.8544921875,0.7171630859375
1.7937499,3.864241600036621,-8.02536392211914,4.326322555541992,-0.396728515625,0.6561279296875,0.518798828125
1.7962498999999998,3.8522706031799316,-8.106766700744629,4.412513732910156,-0.18310546875,0.3509521484375,0.213623046875
1.7987499,3.8546648025512695,-8.17141056060791,4.479551315307617,-0.1373291015625,-0.2288818359375,0.091552734375
1.8012499,3.8786067962646484,-8.214506149291992,4.513070106506348,0,-0.396728515625,-0.152587890625
1.8037499,3.9169139862060547,-8.236053466796875,4.505887508392334,0.5340576171875,-0.79345703125,-0.2593994140625
1.8062498999999999,3.971980571746826,-8.22887134552002,4.469974517822266,0.7476806640625,-0.67138671875,-0.5950927734375
1.8087499,4.022258758544922,-8.202534675598145,4.4077253341674805,0.6866455078125,-0.2288818359375,-0.396728515625
1.8112499,4.062960147857666,-8.157045364379883,4.3406877517700195,0.8087158203125,-0.274658203125,-0.5340576171875
1.8137499,4.086902141571045,-8.099584579467773,4.273650169372559,0.79345703125,-0.1983642578125,-0.7171630859375
1.8162498999999999,4.091690540313721,-8.044517517089844,4.218583583831787,0.640869140625,0.06103515625,-0.30517578125
1.8187499,4.079719543457031,-7.999027729034424,4.180276393890381,0.6103515625,0.274658203125,-0.244140625
1.8212499,4.050989151000977,-7.965508937835693,4.163516521453857,0.457763671875,0.4730224609375,-0.1068115234375
1.8237499,4.005499362945557,-7.948749542236328,4.175487995147705,0.4425048828125,0.3814697265625,-0.030517578125
1.8262498999999999,3.955221176147461,-7.9415669441223145,4.201824188232422,0.3204345703125,0.2899169921875,0.0762939453125
1.8287499,3.907337188720703,-7.936778545379639,4.244919776916504,0.030517578125,0.152587890625,-0.091552734375
1.8312499,3.8714241981506348,-7.931990146636963,4.278438568115234,0,-0.0457763671875,-0.1220703125
1.8337499,3.8498764038085938,-7.924807548522949,4.304774761199951,-0.18310546875,-0.274658203125,-0.0762939453125
1.8362498999999999,3.847482204437256,-7.9176249504089355,4.314351558685303,-0.1983642578125,-0.48828125,-0.1068115234375
1.8387499,3.8594532012939453,-7.9176249504089355,4.307168960571289,-0.2593994140625,-0.3509521484375,-0.091552734375
1.8412499,3.88818359375,-7.920019149780273,4.28322696685791,-0.4425048828125,-0.30517578125,0.213623046875
1.8437499,3.9217023849487305,-7.931990146636963,4.261679172515869,-0.6561279296875,-0.0762939453125,0.091552734375
1.8462498999999999,3.957615375518799,-7.943961143493652,4.242525577545166,-0.54931640625,0.030517578125,0.18310546875
1.8487499,3.9839515686035156,-7.95832633972168,4.23773717880249,-0.3814697265625,0.244140625,0.335693359375
1.8512499,4.005499362945557,-7.970297336578369,4.247313976287842,-0.1983642578125,0.1220703125,0.335693359375
1.8537499,4.017470359802246,-7.987056732177734,4.264073371887207,-0.30517578125,0.18310546875,0.2899169921875
1.8562499,4.022258758544922,-8.003816604614258,4.288015365600586,-0.2593994140625,0.274658203125,0.152587890625
1.8587498999999998,4.02465295791626,-8.02536392211914,4.3191399574279785,-0.335693359375,0.152587890625,0.0152587890625
1.8612499,4.022258758544922,-8.044517517089844,4.3406877517700195,-0.3662109375,0.213623046875,0.152587890625
1.8637499,4.015076160430908,-8.061277389526367,4.359841346740723,-0.1373291015625,0.0152587890625,0.152587890625
1.8662499,4.005499362945557,-8.066065788269043,4.371812343597412,-0.030517578125,0.1678466796875,-0.1373291015625
1.8687498999999999,3.998316764831543,-8.061277389526367,4.367023944854736,0.030517578125,0.0762939453125,-0.244140625
1.8712499,3.9839515686035156,-8.054094314575195,4.364629745483398,-0.1983642578125,0.091552734375,-0.1068115234375
1.8737499,3.976768970489502,-8.051700592041016,4.350264549255371,-0.2288818359375,0.030517578125,0.030517578125
1.8762499,3.9695863723754883,-8.042123794555664,4.338293552398682,-0.1678466796875,0,-0.030517578125
1.8787498999999999,3.9624037742614746,-8.04691219329834,4.32871675491333,0.213623046875,0.152587890625,0.1220703125
1.8812499,3.955221176147461,-8.04691219329834,4.321534156799316,0.244140625,0.1373291015625,0.244140625
1.8837499,3.9456443786621094,-8.054094314575195,4.321534156799316,0.335693359375,0.0762939453125,0.244140625
1.8862499,3.9384617805480957,-8.056488990783691,4.3191399574279785,0.30517578125,-0.0457763671875,0.1220703125
1.8887498999999999,3.936067581176758,-8.054094314575195,4.314351558685303,0.18310546875,-0.274658203125,0.06103515625
1.8912499,3.9384617805480957,-8.04930591583252,4.302380561828613,0.274658203125,-0.30517578125,0.0762939453125
1.8937499,3.950432777404785,-8.037335395812988,4.288015365600586,0.1678466796875,-0.396728515625,-0.1983642578125
1.8962499,3.9600095748901367,-8.018181800842285,4.264073371887207,0.152587890625,-0.1983642578125,0.0152587890625
1.8987498999999999,3.976768970489502,-7.996633529663086,4.240131378173828,0.030517578125,-0.1983642578125,-0.0457763671875
1.9012499,3.9863457679748535,-7.970297336578369,4.2090067863464355,-0.0152587890625,-0.274658203125,-0.091552734375
1.9037499,3.998316764831543,-7.939172744750977,4.1874589920043945,-0.213623046875,0.0152587890625,0.0457763671875
1.9062499,4.003105163574219,-7.9176249504089355,4.163516521453857,-0.42724609375,0.1220703125,0.1220703125
1.9087498999999999,4.0078935623168945,-7.903259754180908,4.158728122711182,-0.67138671875,0.030517578125,0.2899169921875
1.9112499,4.005499362945557,-7.903259754180908,4.165910720825195,-0.4730224609375,0.06103515625,0.396728515625
1.9137499,4.000710964202881,-7.924807548522949,4.189853191375732,-0.6866455078125,0.396728515625,0.42724609375
1.9162499,3.9839515686035156,-7.953537940979004,4.228160381317139,-0.8544921875,0.30517578125,0.42724609375
1.9187499,3.9647979736328125,-7.994239330291748,4.273650169372559,-0.8697509765625,0.3509521484375,0.5035400390625
1.9212498999999998,3.9408559799194336,-8.039729118347168,4.323928356170654,-0.79345703125,0.2288818359375,0.4425048828125
1.9237499,3.9240965843200684,-8.08282470703125,4.367023944854736,-0.640869140625,0.4119873046875,0.335693359375
1.9262499,3.909731388092041,-8.123526573181152,4.395754337310791,-0.5340576171875,0.06103515625,0.30517578125
1.9287499,3.907337188720703,-8.149862289428711,4.412513732910156,-0.518798828125,-0.213623046875,0.2899169921875
1.9312498999999999,3.914519786834717,-8.166622161865234,4.410119533538818,-0.244140625,-0.0457763671875,-0.0152587890625
1.9337499,3.928884983062744,-8.166622161865234,4.393360137939453,-0.1220703125,-0.18310546875,0.152587890625
1.9362499,3.936067581176758,-8.157045364379883,4.371812343597412,0.091552734375,-0.2593994140625,0.1983642578125
1.9387499,3.952826976776123,-8.13789176940918,4.343081951141357,0.3509521484375,-0.2899169921875,0.1220703125
1.9412498999999999,3.9624037742614746,-8.10437297821045,4.314351558685303,0.396728515625,-0.2593994140625,0.091552734375
1.9437499,3.9671921730041504,-8.073247909545898,4.285621166229248,0.335693359375,-0.3204345703125,-0.0457763671875
1.9462499,3.97916316986084,-8.032546997070312,4.261679172515869,0.2288818359375,-0.2593994140625,0.0457763671875
1.9487499,3.976768970489502,-7.99184513092041,4.240131378173828,0.2288818359375,0,0.0152587890625
1.9512498999999999,3.976768970489502,-7.951143741607666,4.223371982574463,0.2593994140625,-0.0152587890625,0.030517578125
1.9537499,3.971980571746826,-7.920019149780273,4.211400985717773,0.1373291015625,0.06103515625,0.0457763671875
1.9562499,3.9671921730041504,-7.898471355438232,4.211400985717773,-0.0457763671875,0.18310546875,0.091552734375
1.9587499,3.957615375518799,-7.891288757324219,4.216189384460449,-0.152587890625,0.213623046875,-0.0457763671875
1.9612498999999999,3.952826976776123,-7.891288757324219,4.230554580688477,-0.1373291015625,0.0152587890625,-0.0152587890625
1.9637499,3.9432501792907715,-7.908048152923584,4.24970817565918,-0.1678466796875,0.2899169921875,-0.030517578125
1.9662499,3.9408559799194336,-7.929595947265625,4.273650169372559,-0.42724609375,0.1678466796875,0.030517578125
1.9687499,3.9384617805480957,-7.960720539093018,4.2975921630859375,-0.335693359375,0.244140625,-0.0762939453125
1.9712498999999999,3.9408559799194336,-7.996633529663086,4.3191399574279785,-0.06103515625,0.274658203125,-0.0457763671875
1.9737499,3.9432501792907715,-8.032546997070312,4.335899353027344,0.1678466796875,0.244140625,-0.06103515625
1.9762499,3.9456443786621094,-8.063671112060547,4.350264549255371,0.30517578125,0.091552734375,-0.1220703125
1.9787499,3.952826976776123,-8.092401504516602,4.350264549255371,0.274658203125,-0.030517578125,-0.152587890625
1.9812499,3.9600095748901367,-8.109161376953125,4.352658748626709,0.3662109375,0.0457763671875,-0.1983642578125
1.9837499,3.9695863723754883,-8.1139497756958,4.347870349884033,0.518798828125,0,-0.244140625
1.9862499,3.9839515686035156,-8.1139497756958,4.338293552398682,0.701904296875,-0.030517578125,-0.18310546875
1.9887499,3.993528366088867,-8.099584579467773,4.32871675491333,0.5035400390625,0.0152587890625,-0.30517578125
1.9912499,4.003105163574219,-8.08043098449707,4.316745758056641,0.54931640625,-0.213623046875,-0.213623046875
1.9937498999999999,4.010287761688232,-8.056488990783691,4.304774761199951,0.5340576171875,-0.1373291015625,-0.3662109375
1.9962499,4.005499362945557,-7.999027729034424,4.280832767486572,0.5645751953125,-0.0457763671875,-0.0152587890625
1.9987499,3.993528366088867,-7.972691535949707,4.271255970001221,0.4119873046875,-0.0762939453125,-0.2288818359375
2.0012499,3.97916316986084,-7.955932140350342,4.261679172515869,0.18310546875,0,-0.2593994140625
2.0037499,3.9600095748901367,-7.94635534286499,4.261679172515869,0.1678466796875,0.0152587890625,-0.2288818359375
2.0062499,3.9432501792907715,-7.94635534286499,4.264073371887207,0.1983642578125,0.030517578125,-0.1220703125
2.0087498999999998,3.931279182434082,-7.948749542236328,4.268861770629883,0.1373291015625,0.1678466796875,-0.1068115234375
2.0112499,3.9217023849487305,-7.953537940979004,4.278438568115234,0.152587890625,0.1373291015625,0.091552734375
2.0137499,3.9217023849487305,-7.955932140350342,4.285621166229248,-0.091552734375,-0.0152587890625,-0.06103515625
2.0162499,3.9240965843200684,-7.9631147384643555,4.288015365600586,-0.030517578125,-0.152587890625,0.06103515625
2.0187499,3.928884983062744,-7.967903137207031,4.285621166229248,-0.0152587890625,-0.06103515625,0.1068115234375
2.0212499,3.9384617805480957,-7.975085735321045,4.280832767486572,-0.06103515625,0.2288818359375,0.06103515625
2.0237499,3.9480385780334473,-7.982268333435059,4.271255970001221,-0.0152587890625,-0.1068115234375,0.2288818359375
2.0262499,3.952826976776123,-7.987056732177734,4.266467571258545,-0.213623046875,-0.0457763671875,0.274658203125
2.0287498999999998,3.9624037742614746,-7.994239330291748,4.268861770629883,-0.2899169921875,0,0.2593994140625
2.0312499,3.9624037742614746,-7.996633529663086,4.273650169372559,-0.335693359375,0.091552734375,0.06103515625
2.0337499,3.9671921730041504,-8.003816604614258,4.28322696685791,-0.335693359375,0.18310546875,0.1983642578125
2.0362499,3.9671921730041504,-8.008605003356934,4.292803764343262,-0.2593994140625,0.0457763671875,0.213623046875
2.0387499,3.9671921730041504,-8.018181800842285,4.2951979637146,-0.4119873046875,-0.0762939453125,0.3814697265625
2.0412499,3.9624037742614746,-8.027758598327637,4.2951979637146,-0.30517578125,0.091552734375,0.2899169921875
2.0437499,3.9624037742614746,-8.030152320861816,4.299986362457275,-0.4425048828125,0.091552734375,0.1068115234375
2.0462499,3.957615375518799,-8.037335395812988,4.2975921630859375,-0.396728515625,-0.1068115234375,0.18310546875
2.0487499,3.9600095748901367,-8.032546997070312,4.2975921630859375,-0.4119873046875,0,0.2593994140625
2.0512498999999997,3.9624037742614746,-8.030152320861816,4.2975921630859375,-0.4119873046875,-0.1068115234375,0.4425048828125
2.0537499,3.9624037742614746,-8.030152320861816,4.288015365600586,-0.42724609375,-0.244140625,0.3509521484375
2.0562499,3.9671921730041504,-8.032546997070312,4.28322696685791,-0.3662109375,-0.244140625,0.1983642578125
2.0587499,3.9671921730041504,-8.032546997070312,4.273650169372559,-0.4730224609375,-0.1983642578125,0.1220703125
2.0612499,3.971980571746826,-8.039729118347168,4.273650169372559,-0.457763671875,-0.18310546875,0.18310546875
2.0637499,3.974374771118164,-8.039729118347168,4.2760443687438965,-0.2288818359375,-0.0762939453125,0.1220703125
2.0662499,3.974374771118164,-8.037335395812988,4.28322696685791,-0.3509521484375,0.06103515625,-0.091552734375
2.0687499,3.971980571746826,-8.034940719604492,4.292803764343262,-0.3662109375,-0.0457763671875,0.1983642578125
2.0712498999999998,3.9647979736328125,-8.027758598327637,4.292803764343262,-0.244140625,0,0.1983642578125
2.0737499,3.955221176147461,-8.022970199584961,4.292803764343262,-0.0762939453125,-0.0762939453125,0.1220703125
2.0762499,3.9480385780334473,-8.022970199584961,4.290409564971924,-0.3509521484375,0.1373291015625,-0.0152587890625
2.0787499,3.9384617805480957,-8.022970199584961,4.292803764343262,-0.091552734375,0.274658203125,-0.0457763671875
2.0812499,3.93367338180542,-8.020575523376465,4.2951979637146,-0.1678466796875,0.0152587890625,0.1983642578125
2.0837499,3.9384617805480957,-8.020575523376465,4.2975921630859375,0.0457763671875,-0.1068115234375,0.335693359375
2.0862499,3.9432501792907715,-8.018181800842285,4.302380561828613,-0.0152587890625,0.1373291015625,0.1068115234375
2.0887499,3.957615375518799,-8.01339340209961,4.302380561828613,0,-0.1068115234375,0.091552734375
2.0912498999999998,3.9695863723754883,-8.015787124633789,4.307168960571289,0.0152587890625,-0.1678466796875,0.091552734375
2.0937499,3.9839515686035156,-8.020575523376465,4.314351558685303,0.213623046875,-0.091552734375,0.0762939453125
2.0962499,3.9911341667175293,-8.02536392211914,4.316745758056641,0.1983642578125,-0.0152587890625,-0.1373291015625
2.0987499,3.9887399673461914,-8.032546997070312,4.321534156799316,0.274658203125,0.1678466796875,-0.1373291015625
2.1012499,3.9887399673461914,-8.039729118347168,4.311957359313965,0.3662109375,0.1373291015625,0.091552734375
2.1037499,3.9815573692321777,-8.044517517089844,4.307168960571289,0.42724609375,0.1373291015625,-0.1068115234375
2.1062499,3.976768970489502,-8.056488990783691,4.302380561828613,0.0762939453125,-0.0457763671875,-0.152587890625
2.1087499,3.974374771118164,-8.061277389526367,4.299986362457275,0.3814697265625,-0.1678466796875,-0.0457763671875
2.1112499,3.9695863723754883,-8.063671112060547,4.304774761199951,0.579833984375,-0.1373291015625,-0.0152587890625
2.1137498999999997,3.9671921730041504,-8.058882713317871,4.309563159942627,0.48828125,-0.030517578125,-0.152587890625
2.1162499,3.9647979736328125,-8.054094314575195,4.307168960571289,0.3662109375,-0.2593994140625,-0.48828125
2.1187499,3.9600095748901367,-8.042123794555664,4.302380561828613,0.5035400390625,-0.030517578125,-0.244140625
2.1212499,3.9624037742614746,-8.027758598327637,4.2951979637146,0.48828125,0.1220703125,-0.2899169921875
2.1237499,3.9600095748901367,-8.008605003356934,4.285621166229248,0.5340576171875,-0.244140625,-0.2288818359375
2.1262499,3.9647979736328125,-7.987056732177734,4.273650169372559,0.3662109375,-0.213623046875,-0.3509521484375
2.1287499,3.9647979736328125,-7.967903137207031,4.261679172515869,0.4119873046875,0.0152587890625,-0.2593994140625
2.1312499,3.9671921730041504,-7.953537940979004,4.252102375030518,0.3204345703125,0.1678466796875,-0.0762939453125
2.1337498999999998,3.9671921730041504,-7.9415669441223145,4.247313976287842,0.2593994140625,0.2593994140625,0.030517578125
2.1362499,3.9624037742614746,-7.939172744750977,4.247313976287842,0.0762939453125,0.1678466796875,-0.030517578125
2.1387499,3.955221176147461,-7.943961143493652,4.2544965744018555,0.0152587890625,0.1068115234375,0.1068115234375
2.1412499,3.9480385780334473,-7.955932140350342,4.266467571258545,0.030517578125,0.0152587890625,-0.0152587890625
2.1437499,3.9432501792907715,-7.975085735321045,4.280832767486572,-0.1220703125,0,0.030517578125
2.1462499,3.9432501792907715,-7.989450931549072,4.2951979637146,-0.06103515625,-0.06103515625,0.152587890625
2.1487499,3.9432501792907715,-8.006210327148438,4.307168960571289,-0.1068115234375,-0.030517578125,-0.1068115234375
2.1512499,3.950432777404785,-8.01339340209961,4.321534156799316,0,-0.091552734375,-0.30517578125
2.1537498999999998,3.9600095748901367,-8.02536392211914,4.323928356170654,-0.0152587890625,0.0457763671875,0.091552734375
2.1562499,3.9671921730041504,-8.030152320861816,4.321534156799316,-0.274658203125,0,0.1678466796875
2.1587499,3.976768970489502,-8.034940719604492,4.311957359313965,-0.274658203125,0.0457763671875,0.0457763671875
2.1612499,3.9839515686035156,-8.034940719604492,4.2975921630859375,-0.1220703125,-0.030517578125,0.06103515625
2.1637499,3.9887399673461914,-8.032546997070312,4.28322696685791,-0.18310546875,0.1678466796875,0.1220703125
2.1662499,3.9911341667175293,-8.02536392211914,4.271255970001221,-0.1678466796875,0.1373291015625,0.396728515625
2.1687499,3.9839515686035156,-8.022970199584961,4.268861770629883,-0.396728515625,0.0152587890625,0.30517578125
2.1712499,3.974374771118164,-8.020575523376465,4.266467571258545,-0.2288818359375,0.0457763671875,0.335693359375
2.1737499,3.952826976776123,-8.020575523376465,4.273650169372559,-0.2593994140625,0.06103515625,0.335693359375
2.1762499,3.9384617805480957,-8.018181800842285,4.280832767486572,-0.30517578125,0.0152587890625,0.2288818359375
2.1787499,3.9264907836914062,-8.01339340209961,4.292803764343262,-0.3662109375,-0.3509521484375,0.274658203125
2.1812499,3.9169139862060547,-8.006210327148438,4.299986362457275,-0.3662109375,-0.3509521484375,0.30517578125
2.1837499,3.9169139862060547,-8.001421928405762,4.302380561828613,-0.4425048828125,-0.213623046875,0.213623046875
2.1862499,3.9240965843200684,-7.996633529663086,4.2951979637146,-0.5645751953125,-0.1983642578125,0.0457763671875
2.1887499,3.936067581176758,-7.99184513092041,4.285621166229248,-0.6103515625,-0.1068115234375,0.213623046875
2.1912499,3.9480385780334473,-7.987056732177734,4.271255970001221,-0.2899169921875,-0.2288818359375,0.3509521484375
2.1937499,3.9624037742614746,-7.987056732177734,4.261679172515869,-0.48828125,0,0.152587890625
2.1962498999999998,3.9647979736328125,-7.987056732177734,4.256890773773193,-0.48828125,-0.0152587890625,0.152587890625
2.1987499,3.9671921730041504,-7.989450931549072,4.256890773773193,-0.4425048828125,0.0457763671875,0.3509521484375
2.2012499,3.9600095748901367,-7.999027729034424,4.261679172515869,-0.5645751953125,0.1068115234375,0.5340576171875
2.2037499,3.9456443786621094,-8.018181800842285,4.285621166229248,-0.3204345703125,0.0152587890625,0.3814697265625
2.2062499,3.936067581176758,-8.032546997070312,4.304774761199951,-0.2593994140625,-0.0152587890625,0.3662109375
2.2087499,3.9384617805480957,-8.042123794555664,4.3191399574279785,-0.2593994140625,0.0457763671875,0.091552734375
2.2112499,3.9432501792907715,-8.051700592041016,4.333505153656006,-0.0152587890625,-0.06103515625,-0.0152587890625
2.2137499,3.955221176147461,-8.056488990783691,4.338293552398682,-0.091552734375,-0.2288818359375,-0.0457763671875
2.2162498999999998,3.9695863723754883,-8.061277389526367,4.331110954284668,0.06103515625,-0.1068115234375,-0.091552734375
2.2187499,3.9815573692321777,-8.056488990783691,4.3191399574279785,0.1373291015625,0.0457763671875,-0.0457763671875
2.2212499,3.993528366088867,-8.054094314575195,4.304774761199951,0.1373291015625,0.06103515625,-0.152587890625
2.2237499,3.998316764831543,-8.04930591583252,4.288015365600586,0.274658203125,0.1068115234375,0.0457763671875
2.2262499,4.000710964202881,-8.04691219329834,4.2760443687438965,0.2899169921875,0.06103515625,-0.06103515625
2.2287499,3.993528366088867,-8.042123794555664,4.271255970001221,0.4119873046875,0.0152587890625,-0.091552734375
2.2312499,3.9815573692321777,-8.042123794555664,4.268861770629883,0.335693359375,0.1678466796875,-0.152587890625
2.2337499,3.971980571746826,-8.037335395812988,4.273650169372559,0.274658203125,0.2288818359375,-0.244140625
2.2362499,3.9600095748901367,-8.032546997070312,4.28322696685791,0.3814697265625,-0.152587890625,-0.30517578125
2.2387499,3.957615375518799,-8.027758598327637,4.288015365600586,0.48828125,-0.3204345703125,-0.518798828125
2.2412499,3.9624037742614746,-8.015787124633789,4.2951979637146,0.3662109375,0.030517578125,-0.3204345703125
2.2437499,3.9695863723754883,-8.010998725891113,4.292803764343262,0.579833984375,-0.18310546875,-0.2899169921875
2.2462499,3.9815573692321777,-7.996633529663086,4.290409564971924,0.579833984375,0.0762939453125,-0.396728515625
2.2487499,3.9887399673461914,-7.99184513092041,4.278438568115234,0.518798828125,0.091552734375,-0.5340576171875
2.2512499,3.9911341667175293,-7.982268333435059,4.273650169372559,0.54931640625,0.1068115234375,-0.244140625
2.2537499,3.9911341667175293,-7.975085735321045,4.271255970001221,0.3509521484375,0.2593994140625,-0.091552734375
2.2562499,3.9839515686035156,-7.970297336578369,4.273650169372559,0.2899169921875,0.274658203125,-0.0457763671875
2.2587498999999998,3.9695863723754883,-7.977479934692383,4.278438568115234,0.4119873046875,0.1983642578125,-0.030517578125
2.2612499,3.955221176147461,-7.9846625328063965,4.292803764343262,0.4425048828125,0.2899169921875,-0.0152587890625
2.2637499,3.9384617805480957,-8.003816604614258,4.307168960571289,0.48828125,0.244140625,-0.2899169921875
2.2662499,3.928884983062744,-8.020575523376465,4.3191399574279785,0.4730224609375,0.1220703125,-0.1678466796875
2.2687499,3.9264907836914062,-8.034940719604492,4.32871675491333,0.3662109375,0.1068115234375,-0.0457763671875
2.2712499,3.928884983062744,-8.042123794555664,4.326322555541992,0.3662109375,-0.30517578125,-0.274658203125
2.2737499,3.936067581176758,-8.042123794555664,4.316745758056641,0.335693359375,-0.2593994140625,-0.2593994140625
2.2762499,3.9432501792907715,-8.034940719604492,4.304774761199951,0.48828125,-0.30517578125,-0.091552734375
2.2787498999999998,3.952826976776123,-8.020575523376465,4.2951979637146,0.6256103515625,-0.2593994140625,-0.244140625
2.2812499,3.9600095748901367,-8.003816604614258,4.285621166229248,0.3204345703125,-0.0152587890625,-0.091552734375
2.2837499,3.9647979736328125,-7.979874134063721,4.2760443687438965,0.213623046875,0.0457763671875,0
2.2862499,3.971980571746826,-7.95832633972168,4.264073371887207,0,-0.030517578125,-0.06103515625
2.2887499,3.971980571746826,-7.9415669441223145,4.252102375030518,-0.06103515625,0.0152587890625,-0.1220703125
2.2912499,3.974374771118164,-7.929595947265625,4.244919776916504,0.030517578125,0.152587890625,0.091552734375
2.2937499,3.971980571746826,-7.929595947265625,4.242525577545166,-0.1983642578125,0.2593994140625,0.2899169921875
2.2962499,3.9671921730041504,-7.936778545379639,4.247313976287842,-0.1983642578125,0.091552734375,0.1983642578125
2.2987499,3.9600095748901367,-7.951143741607666,4.2544965744018555,-0.274658203125,0.244140625,0.091552734375
2.3012499,3.9480385780334473,-7.9631147384643555,4.271255970001221,-0.4119873046875,0.152587890625,0.030517578125
2.3037499,3.9384617805480957,-7.979874134063721,4.280832767486572,-0.457763671875,-0.06103515625,0.030517578125
2.3062499,3.93367338180542,-7.99184513092041,4.292803764343262,-0.54931640625,-0.0152587890625,0.0762939453125
2.3087499,3.928884983062744,-8.003816604614258,4.2975921630859375,-0.54931640625,0.030517578125,-0.0457763671875
2.3112499,3.93367338180542,-8.015787124633789,4.299986362457275,-0.54931640625,-0.0457763671875,0.0457763671875
2.3137499,3.9408559799194336,-8.030152320861816,4.2975921630859375,-0.396728515625,-0.0762939453125,0.0762939453125
2.3162499,3.9480385780334473,-8.039729118347168,4.2975921630859375,-0.335693359375,-0.1068115234375,0.091552734375
2.3187499,3.9624037742614746,-8.04691219329834,4.2951979637146,-0.274658203125,-0.0762939453125,0.0762939453125
2.3212498999999998,3.9695863723754883,-8.04930591583252,4.290409564971924,-0.30517578125,-0.1220703125,0.4425048828125
2.3237499,3.97916316986084,-8.051700592041016,4.290409564971924,-0.3204345703125,-0.030517578125,0.335693359375
2.3262499,3.97916316986084,-8.042123794555664,4.288015365600586,-0.3509521484375,0.030517578125,0.152587890625
2.3287499,3.9839515686035156,-8.037335395812988,4.2951979637146,-0.3509521484375,-0.0762939453125,0.1373291015625
2.3312499,3.9815573692321777,-8.030152320861816,4.2975921630859375,-0.5035400390625,0.030517578125,0.1220703125
2.3337499,3.9815573692321777,-8.02536392211914,4.302380561828613,-0.213623046875,-0.1220703125,0.06103515625
2.3362499,3.97916316986084,-8.022970199584961,4.304774761199951,-0.1220703125,-0.06103515625,0.030517578125
2.3387499,3.9815573692321777,-8.022970199584961,4.2975921630859375,-0.0457763671875,0,-0.030517578125
2.3412498999999998,3.9863457679748535,-8.020575523376465,4.2951979637146,-0.091552734375,0.0762939453125,-0.152587890625
2.3437499,3.9911341667175293,-8.018181800842285,4.288015365600586,0,0.030517578125,-0.06103515625
2.3462499,3.993528366088867,-8.018181800842285,4.285621166229248,-0.06103515625,0.2593994140625,-0.1220703125
2.3487499,3.995922565460205,-8.018181800842285,4.285621166229248,-0.06103515625,-0.0457763671875,0.1068115234375
2.3512499,3.993528366088867,-8.018181800842285,4.280832767486572,0.030517578125,-0.0457763671875,0.18310546875
2.3537499,3.9887399673461914,-8.018181800842285,4.280832767486572,0.0152587890625,0.244140625,0
2.3562499,3.9839515686035156,-8.020575523376465,4.280832767486572,-0.030517578125,0.1678466796875,-0.091552734375
2.3587499,3.976768970489502,-8.02536392211914,4.28322696685791,0.030517578125,0.244140625,-0.0762939453125
2.3612499,3.9695863723754883,-8.032546997070312,4.285621166229248,0.18310546875,0.1220703125,0.1678466796875
2.3637499,3.9647979736328125,-8.039729118347168,4.292803764343262,0.2288818359375,0.3204345703125,-0.1983642578125
2.3662499,3.952826976776123,-8.04930591583252,4.292803764343262,0.1068115234375,0.1220703125,0.0457763671875
2.3687499,3.9456443786621094,-8.051700592041016,4.2951979637146,-0.0152587890625,0.030517578125,0.274658203125
2.3712499,3.9480385780334473,-8.056488990783691,4.292803764343262,0.274658203125,-0.091552734375,0.1983642578125
2.3737499,3.9456443786621094,-8.04930591583252,4.292803764343262,0.396728515625,-0.091552734375,-0.1220703125
2.3762499,3.952826976776123,-8.042123794555664,4.290409564971924,0.3509521484375,-0.030517578125,0.0762939453125
2.3787499,3.9647979736328125,-8.032546997070312,4.28322696685791,0.0152587890625,-0.1373291015625,0
2.3812499,3.9624037742614746,-8.022970199584961,4.28322696685791,0.1068115234375,-0.1373291015625,0.274658203125
2.3837498999999998,3.9671921730041504,-8.010998725891113,4.278438568115234,0.335693359375,-0.06103515625,0.2593994140625
2.3862499,3.9600095748901367,-8.003816604614258,4.278438568115234,0.091552734375,-0.091552734375,0.0457763671875
2.3887499,3.952826976776123,-7.996633529663086,4.2760443687438965,0.0457763671875,-0.1373291015625,0.244140625
2.3912499,3.950432777404785,-7.994239330291748,4.268861770629883,0,-0.091552734375,0.213623046875
2.3937499,3.9456443786621094,-7.99184513092041,4.264073371887207,-0.0762939453125,0.06103515625,0.030517578125
2.3962499,3.9480385780334473,-7.994239330291748,4.256890773773193,-0.030517578125,0.06103515625,-0.06103515625
2.3987499,3.952826976776123,-7.994239330291748,4.2544965744018555,-0.152587890625,0.06103515625,0.0762939453125
2.4012499,3.952826976776123,-7.996633529663086,4.259284973144531,-0.1983642578125,0.1983642578125,0.274658203125
2.4037498999999998,3.957615375518799,-7.996633529663086,4.273650169372559,-0.18310546875,-0.1373291015625,-0.030517578125
2.4062499,3.9624037742614746,-7.99184513092041,4.28322696685791,-0.1678466796875,-0.335693359375,-0.06103515625
2.4087499,3.9671921730041504,-7.99184513092041,4.2951979637146,-0.06103515625,-0.1373291015625,-0.091552734375
2.4112499,3.974374771118164,-7.989450931549072,4.2951979637146,0,0.1983642578125,0
2.4137499,3.9695863723754883,-7.994239330291748,4.2951979637146,-0.06103515625,0.1983642578125,0.1678466796875
2.4162499,3.9624037742614746,-8.001421928405762,4.2951979637146,-0.1373291015625,-0.1373291015625,-0.0762939453125
2.4187499,3.955221176147461,-8.008605003356934,4.299986362457275,-0.213623046875,0.1068115234375,-0.0457763671875
2.4212499,3.9480385780334473,-8.015787124633789,4.2975921630859375,-0.18310546875,0.1373291015625,-0.0762939453125
2.4237499,3.9456443786621094,-8.020575523376465,4.2951979637146,-0.091552734375,0.1678466796875,0
2.4262499,3.9456443786621094,-8.030152320861816,4.290409564971924,-0.0762939453125,0.152587890625,0.0457763671875
2.4287499,3.950432777404785,-8.032546997070312,4.290409564971924,-0.030517578125,0.0152587890625,-0.1068115234375
2.4312499,3.9600095748901367,-8.037335395812988,4.2975921630859375,-0.1678466796875,-0.0457763671875,-0.2288818359375
2.4337499,3.9671921730041504,-8.037335395812988,4.307168960571289,-0.0457763671875,-0.091552734375,-0.518798828125
2.4362499,3.976768970489502,-8.034940719604492,4.311957359313965,0.0762939453125,-0.1373291015625,-0.2288818359375
2.4387499,3.9863457679748535,-8.030152320861816,4.304774761199951,-0.030517578125,0.091552734375,-0.0152587890625
2.4412499,3.9911341667175293,-8.020575523376465,4.2951979637146,-0.0457763671875,-0.0152587890625,-0.244140625
2.4437499,4.005499362945557,-8.01339340209961,4.28322696685791,0.0762939453125,-0.030517578125,-0.244140625
2.4462498999999998,4.01268196105957,-8.008605003356934,4.2760443687438965,-0.1220703125,0.091552734375,-0.0457763671875
2.4487499,4.017470359802246,-8.001421928405762,4.278438568115234,-0.152587890625,0.1983642578125,-0.091552734375
2.4512499,4.017470359802246,-8.001421928405762,4.2760443687438965,-0.0457763671875,0.1220703125,-0.030517578125
2.4537499,4.0078935623168945,-8.006210327148438,4.290409564971924,0.091552734375,0.0457763671875,0.152587890625
2.4562499,3.993528366088867,-8.01339340209961,4.299986362457275,0.091552734375,0.06103515625,0.030517578125
2.4587499,3.976768970489502,-8.022970199584961,4.314351558685303,0.06103515625,-0.091552734375,0.1068115234375
2.4612499,3.9671921730041504,-8.034940719604492,4.326322555541992,0.1068115234375,-0.091552734375,0.091552734375
2.4637499,3.957615375518799,-8.039729118347168,4.32871675491333,0.0457763671875,-0.0762939453125,-0.1373291015625
2.4662498999999998,3.952826976776123,-8.039729118347168,4.326322555541992,0.152587890625,-0.18310546875,-0.152587890625
2.4687499,3.952826976776123,-8.039729118347168,4.321534156799316,0.274658203125,-0.1220703125,-0.0457763671875
2.4712499,3.952826976776123,-8.034940719604492,4.311957359313965,0.335693359375,-0.0762939453125,-0.030517578125
2.4737499,3.9600095748901367,-8.030152320861816,4.302380561828613,0.335693359375,-0.091552734375,-0.091552734375
2.4762499,3.9695863723754883,-8.022970199584961,4.2975921630859375,0.06103515625,-0.0762939453125,-0.06103515625
2.4787499,3.976768970489502,-8.01339340209961,4.292803764343262,0.1373291015625,0.091552734375,0.1068115234375
2.4812499,3.9815573692321777,-7.999027729034424,4.285621166229248,0.213623046875,0.1373291015625,0.0762939453125
2.4837499,3.97916316986084,-7.987056732177734,4.28322696685791,0.1068115234375,0.18310546875,0.152587890625
2.4862499,3.9671921730041504,-7.979874134063721,4.2760443687438965,0.091552734375,0.091552734375,0.2899169921875
2.4887499,3.955221176147461,-7.972691535949707,4.2760443687438965,0.1678466796875,0.030517578125,0.2593994140625
2.4912499,3.9408559799194336,-7.972691535949707,4.278438568115234,-0.030517578125,-0.1678466796875,0.1068115234375
2.4937499,3.928884983062744,-7.972691535949707,4.28322696685791,-0.1373291015625,-0.1220703125,0.244140625
2.4962499,3.9240965843200684,-7.972691535949707,4.288015365600586,-0.091552734375,-0.1678466796875,0.18310546875
2.4987499,3.9264907836914062,-7.979874134063721,4.288015365600586,-0.091552734375,-0.1068115234375,0.0152587890625
2.5012499,3.93367338180542,-7.979874134063721,4.285621166229248,-0.2593994140625,-0.0457763671875,0.06103515625
2.5037499,3.9432501792907715,-7.982268333435059,4.28322696685791,-0.5645751953125,-0.1220703125,0.1220703125
2.5062499,3.9480385780334473,-7.982268333435059,4.2760443687438965,-0.396728515625,0.030517578125,0.1220703125
2.5087498999999998,3.955221176147461,-7.977479934692383,4.271255970001221,-0.4730224609375,0.2593994140625,0.1373291015625
2.5112499,3.955221176147461,-7.9846625328063965,4.271255970001221,-0.457763671875,0.06103515625,0.18310546875
2.5137499,3.9624037742614746,-7.987056732177734,4.273650169372559,-0.6103515625,0.1220703125,0.2288818359375
2.5162499,3.9647979736328125,-7.994239330291748,4.278438568115234,-0.54931640625,0.152587890625,0.2593994140625
2.5187499,3.9695863723754883,-8.003816604614258,4.292803764343262,-0.4119873046875,-0.0152587890625,0.30517578125
2.5212499,3.9695863723754883,-8.010998725891113,4.299986362457275,-0.42724609375,-0.030517578125,0.2899169921875
2.5237499,3.9647979736328125,-8.02536392211914,4.314351558685303,-0.5950927734375,0.152587890625,0.30517578125
2.5262499,3.9600095748901367,-8.042123794555664,4.323928356170654,-0.4730224609375,-0.1373291015625,0.335693359375
2.5287498999999998,3.955221176147461,-8.056488990783691,4.331110954284668,-0.48828125,-0.1678466796875,0.1678466796875
2.5312499,3.957615375518799,-8.070854187011719,4.333505153656006,-0.4119873046875,-0.335693359375,0.1220703125
2.5337499,3.9624037742614746,-8.078036308288574,4.331110954284668,-0.1983642578125,-0.1983642578125,0.0152587890625
2.5362499,3.9695863723754883,-8.075642585754395,4.323928356170654,-0.091552734375,-0.3662109375,0
2.5387499,3.9839515686035156,-8.068459510803223,4.311957359313965,-0.030517578125,-0.244140625,0.1983642578125
2.5412499,3.9911341667175293,-8.056488990783691,4.299986362457275,-0.1220703125,-0.0762939453125,0.0457763671875
2.5437499,3.995922565460205,-8.044517517089844,4.285621166229248,0.030517578125,-0.091552734375,0.0457763671875
2.5462499,3.995922565460205,-8.030152320861816,4.280832767486572,-0.1373291015625,0.091552734375,0.0762939453125
2.5487499,3.993528366088867,-8.020575523376465,4.280832767486572,-0.1373291015625,0.2288818359375,0.0457763671875
2.5512499,3.9887399673461914,-8.015787124633789,4.280832767486572,0,0.0762939453125,0.030517578125
2.5537499,3.9839515686035156,-8.015787124633789,4.280832767486572,0.0457763671875,0,0.06103515625
2.5562499,3.97916316986084,-8.015787124633789,4.28322696685791,-0.091552734375,0.1068115234375,-0.0152587890625
2.5587499,3.971980571746826,-8.015787124633789,4.28322696685791,-0.06103515625,0.1373291015625,-0.030517578125
2.5612499,3.9671921730041504,-8.018181800842285,4.288015365600586,-0.0457763671875,0.1068115234375,0.0762939453125
2.5637499,3.9600095748901367,-8.022970199584961,4.292803764343262,-0.0457763671875,-0.0762939453125,-0.1373291015625
2.5662499,3.952826976776123,-8.032546997070312,4.2951979637146,-0.0762939453125,-0.1373291015625,-0.0762939453125
2.5687499,3.950432777404785,-8.039729118347168,4.292803764343262,-0.030517578125,-0.030517578125,0.0762939453125
2.5712498999999998,3.952826976776123,-8.039729118347168,4.2951979637146,0.091552734375,0.1678466796875,-0.06103515625
2.5737499,3.957615375518799,-8.042123794555664,4.288015365600586,0.1068115234375,-0.091552734375,0.06103515625
2.5762499,3.9671921730041504,-8.042123794555664,4.28322696685791,-0.1068115234375,0.1678466796875,-0.2288818359375
2.5787499,3.9671921730041504,-8.042123794555664,4.28322696685791,0.0762939453125,0.1678466796875,-0.0152587890625
2.5812499,3.9671921730041504,-8.042123794555664,4.278438568115234,0.3204345703125,-0.091552734375,0
2.5837499,3.9647979736328125,-8.042123794555664,4.280832767486572,0.1068115234375,-0.0762939453125,0.152587890625
2.5862499,3.9647979736328125,-8.042123794555664,4.28322696685791,0.1678466796875,0.0152587890625,0.1983642578125
2.5887499,3.9671921730041504,-8.039729118347168,4.288015365600586,0.1220703125,0.2288818359375,0.0457763671875
2.5912498999999998,3.9647979736328125,-8.032546997070312,4.290409564971924,0.1983642578125,-0.18310546875,-0.0457763671875
2.5937499,3.9600095748901367,-8.030152320861816,4.299986362457275,0.1678466796875,-0.1373291015625,-0.152587890625
2.5962499,3.952826976776123,-8.022970199584961,4.2975921630859375,0.244140625,-0.030517578125,0
2.5987499,3.9480385780334473,-8.020575523376465,4.2951979637146,0.152587890625,-0.1373291015625,0
2.6012499,3.9384617805480957,-8.020575523376465,4.288015365600586,0.1220703125,-0.1373291015625,-0.1220703125
2.6037499,3.9384617805480957,-8.015787124633789,4.28322696685791,0.1983642578125,-0.1068115234375,-0.152587890625
2.6062499,3.9432501792907715,-8.010998725891113,4.28322696685791,0.1220703125,-0.0762939453125,-0.213623046875
2.6087499,3.950432777404785,-7.999027729034424,4.285621166229248,0.244140625,-0.0762939453125,-0.0457763671875
2.6112499,3.9671921730041504,-7.99184513092041,4.28322696685791,0.18310546875,-0.06103515625,-0.1983642578125
2.6137499,3.97916316986084,-7.982268333435059,4.280832767486572,-0.06103515625,0.091552734375,-0.1220703125
2.6162499,3.9887399673461914,-7.977479934692383,4.271255970001221,-0.0762939453125,0.18310546875,-0.3204345703125
2.6187499,3.993528366088867,-7.975085735321045,4.271255970001221,0.18310546875,-0.0152587890625,-0.1678466796875
2.6212499,3.971980571746826,-7.982268333435059,4.285621166229248,0.0152587890625,0.3204345703125,0.0762939453125
2.6237499,3.955221176147461,-7.989450931549072,4.2975921630859375,0.152587890625,0.274658203125,0.091552734375
2.6262499,3.9432501792907715,-8.006210327148438,4.307168960571289,0.152587890625,0.1373291015625,-0.213623046875
2.6287499,3.93367338180542,-8.018181800842285,4.307168960571289,-0.0457763671875,0.030517578125,0.18310546875
2.6312499,3.936067581176758,-8.030152320861816,4.309563159942627,0.0152587890625,-0.0457763671875,0.091552734375
2.6337498999999998,3.936067581176758,-8.037335395812988,4.307168960571289,0.1678466796875,-0.1068115234375,-0.3662109375
2.6362499,3.9456443786621094,-8.034940719604492,4.307168960571289,0.1373291015625,-0.1068115234375,-0.1373291015625
2.6387499,3.955221176147461,-8.032546997070312,4.307168960571289,0.18310546875,-0.18310546875,-0.213623046875
2.6412499,3.9671921730041504,-8.02536392211914,4.304774761199951,0.2288818359375,-0.1983642578125,-0.2593994140625
