# Time (seconds),Accel_X,Accel_Y,Accel_Z,Gyro_X,Gyro_Y,Gyro_Z
0.0012499,9.095468606857123,-3.58380772000773,1.558097112190692,32.71984189492901,18.81404783818106,24.292805313223884
0.0112499,9.324686480544093,-3.6939083036731244,1.5227474292320735,34.40847735110042,18.80615099803059,24.72983188661374
0.0212499,9.424818421618154,-3.8212473095101394,1.609012148452695,34.11157293944807,18.120605958477036,25.279359110070423
0.0312498999999999,9.597289560859705,-3.9232779232710704,1.8018241762010787,32.742033181627264,17.4277552050782,25.683031135085304
0.0412499,9.70889094181456,-4.060423091629011,2.0013587004336486,30.84885360283885,16.816139843419958,25.172684296496698
0.0512499,9.652742176200963,-4.364198579690296,2.151758342535946,28.934346462466728,15.761114291491852,24.16636200212573
0.0612498999999999,9.544838599436082,-4.76245063999811,2.3199389021612316,27.060790312530965,14.113612832747984,22.855761304195354
0.0712499,9.428738766051758,-5.136597525459865,2.519570302602383,25.397830872689905,12.382933071201501,21.086721461315367
0.0812499,9.3422701490217,-5.434466002981883,2.630347033819739,23.945284741776316,10.279197818143006,18.747209802271765
0.0912499,9.344952688754962,-5.692227091753751,2.708423048207751,22.658427712635707,7.73422614682949,15.557036797895003
0.1012499,9.388971589738532,-5.930011112189022,2.873594391683768,21.806055768923546,5.409865201591676,11.943083531106456
0.1112499,9.430182051745295,-6.0408232273991755,3.0179958855867453,21.5238754291248,3.2344530749091254,8.253688819762226
0.1212499,9.50674122496304,-6.015111565693067,3.0550532386288314,21.023098635244086,1.3252583224887067,4.634699738915004
0.1312499,9.576383431344022,-5.9576972749258434,3.049016612883741,20.288554618396272,-0.5053782171225732,1.0954261020968468
0.1412499,9.605682156380999,-5.900277540933185,3.022975141765459,19.524768189457493,-2.2258026897285617,-1.9467364871845303
0.1512499,9.69006389467718,-5.769082296386873,2.9799602819962874,18.506812405194193,-3.4864237378171086,-4.421044778170906
0.1612499,9.79053918899264,-5.556552432201596,2.93042561192833,17.62507279441204,-4.334417636249969,-6.739995140630664
0.1712499,9.77907473992657,-5.329193385074262,2.841741913817613,16.244244232862123,-5.058271831121788,-8.965665351454776
0.1812499,9.689240078485811,-5.160146126820217,2.7069429965214624,14.229565244559431,-5.724008843628619,-10.635485308752129
0.1912499,9.600203288552795,-5.089289885352048,2.5941753327654546,12.101434000273102,-6.451636683280314,-11.745443554805119
0.2012499,9.494256281439649,-5.001996748322997,2.5105547251450004,9.579485084137653,-7.445766744321601,-12.624400313077214
0.2112499,9.405154100744358,-4.866201727375384,2.4198237986073017,6.678018278465613,-8.25023467350786,-13.380428923203521
0.2212499,9.276952725867536,-4.797107971203811,2.3111951617506907,2.824181525054802,-8.970782185022713,-13.932520547551002
0.2312499,9.1004093643632,-4.758600118825995,2.1871661472860926,-1.9940483548898764,-9.673679663092926,-14.198792531817192
0.2412499,8.999164028121381,-4.761143101357053,2.0693178913212313,-5.856091870340248,-10.353918613584012,-14.07697089853359
0.2512499,8.88922169418805,-4.749047750613231,1.9716917771850444,-9.208110260033093,-11.631527308491096,-13.639371311589263
0.2612499,8.797685649419266,-4.708388579882834,1.8668611395155086,-11.829985804970587,-12.775491018820796,-13.351367634405179
0.2712499,8.706600481426321,-4.686122963208672,1.6925485567570366,-14.189784185796206,-14.113573277058565,-13.334832454744443
0.2812499,8.67863368108958,-4.71431852335359,1.6278852318639894,-16.609461030367854,-15.323694488565758,-13.410848189279097
0.2912499,8.704910410364635,-4.715572439287535,1.7098369455287097,-18.77064143367798,-15.916841022166473,-13.278079978560676
0.3012499,8.62948398718088,-4.623255592706987,1.6679405140023749,-21.007265522567835,-16.264946281567283,-13.653229776509551
0.3112499,8.559195735592539,-4.47615907068989,1.5522540076624138,-23.49729749493263,-16.80236829142796,-14.758061116842091
0.3212499,8.55644192513303,-4.3995045250686005,1.561338892712986,-25.915041453065378,-16.865463642039046,-15.877727857546642
0.3312499,8.425907759699609,-4.342006358495345,1.6449210915594554,-28.693815388715457,-16.52900414062363,-17.017103601051975
0.3412499,8.361904965831869,-4.270770119889099,1.6768992766463877,-30.527253026377664,-15.726175771367812,-18.38523713905523
0.3512499,8.3356667509821,-4.235013183397477,1.6798531396675054,-31.116163194180604,-14.809063824588037,-19.85188941263699
0.3612499,8.238924726682484,-4.302694262481183,1.7794956913588293,-30.383898798709655,-14.0162944390775,-20.932808204316245
0.3712499,8.258418949375022,-4.408569109667975,1.9653802137767826,-28.039022754982916,-12.693401255184758,-21.45916609025258
0.3812499,8.300709305341327,-4.370253960580543,2.091623048233045,-24.80494720589799,-10.822911725415002,-21.69090546124615
0.3912499,8.303109586980506,-4.291691693101457,2.1710280285866457,-20.982210273297994,-9.346014499640319,-21.88559563365893
0.4012499,8.384475930664241,-4.235105914415172,2.231105916427496,-17.172715562515986,-7.844220433120432,-21.828321465646482
0.4112499,8.495276637582108,-4.051837677082441,2.2216346867019756,-14.434389409279278,-5.8203754273231985,-21.556805805417863
0.4212499,8.66712762079595,-3.7913233219925018,2.1904263076310575,-13.144699769863653,-3.630096563693951,-21.521943900635485
0.4312499,8.976522361240942,-3.673918591519172,2.263947976834868,-12.495123703957631,-0.457500081780936,-21.07624416777335
0.4412499,9.12705858015163,-3.7632009112029583,2.4388257436725977,-11.595673225019787,3.3502670224955993,-18.746240528027393
0.4512499,8.96322460101072,-3.8601571139546462,2.4530222106915187,-10.282132846086782,6.040478941064938,-14.781805414023705
0.4612499,8.755880039673553,-3.7706734322600037,2.174148586418715,-8.469955014117799,7.422128181494368,-10.571104355048217
0.4712499,8.635016479457942,-3.4459096371400992,1.7098505070183825,-6.223629983893596,6.620286693847921,-7.5022768354143174
0.4812499,8.66119264525683,-3.0897806757172437,1.2990271904297486,-3.8334297649487965,3.626009719811204,-6.415697952578335
0.4912499,8.9206611304517,-2.8897675303611496,1.0409294551515802,-1.7406567829514965,-0.07364702780629541,-6.187986848905674
0.5012499,9.20130155642814,-2.797580155616945,0.8623262906875946,-0.6916927434443719,-3.6979115482966383,-5.515631711280625
0.5112499,9.381213369845549,-2.740354640961348,0.6965315587553196,-0.9459550932530623,-7.126134346419375,-3.9608440485091263
0.5212499,9.538181422558116,-2.7652923197542107,0.5257991619769221,-2.108299402807468,-10.50349035375881,-1.7943008557722773
0.5312499,9.60622376256867,-2.8757541357761673,0.3671503794806575,-3.4885579057160343,-13.852057985520874,0.46637000239691745
0.5412499000000001,9.553998692205118,-2.907832705588164,0.19387325642198497,-5.4144167751882275,-17.157220242697957,2.0547842871270405
0.5512499000000001,9.496671949075614,-2.970294997473663,0.016283041917733727,-7.34507092809481,-20.20407860091644,2.536504325275639
0.5612499000000001,9.488565178700524,-3.162715816724365,-0.05324691004749199,-8.693366163769555,-22.73951522354254,2.2497766085906648
0.5712499000000001,9.437787004867838,-3.3938213011395835,-0.053148126149363956,-9.93438042561126,-24.252893515958746,1.8582433461412755
0.5812499,9.314139611424492,-3.6006106251922003,-0.03593272266649362,-11.30631244630962,-24.92910412240342,1.5827596199628877
0.5912499,9.18392528567448,-3.783000237369976,0.08644080587754889,-12.878010786972517,-24.85910354207826,1.0300626078347153
0.6012499,9.10210051626717,-4.001548583382205,0.26378398654852925,-14.013429641543018,-23.598200406291994,-0.2503374075860264
0.6112499,9.00089113160678,-4.233274064724624,0.3466569826840629,-14.203549730278212,-21.869057239349267,-2.09267208739933
0.6212499,8.88508883645293,-4.491361091778455,0.32363555824841117,-13.10434561610101,-19.74795472238998,-4.094727015851878
0.6312499,8.830277091248412,-4.7280490030190645,0.33168640684243167,-10.35613024933207,-17.561065311745157,-5.741437599580824
0.6412499,8.774320468308307,-4.806343904197404,0.4579777269238158,-6.01468251455428,-15.17864503631575,-7.536557749278006
0.6512499,8.772949402176968,-4.7987473420073465,0.5362757233852103,-0.4954610830577549,-12.239461784691306,-8.92986206302377
0.6612499000000001,8.734684635854123,-4.792108237846431,0.45516287474779765,5.055958862557079,-10.052411144377519,-9.496858089322298
0.6712499000000001,8.582376236495397,-4.687134250150458,0.35959777220986927,10.098417840517898,-8.735550791078436,-9.968615853743255
0.6812499000000001,8.53038658330625,-4.446998527416266,0.28103143278271864,13.921990127731714,-7.607475089688395,-10.26440031537485
0.6912499000000001,8.570669443740615,-4.206120544993562,0.1686326445562071,16.199447021808922,-6.506557153608868,-10.46026303802034
0.7012499000000001,8.5381002229783,-3.944224722611236,0.004749228350880305,16.291620195563656,-5.821029293434877,-10.611390994399713
0.7112499,8.568754765947943,-3.732833244693527,-0.16680749285254423,15.166701907158052,-5.252109314765475,-10.659046518217334
0.7212499,8.618425156525046,-3.600276281740183,-0.24773448332135303,13.180224280454809,-4.948202398876133,-10.187806203570798
0.7312499,8.629310261157237,-3.4936977188585754,-0.25639527583181554,10.400304192474781,-4.7286629543508285,-9.219964838743053
0.7412499,8.661069378087307,-3.4438887576024846,-0.25839067319598286,7.4564242094539,-4.3703077991188115,-8.006327140275145
0.7512499,8.69976915608457,-3.5077342112977115,-0.2584796018279937,5.378281870235168,-4.010132338371775,-6.257968867538974
0.7612499,8.673319069691907,-3.5971089280731423,-0.27637717040600784,3.980693975106021,-3.874080409380885,-4.18607158894148
0.7712499,8.553049707513377,-3.637967716691902,-0.31956012089741076,2.759109286567611,-3.859153489524002,-2.124782182687942
0.7812499,8.457843122131486,-3.6609562132373252,-0.3767574221402207,1.781966746594233,-3.849627689963364,0.0025080613729426115
0.7912499000000001,8.343295515059397,-3.64662589030667,-0.4125694075304255,0.6089408494841314,-4.136595468931612,2.0046280929658815
0.8012499000000001,8.320423051162466,-3.6437731030213527,-0.32600592178950427,-0.5937596368391412,-4.108153223101121,3.7647780506972497
0.8112499000000001,8.292780419042487,-3.6604272086642298,-0.19155492296423499,-1.6029079824939039,-3.6962409218632235,5.437643695522057
0.8212499000000001,8.139739083141365,-3.7188996909392134,-0.14524801455765354,-2.187414575072286,-3.3736165033876793,7.2697015183851175
0.8312499000000001,7.9997547180766295,-3.815049721204151,-0.18101017811096323,-1.7199661163235478,-3.3169440038723232,9.356894551197092
0.8412499,7.87603701158659,-3.8566305181991125,-0.16936626890906403,-0.5712055558655631,-3.336749813316879,11.71150287403176
0.8512499,7.764076995817991,-3.898796901455788,-0.10566005624378341,0.9801260610447451,-2.955015854538105,14.747516134497
0.8612499,7.760539289177084,-3.8770156214042224,-0.14987641600466736,2.0319564603435376,-2.0560380663317397,17.7738260886335
0.8712499,7.814502687672717,-3.7702751031014228,-0.22878948642653,2.1649650577874944,-0.9464677634978302,20.414740657384783
0.8812499,7.7707922672351994,-3.6978809782928836,-0.2521630494274436,1.837397901990999,0.1891456597387822,23.208056143632017
0.8912499,7.643971495197085,-3.6361761964254504,-0.2756832625219442,1.4166051384989091,1.4101996487357777,26.498361779150734
0.9012499,7.5111066324946005,-3.5747264585189757,-0.26890040544201754,1.3902098332047101,2.579361031017246,30.493575520608623
0.9112499,7.3338273857257095,-3.5167642660617546,-0.22327992067455216,2.0231027066981446,3.1996971695537972,35.11058879816245
0.9212499,7.117524181357871,-3.4596682249991053,-0.16041993528077148,3.79936925454303,3.664742573760541,40.06799297056882
0.9312499,6.865737020202723,-3.390470176159443,-0.17118769317755508,6.349630660997887,3.4455406642813533,45.7676347693322
0.9412499,6.555013900680757,-3.199304856170995,-0.46012747747521554,8.05351857910627,2.2312287370010258,52.068099287091485
0.9512499,6.341846530111158,-2.8205493283509666,-0.8043402022384254,7.235261930128138,1.2139794197746026,58.2226250788369
0.9612499,6.077397709554039,-2.424385033289709,-0.9677648973261075,3.609035766554066,0.43945808530514135,63.95078486023185
0.9712499,5.643624193037466,-2.191071038908801,-1.175426381790516,-2.106329901662147,-0.4110173106565414,69.8924733321524
0.9812499,5.13696190332202,-2.09500093004319,-1.453209966179595,-8.941971894567613,-1.4333655181582639,76.87727398912597
0.9912499,4.434038278393808,-2.125805556120827,-1.6170424664910332,-15.591283153670053,-3.3381379237765585,85.11780472658909
1.0012499,3.60556180330087,-2.3094766174252968,-1.7813326771212739,-21.140550861879248,-6.439606691010251,95.55563596207641
1.0112499,3.0852188609516435,-2.5069594747234762,-2.040381191523101,-25.631784090622755,-9.815057390416358,108.33665921368495
1.0212499,2.741894674556742,-2.567868208098994,-2.208877561379253,-29.506260003344273,-13.53273504161596,122.04232982551598
1.0312499,2.3225066669866354,-2.58744922175944,-2.4161318829075094,-34.4333475526071,-17.487412847271337,136.691177764719
1.0412499,1.851944458743944,-2.7004670676618674,-2.816826967664618,-41.34181157200006,-20.963726975674508,152.15328700241963
1.0512499,1.2672077520942422,-2.9108413543328613,-3.310639066765146,-49.88244796331886,-24.993347995657626,168.55050955970083
1.0612499,0.8374594598729195,-3.1749540433257946,-3.9651389293238584,-62.02176555596822,-29.238308389128896,188.06098399869623
1.0712499,0.6277046446001764,-3.5587656225340334,-4.647651268472365,-75.20087933038376,-31.339425092358617,206.62675613126956
1.0812499,0.2834327998184692,-4.2812124181376765,-5.249863757568154,-86.63310781276427,-32.11634260368216,223.5599738419773
1.0912499,0.07035775069063009,-5.297062677200263,-5.975315729089284,-98.18598923808037,-31.237189836995835,242.52855820936284
1.1012499,-0.02752450129921321,-6.419921735835575,-6.684504034385464,-111.16990398445394,-27.73654875569475,263.60756565731384
1.1112499,-0.20710711310511992,-7.685892183220638,-7.0972771344167835,-125.78439412243814,-23.054945372384978,285.45205842356023
1.1212499,-0.23087016634000046,-9.246550685803427,-7.358587688503157,-140.75429931224588,-17.87523156472347,306.9151998496699
1.1312499,-0.26645878725566546,-11.210235415374756,-7.700742733888443,-155.30795377278574,-12.023346397933308,327.13732358971276
1.1412499,-0.6274530173150096,-13.48984232434232,-8.12514639335648,-169.11492294551235,-5.698367299782815,344.98526769894875
1.1512499,-0.8184545761267223,-15.911506065502786,-8.361015132090406,-180.0947282695012,1.3415714485234025,357.44160749943893
1.1612498999999998,-0.5751559907584107,-18.263922488368628,-8.228478354267981,-187.86792606148794,9.046616844828714,362.0097119656539
1.1712498999999998,-0.03924719509945836,-20.4710924357521,-8.10378280115,-193.12351645109237,17.748980761550456,359.3163447443303
1.1812499,1.2965521174072112,-22.543207131626307,-8.147341085752645,-195.1481500969537,27.065797197877696,350.50804379301314
1.1912499,3.716708682173203,-24.852008411165233,-8.322874190363477,-193.57138944658288,35.202037883743486,337.8982927610998
1.2012499,6.74707506983871,-27.26939455365739,-8.846640795123113,-190.04398343287977,41.403523621731516,322.97247274529184
1.2112499,10.300196820736709,-29.13424344397087,-9.501227723050926,-189.26493003591426,45.290692168040955,304.23154160847383
1.2212499,14.486036093130798,-30.776509984527923,-9.826190418269608,-193.4252082140582,45.539304312527655,278.9100025090173
1.2312499,18.96764916797642,-32.14192727905068,-9.94402585741181,-202.65789703736525,43.85070042758365,243.81445616352556
1.2412499,23.76517922511889,-33.19865536772037,-9.653549410953755,-218.43761989929573,41.322462837170754,193.56639310583856
1.2512499,29.67289289142671,-34.131607612897014,-8.334610304031056,-233.41458430898672,36.03768138634872,127.42209595771342
1.2612499,36.581453854281015,-34.10339158009533,-4.6228924545330194,-246.1150477150189,23.649328798048835,37.33776397369918
1.2712499,42.89741779023667,-33.746030775555425,3.046057341302991,-256.88550148099654,0.6069436183725192,-88.57504038409326
1.2812499,45.802048471237825,-33.577484186891084,10.331016770134335,-263.5183905410911,-24.045041773542305,-213.4624649604405
1.2912499,44.42713321064092,-34.039622899907165,15.394243216485538,-284.7640450927265,-49.59289514290164,-330.7855432696054
1.3012499,38.82361483053212,-36.544780560915115,19.113341596165526,-319.2984999888887,-73.51855868833128,-443.5070282660637
1.3112499,30.59528232215285,-40.71957447250724,21.464400359134626,-345.4267047041041,-91.2593309220127,-500.43166026568724
1.3212499,22.320298777295683,-45.767443558979146,23.389248467391162,-342.5248720400788,-108.30597024555917,-500.6449485957562
1.3312499,13.694278695552766,-50.28104644267616,24.504383321166173,-301.87303218515365,-130.8887449324237,-499.20554090759794
1.3412499,3.9508891913115494,-52.13311219242805,23.4244043190308,-235.8406027206977,-161.0411591752758,-500.3073025851618
1.3512499,-5.609722306997551,-49.457706689728575,19.76069655530086,-172.49162651018298,-198.6451907160581,-500.28287144734713
1.3612499,-16.249932331227505,-42.954167941190505,15.377936391050094,-131.3718455623612,-246.86811299164302,-499.1400945541704
1.3712499,-31.479252162731257,-34.82859425391387,11.685060182250485,-109.38741270270339,-300.24241643796756,-500.9206104677581
1.3812499,-47.02308833370295,-25.22598478824388,5.364926829375715,-105.58466130227175,-333.18091458438073,-500.0949401881633
1.3912499,-50.8235694671199,-12.952371519369844,-2.385952601345295,-117.79043118142101,-322.90833123491547,-449.8388401450918
1.4012499,-45.80678595881869,0.27174940304355905,-3.8733834365372757,-150.8797066074542,-271.9357648000619,-372.81955523581854
1.4112498999999998,-44.081421255529605,8.58739244353835,-2.707783937031722,-192.24359691093488,-185.3795375944063,-312.4684396270348
1.4212498999999998,-41.57019143597574,11.290216865648569,-3.896605281404326,-205.8557956541124,-83.4544781636091,-254.31500929528966
1.4312499,-36.83314812223204,11.853966581556692,-4.041951323679064,-182.90139185045172,6.435869525013986,-190.12577438761812
1.4412499,-34.7731174640295,9.162406006477008,-3.769354665714842,-124.42564237254675,69.59896740407311,-115.99016274258854
1.4512499,-31.559786756389382,5.577173228250688,-5.366277021082125,-41.72756856333199,103.62248600053313,-36.9106766174816
1.4612499,-27.29357492265943,5.34725262425779,-6.942128271044391,32.02772819036242,115.38976351927019,28.49615528751062
1.4712499,-23.915718756043688,5.3308391625703475,-7.130192211814246,79.06452954861086,115.22790524137541,76.81048421697857
1.4812499,-19.84981263063657,3.284189180570859,-7.2788514438776,102.66590991274096,109.63357865293975,107.8615298090512
1.4912499,-15.328751668933247,0.5792769853710854,-8.231180669295934,117.74498232998774,97.79124759217606,115.80640380488494
1.5012499,-10.218350273519839,-2.4584564286163726,-9.185870409141264,139.81177186577483,79.08661993775223,114.11064697074613
1.5112499,-4.4633616088898895,-5.397154966428059,-9.823852906524184,166.72434681844587,60.37712192407266,114.5181694980797
1.5212499,1.2221087835057656,-7.2252755316397685,-10.073169870334942,188.55887389298894,48.06537877344804,117.36922973162162
1.5312499,5.740190601719349,-7.634185816751688,-9.966852666078067,198.81309571403548,42.6589850350837,117.4704743454801
1.5412499,8.419660271201078,-7.148290133628627,-9.956552545360358,194.4397148699762,42.961574533617764,111.26292178419725
1.5512499,9.402684346411979,-6.770505753258276,-10.36391949984355,177.76758150257123,48.28305692069201,99.96189676768395
1.5612499,9.222964839073096,-6.367532533900346,-10.83045849022814,151.5330353194039,55.367184224889506,85.83620392812084
1.5712499,8.999083053500964,-5.996604355275455,-11.075595934207636,119.08266829060607,62.70721713828679,70.36742572183358
1.5812499,9.15445883904111,-6.038177722672456,-11.079487756896253,87.92136727558643,71.24724722724622,55.15616151449271
1.5912499,9.018687817867846,-6.181701219477887,-10.685737108795314,61.68531426304342,79.87447943809387,41.0448580037667
1.6012499,8.606432844902223,-6.629808152648182,-9.96237409188851,44.891003037795684,87.48849807599804,28.74189390856791
1.6112499,8.244430586824128,-7.137219937902802,-9.3233362583218,38.4970719157261,93.42330329374795,18.97850830682315
1.6212499,8.023533806285615,-7.433800365948183,-9.005597577200655,39.922550765455355,96.93789824301176,12.124461533158984
1.6312499,7.89129210517096,-7.330513616897258,-8.556185878641568,45.666019312213976,98.72031289240756,7.246981914334989
1.6412499,7.537568301177168,-6.832698090257933,-7.8310361952909116,52.072157389428504,100.21293189774646,2.9346209342577145
1.6512499,6.9558282307511465,-6.3002495518200154,-7.380030905386945,57.88601581764599,102.21737373994878,-1.5836790060840984
1.6612499,6.427933493513627,-5.754102232797284,-7.455319364969956,61.76328842672818,105.09035542736153,-5.864457365572187
1.6712498999999998,6.151772411337917,-5.076277255066873,-7.771334449175631,60.190274287154175,109.4986864956036,-8.748503433010356
1.6812499,5.993959832067212,-4.265598945891655,-7.860725978388308,50.71321012556438,117.98558682022005,-11.687141897934223
1.6912499,5.84881757318681,-3.5178181687969383,-7.557164995884977,36.723414421245664,127.91464677106579,-16.658085951019668
1.7012499,6.096227433834612,-3.0781958985199154,-6.960166769598982,23.466571389689065,135.7981299985633,-22.264600666465675
1.7112499,6.594847474466062,-3.227792863899959,-6.360614444039103,15.705985230058756,142.9066536910457,-26.029407517240173
1.7212499,6.54534056651051,-3.713879130991658,-5.954936449075723,13.57957077724148,147.4097824058607,-26.46610954214608
1.7312499,6.2765128301894775,-3.8455063183588956,-5.5564156664388715,13.749486875541056,150.18177039833458,-24.19805291785763
1.7412499,6.14641421392527,-4.097602007487882,-5.113275183343384,19.157890279347342,152.50172043432627,-20.709008457878216
1.7512499,6.02121542631873,-4.5352426520125935,-4.788689833131063,29.381322098304924,154.38328090910395,-16.874800677822282
1.7612499,6.092610259822234,-4.75110453333624,-4.496205307536666,41.02659222083342,157.13178742043152,-12.76294308677574
1.7712499,6.172849194538987,-4.41394606136023,-4.169970205988716,50.93062393142165,158.78994611310497,-9.088269121134106
1.7812499,6.191248828474471,-4.04805781627994,-3.931790900280479,60.53545463013067,157.2078227842245,-7.15079084360366
1.7912499,6.426828022079743,-4.049265457569363,-3.679807328300461,70.34043276993833,154.09829973858518,-6.214451027416639
1.8012499,6.6562438842195615,-4.170244549354625,-3.4573707307023196,78.37617822907747,150.10643082483284,-4.642668795213581
1.8112499,6.687127387171009,-4.213285312451093,-3.3940794065924846,83.46836462713443,145.8609006699067,-2.5234246661976374
1.8212499,6.631009254461903,-4.104623995948671,-3.4151382348867902,85.44101261001894,142.43593850673435,-0.8022649496957132
1.8312499,6.621524987358535,-3.7962302350185584,-3.4053828156635824,83.93670703738393,139.4622649255826,-0.20921933343051063
1.8412499,6.8698837815264895,-3.4465483459459496,-3.264673706245432,79.7194149337989,137.3036946168352,-1.1094307262891783
1.8512499,7.342121684026995,-3.300199210467687,-3.033887478463741,75.06631453234283,135.01066084636912,-3.542478858681633
1.8612499,7.805891150188208,-3.408057362030095,-2.905824752211359,72.15078527481612,131.45069664053457,-6.871235573992326
1.8712499,8.133055396303071,-3.7932059223164476,-2.7876635699702925,72.6096584325059,127.63208188875532,-9.490189472701074
1.8812499,8.206295321824733,-4.342796235172114,-2.6360013916703577,75.67590074358576,123.83136710037002,-10.373567297471908
1.8912499,8.158728515935639,-4.567841415511398,-2.6831352202229417,79.44651538441367,118.64583320898056,-10.178373129540708
1.9012499,8.29209763115362,-4.333183605299284,-2.873947120661398,82.78713161112731,113.48560846149137,-11.239130774629224
1.9112499,8.440948771498617,-4.083612075614658,-2.9374420588574495,84.55186534117125,109.89855015470326,-13.510631447298291
1.9212499,8.344577291781208,-3.8500790972992553,-2.96404586165656,83.60373459947982,106.73931579603446,-15.691766390428523
1.9312499,8.207332946689991,-3.5497004264213947,-3.0581689800072045,80.68949401044559,102.72550795644459,-17.91459750533002
1.9412499,8.194671376681779,-3.3220089461715223,-3.0559141265765404,77.55632807491804,97.56161325673222,-19.90535963778644
1.9512499,7.906340364227274,-3.0197918974573223,-2.9286148971872183,71.82556637801491,89.96077390360406,-20.57035448156216
1.9612499,8.06284969645798,-2.7893971998680462,-2.895203158402567,63.97440361720928,83.5839865287501,-20.89863049164335
1.9712499,9.150989640629527,-2.8164038752022607,-2.9913168013881664,57.92355388525076,81.78491626685826,-21.090227950136033
1.9812499,9.42997666158213,-2.8040880876299985,-2.977142711238216,52.774988317338334,77.46749453823234,-20.423596171964867
1.9912499,9.11065153837288,-3.2899231062264196,-2.755332155191779,51.542450292550924,71.48529600288737,-18.155831228179547
2.0012499,8.696360042018892,-4.133867598856777,-2.4119610553090784,53.46133132350023,63.95965985301855,-13.966622783178433
2.0112499,8.483554155631596,-4.69490771300313,-2.2850984452732144,57.22766371550934,55.671348624816105,-9.205853829835124
2.0212499,8.612144753779129,-5.08896137221051,-2.408488888752071,63.40200578221392,48.12652311921905,-4.5841181574665395
2.0312499,8.624870663446426,-5.308482774658103,-2.580378409944076,70.18182230781582,40.85530264294391,-0.13637752522261565
2.0412499,8.547614738881615,-5.452466163107122,-2.665771082205066,75.869214177414,34.45188985182107,4.094729562888532
2.0512499,8.424750798550756,-5.49939483526077,-2.639068588465292,78.6508658622706,28.313673575231377,7.851653809867861
2.0612499,8.473851696932156,-5.33300335790998,-2.5848477478216307,78.25477720803623,22.652155527878882,10.049175065874532
2.0712499,8.670716735759658,-5.060673550489188,-2.464387429861774,74.21377256261962,18.14561071853491,10.772201079975948
2.0812499,8.863820225610858,-4.975045248378865,-2.308264432521146,67.26112138252724,15.386406245240334,10.989184163092773
2.0912499,8.959947499772655,-4.903085400194306,-2.240333878899532,57.1716114743941,13.119463042076477,10.964660136305797
2.1012499,9.03020429398484,-4.590676621873215,-2.166680253684623,43.44928440399616,10.89352049468649,9.766197407331079
2.1112499,9.140905362486988,-4.357897339243721,-1.9817476344836882,30.84251812626429,9.54636857598082,7.475656638173058
2.1212499,9.192244706686555,-4.324313933704858,-1.6816783102894814,19.94362869856152,8.82747852950976,4.929698400987852
2.1312499,9.103764905384699,-4.427199249645248,-1.332630393319211,10.327544297771762,8.628157776173053,2.621422228638366
2.1412499,8.925432790160288,-4.61068561513279,-1.000064294352835,3.1997804250829573,8.928105419438625,0.748892792107644
2.1512499,8.817860196169999,-4.877328040658218,-0.6281171736088531,-0.9978831691082725,9.398286996827663,-0.37771874341534806
2.1612499,8.843022466163774,-5.171617612326926,-0.25407165006816107,-2.1523778230930155,10.232670591842158,-0.8865765371820468
2.1712499,8.832533598725618,-5.281225525303261,0.017942327440118228,-0.5593615774919751,11.202711167030612,-1.3527712745458076
2.1812499,8.739217905828733,-5.241580033861158,0.2569754733455866,2.2751797354770127,11.755549500815873,-1.855004676682917
2.1912499,8.61903945745036,-5.184648967457673,0.49237678544811025,5.438933976009653,12.000740389203294,-2.2953395328793476
2.2012499,8.473632076703193,-5.048870299693054,0.6787327715771143,7.858390218702565,11.976275607446732,-2.930093774148274
2.2112499,8.363362034957104,-4.970494629634934,0.7314370651054591,9.89811849727085,11.9972476793146,-3.6108099491309664
2.2212499,8.361138126642873,-5.167299620379969,0.627221065758422,12.929029556271535,12.198958055463676,-3.339048481272
2.2312499,8.448875292273147,-5.402185691658362,0.573968421111984,16.411598286689898,12.370683160128232,-2.072362980315247
2.2412499,8.503491803892882,-5.358027726729561,0.7518258485311436,19.048751676952282,11.98509219302896,-0.6561082972679533
2.2512499,8.508126571072758,-5.156994479616911,0.9568232947472499,21.039216315104774,11.303628338937333,-0.005887629492835628
2.2612499,8.477002774554546,-5.049014213565999,0.9393535682557882,22.745312387317508,10.261013077081218,-0.06963568053490782
2.2712499,8.460987000794324,-5.068190314645051,0.7822860744813169,24.57294518022567,8.840761771930568,-0.28630020245710935
2.2812499,8.45891385983632,-5.088366182461191,0.6525127690773099,26.24469370443951,7.110139750272993,-0.25654405837875305
2.2912499,8.524262684210992,-5.081079784668332,0.6109614905168551,27.4592121504814,5.7189428762041885,-0.04146303761543935
2.3012499,8.725061452453524,-5.043745415880527,0.5606968979854133,28.456994058524593,4.425685661533896,-0.2236684320541784
2.3112499,8.959246129727104,-4.9518866450241426,0.4459422284272975,28.6528686429431,2.8025766689330704,-0.7276793134366089
2.3212499,9.04867928247074,-4.830163018391511,0.321789493737975,27.467893705712964,1.3025172905520672,-0.8309280796264829
2.3312499,9.007570955571202,-4.6766556445999825,0.1537349252596663,24.44840820017974,-0.35628764132735563,-0.8994779455813959
2.3412499,8.970577827890718,-4.492862837904026,-0.0032298889421508827,19.152310225990973,-2.2982907593234736,-1.0628929528890614
2.3512499,8.956210888474695,-4.384625859534756,-0.051501232581907655,12.027159119442159,-3.8515500659937487,-1.4859663063881283
2.3612499,8.903265202204876,-4.390994008353133,-0.07225146436138676,3.825516892970014,-5.064032922546113,-2.1143642669963514
2.3712499,8.808727147099782,-4.5073700150222145,-0.1279436285056448,-3.91278894325294,-6.163998049593566,-2.932357526420923
2.3812499,8.777656053034422,-4.756246895883721,-0.09947136205586678,-10.134615250157053,-6.859120685794016,-3.7078356742593783
2.3912499,8.798099564891997,-5.030072023272743,0.03849677908021924,-14.352169391224356,-7.113653299496526,-3.998945632062974
2.4012499,8.782439826804042,-5.320961077074655,0.23416973827172927,-15.927249872303685,-6.648871982371258,-3.9039132768237934
2.4112499,8.711755539286616,-5.602238078547973,0.45064824137371673,-14.773177278057963,-5.951741160764774,-3.7715725398235844
2.4212499,8.630525812216263,-5.819477312527384,0.613714754082678,-11.090753881038857,-4.950339677441815,-3.791294490416271
2.4312499,8.555239943275055,-6.027084280066737,0.6665889705928093,-5.547748451539552,-3.597525834938846,-3.736071738295562
2.4412499,8.434201483279454,-6.146210021605909,0.5778890908747878,0.9683906863312862,-2.5153998122970083,-3.2283120734783872
2.4512499,8.249711447619893,-6.031726031097589,0.44843783611957877,7.289472558915438,-2.1971924463631582,-2.64972623988746
2.4612499,8.157952969804908,-5.745501237692693,0.48303634582392324,12.275993799755083,-2.470303231764042,-2.4390082394903647
2.4712499,8.174676440120319,-5.377486193418032,0.5003014441070561,15.041460672409531,-2.602959746046798,-2.4898163393340633
2.4812499,8.143248113766331,-5.034193747381004,0.36020648403591304,15.619931146912004,-2.787499744552141,-2.732178983598984
2.4912499,8.092788964731602,-4.727088674605021,0.22721503820802538,14.020055477131724,-3.393381553616491,-2.772690208510162
2.5012499,8.08588775636227,-4.492872161186294,0.16654526512285892,11.06820916118817,-4.156861669080337,-2.484631394816185
2.5112499,8.117186441901831,-4.435538857825227,0.20556526307049153,7.462780227413416,-4.7252488831774775,-1.9418898285874104
2.5212499,8.133358106373219,-4.558744548626787,0.39723359305811595,4.282889566182967,-5.010978217422664,-0.8306079730804309
2.5312499,8.182270405353696,-4.715976697819179,0.5793722957098204,3.299785082765216,-4.730141869793439,0.3809427744442485
2.5412499,8.17385403559887,-4.770924713107302,0.5479194168814651,3.7031160844518367,-4.539563616304921,1.31163127220479
2.5512499,8.07399596419635,-4.74994497738299,0.37512568027917625,4.369519465996247,-4.749301340662578,2.1861010113213517
2.5612499,7.950863017296799,-4.721897282760393,0.2745624703696916,4.838797713561513,-4.888377872053741,3.2167004190998565
2.5712499,7.839827061537579,-4.639792442307356,0.20851359459132168,4.294981241348209,-5.011448759615812,4.178613748453491
2.5812499,7.837503596075708,-4.611526453469139,0.08806456677378789,3.3467001688926734,-5.0055812245168445,5.060355868452886
2.5912499,7.856127617266281,-4.660344834817803,0.016311142710625517,2.4739446705073065,-4.821011209478423,5.9703166238266405
2.6012499,7.849146138191015,-4.692431383814536,0.07656855207807406,1.6695992856641948,-4.3740769136871815,7.226630306373476
2.6112499,7.929285599212206,-4.789365016830981,0.16048499860674753,1.9077655386922006,-3.1752629834286625,8.97981986775622
2.6212499,7.848952468920382,-4.801100987448329,0.09152164261943535,1.8458372211682008,-2.053091791881196,10.795613328743263
2.6312499,7.660150262844931,-4.717535149779158,-0.09590749900883942,1.3476840854876406,-1.2420934958774654,12.932201392985501
2.6412499,7.562034173326936,-4.580478908473414,-0.3545417595383569,0.05126102772708454,-0.4708567989582816,15.02786331535395
2.6512499,7.462093934915115,-4.378403351112869,-0.5894321422086185,-3.294590823316997,0.3948126974842052,16.94860568936438
2.6612499,7.431419785528141,-4.246626647946496,-0.6712188397240221,-8.221703115133728,1.635976369293068,18.953887862990204
2.6712499,7.449342498098901,-4.237980389031346,-0.6750010469103911,-13.446272415208462,3.1271735365094857,20.92626106245649
2.6812499,7.334751981685675,-4.264942782434231,-0.7459828661161807,-18.558323982484954,4.814555032368253,23.13885659804821
2.6912499,7.112810684596507,-4.380035778573771,-0.8638325972216088,-22.904416035180645,6.232068041205146,25.930393677639202
2.7012499,6.8809562632205825,-4.526531591951396,-1.0330353658864788,-25.43253471704079,6.930705484120767,29.154191941528325
2.7112499,6.634469804384611,-4.57895133715636,-1.2172234695408446,-26.954840964845367,7.322138682386509,32.7082255861746
2.7212499,6.321838715778944,-4.658975947219897,-1.2867825349124717,-28.10870260920077,7.262560195498332,37.385442150927894
2.7312499,5.933240459111803,-4.714600614778044,-1.323014952657294,-28.565231272169708,7.140038083393769,42.192060846178414
2.7412499,5.494223040767182,-4.794189978689045,-1.3717903101203035,-27.928335243426343,6.815597177750586,47.029442699387445
2.7512499,5.001147327240454,-5.000760546658537,-1.3990803354995818,-26.15953020606814,5.809560658399542,53.168236253986905
2.7612499,4.453828505234128,-5.0923966122651905,-1.47062746491965,-23.763802157751098,4.172852733835964,60.68283558004772
2.7712499,3.8207793535324774,-5.016238529802508,-1.580204085817464,-21.721184519945083,1.3935634164156696,69.29377897588866
2.7812499,3.193827125718507,-4.962634183233387,-1.842716419424952,-20.04111071585958,-2.5547225763504646,79.71383621610966
2.7912499,2.845306810895913,-4.77021649008775,-2.273731998967447,-20.632030152790637,-6.414765014269874,91.90441885832689
2.8012499,2.779911202495038,-4.406045923770361,-2.5349828818861573,-25.26676084167226,-9.534642745845193,104.47217658139022
2.8112499,2.706112206968329,-4.039190901176623,-2.6525897323647043,-33.87130101540567,-11.74253236428892,117.08491900098437
2.8212499,2.537047646985776,-3.863866670122518,-2.8233285512614428,-45.93867596102846,-13.180152666700527,129.9000423154387
2.8312499,2.2436096973286963,-3.967561918662861,-3.024383706650564,-60.33831117937101,-14.224225137912478,142.99695086648273
2.8412499,1.8138319991971206,-4.283811563699401,-3.3592264416394,-74.94852977442358,-15.565943538697297,156.85802073272345
2.8512499,1.3855700205058028,-4.80831377688297,-3.820684252632661,-88.56415504016164,-17.539283735074974,171.6222135888924
2.8612499,0.9814819748845149,-5.376487931569313,-4.306535305755216,-101.06448317545406,-19.568106223363255,186.48103625482244
2.8712499,0.6503744323582078,-5.846450101474439,-4.775608895738866,-112.91290971103368,-20.791985592276706,200.69589876568068
2.8812499,0.5068997853145637,-6.43917052189178,-5.099174271624701,-123.64112674693538,-21.22227230921642,213.73835311892307
2.8912499,0.5069293715112226,-7.212443474869114,-5.314847159842481,-133.38931450866875,-20.25963095645735,225.93147973319776
2.9012499,0.6222671783721211,-8.080333475051873,-5.6308914553999045,-142.4178741639957,-17.54391813078722,237.68268237576297
2.9112499,0.8470737982420509,-9.11017868426628,-6.031877580456098,-149.02193451033418,-14.415884345172806,248.8469261110314
2.9212499,1.2928325104982936,-10.360075872982476,-6.486446199186815,-153.31972583469843,-10.726944997023383,260.19000977514537
2.9312499,1.9251980220992855,-11.83940116148215,-6.901494023998418,-157.78227968840542,-4.95230913712204,272.48855825719204
2.9412499,2.4885019638358847,-13.175581354302773,-7.069704630662751,-161.53564399672916,1.5826985021930282,281.5033771361067
2.9512499,3.1441280481264595,-14.632977433088573,-7.037722483214332,-162.486809999487,8.531618489840337,286.16076206398515
2.9612499,3.924025361834214,-16.39536435878109,-6.86795735531459,-161.45158224395874,15.987673261952741,287.6343533053522
2.9712499,4.6254483126282295,-18.193397297266095,-6.731122102938634,-157.56022061093836,22.922786817533442,285.17205431250403
2.9812499,5.489133317748885,-19.889975027844418,-6.617983281669538,-150.6556797593108,28.84953150973311,278.0155509272421
2.9912499,6.607776624424104,-21.234173414133362,-6.597545714046154,-144.13476952563124,34.464210535495354,265.5371735439409
3.0012499,7.85695520271562,-22.28819588135483,-6.9477533900448325,-137.8246772433322,38.86559600394054,247.61011114011947
3.0112499,9.417484787028302,-23.200652859934593,-7.512749025411181,-133.59330842579553,41.0563097134287,225.46726077081115
3.0212499,11.383515638569847,-23.75985934921673,-7.9899841207992575,-135.6861478873394,42.058647819833915,200.03504853566392
3.0312499,13.702009387382974,-23.992494429169376,-8.263286017525825,-144.9770865413613,42.589400736073614,170.00353030780954
3.0412499,16.20573095395603,-23.977460575748236,-8.49515415513572,-161.38410963730448,42.69814787648258,133.50488701026006
3.0512499,18.60587118216472,-23.6047969660107,-8.597807286825953,-184.17381144256063,42.63817994686033,90.64556271931419
3.0612499,21.023398707721622,-23.300559864608953,-7.781293584302987,-208.2536059398906,41.33033204801886,41.69179360406868
3.0712499,24.129608306046965,-23.794568883311168,-5.584537296888602,-225.42259646773576,37.86478706353007,-12.572698885863623
3.0812499,28.09600454357213,-24.7274770690541,-1.815836256906486,-230.46451062918274,29.066938964391277,-72.22782662612698
3.0912499,33.237854308836695,-26.083127665884984,3.8652013846323934,-220.8467545471828,13.468145416232588,-139.17223635639834
3.1012499,38.62017084406828,-28.48002254259317,10.346999239089184,-201.1452012202177,-4.444277946793308,-214.65932843072744
3.1112499,39.61307453123717,-30.50782916707799,15.730477312575163,-191.53770491854607,-24.392798543203963,-296.962212790737
3.1212499,34.78036212742,-31.737744764163136,18.988147517361792,-206.04923930733008,-46.220989378342544,-381.47923976145734
3.1312499,27.691476258245707,-36.30090281081799,21.354033919179862,-235.02198857046992,-63.990987855323596,-461.7494502591881
3.1412499,20.205351005020987,-44.755975705327195,24.541456015085334,-247.52951899553537,-79.20683740816456,-501.51494145963983
3.1512499,11.847228491779735,-51.1329669517714,26.078397092947103,-236.38335696954422,-99.1827510310562,-500.2769732306166
3.1612499,0.11804192636014618,-54.399525578376135,23.412369152670735,-211.06968099220484,-139.46765577153036,-499.4234488661733
3.1712499,-13.824656907111024,-54.36693071955979,16.345077535147023,-167.27565911661432,-211.78275342024895,-500.22593703178666
3.1812499,-28.26562101862183,-49.29584542935282,8.648794263784533,-110.39255742353164,-300.39090558954854,-500.3178596517198
3.1912499,-43.341814085600944,-37.41122764304508,2.4149616171545394,-69.08258635611914,-376.0102123994955,-499.0901737565873
3.2012499,-51.56003925689803,-19.092600135259318,-3.8544097751955286,-72.08995114746969,-407.61794117456196,-500.97326187245886
3.2112499,-47.63902798799276,-0.21014009877226184,-8.036981469982274,-125.41967097002092,-368.90524857987845,-499.74621533816605
3.2212499,-43.82423197941671,8.008852006346249,-7.16173572175224,-168.46592067489078,-273.8038942548231,-440.9180870206089
3.2312499,-44.93542746583202,11.644257835103403,-7.215283129720655,-160.75829688777463,-161.65190355586267,-340.12417585748267
3.2412499,-40.44771458827264,18.237454334168714,-10.436105368771791,-126.07010825385194,-55.74629512125187,-247.39691696462364
3.2512499,-34.13544260060472,20.723799835915756,-10.313887538267648,-82.0733121807946,32.02589922682704,-154.07934707422285
3.2612499,-32.467515877308685,16.923740915622865,-7.4928246979397555,-26.81206902247391,86.95216481013755,-57.045691658162276
3.2712499,-30.73880972467418,12.783786765249275,-7.560856159684527,26.065141084354295,117.21105160774023,29.048736273998404
3.2812499,-27.330456835986944,9.148068563544456,-8.646070167010286,62.93249992052972,130.47059200260034,90.15965454678832
3.2912499,-23.83039468314849,4.680619660735874,-7.832273435011782,83.20441122098057,134.21795195410564,121.07893079257778
3.3012499,-20.253227081447474,0.2758529512847709,-7.333629273401534,95.92829595022432,130.75967174181426,126.59927330043703
3.3112499,-15.908109124385305,-3.2392693932493866,-7.568370442347626,106.31160909214147,114.84235396682793,119.53904399649353
3.3212499,-10.515895501882857,-6.361230063629828,-7.547622701346398,118.44727149130739,91.76922744900767,113.44351643408606
3.3312499,-4.438421784012642,-8.93936246095447,-7.409478738081631,136.26055569955105,70.92194087731686,112.02591127341115
3.3412499,1.9972287737042365,-9.799953693904055,-7.583772333994758,153.17309269578644,55.66854543610561,111.47422135919969
3.3512499,6.779112798540331,-9.310904494326874,-7.978854166557479,158.72770890456053,50.1634551228495,106.95058199682555
3.3612499,8.520713875794318,-8.64628021005882,-8.45764219209892,153.00611547854447,54.07760978491402,96.11718542148317
3.3712499,8.887225588945181,-8.120320792733796,-9.109813951005716,142.23730340294796,60.9958948530562,80.29078159400024
3.3812499,8.713835134665281,-7.660293754029279,-9.829661413447017,127.79810464687465,67.9558785647428,63.00128586017053
3.3912499,8.239650864304403,-7.406746265653982,-10.359556957332156,111.85862563603303,73.76576102746336,46.808562911992155
3.4012499,7.992973067241641,-7.392385438009515,-10.56891389043084,98.59650838258872,77.95184162395043,33.035144915141785
3.4112499,8.360928187238862,-7.287841849014885,-10.568627401116258,88.03940391337638,81.74250907156926,22.03782899377826
3.4212499,8.848206755833463,-7.279224126533415,-10.247881903404203,81.36706345874323,85.33845543469629,12.765762238984243
3.4312499,8.997787012229008,-7.175432216080125,-9.678435509370406,79.19058242213801,89.52899113208856,4.760523997157811
3.4412499,8.867377120128474,-6.642724473654369,-9.213170653141031,78.33023408307112,94.67930489804307,-2.0568420957969558
3.4512499,8.648164496819094,-5.912212007269365,-8.703997619346243,75.77917319300862,100.43997264641798,-8.360534949844375
3.4612499,8.374382928132789,-5.237553974833699,-8.002592640608919,70.06725347248965,107.55706334693383,-14.499328958608395
3.4712499,7.98214070794085,-4.7951075831458185,-7.449786796430406,61.95868372334845,116.44233869534764,-20.419930568917444
3.4812499,7.541014763202522,-4.702207041797027,-7.250657694029139,53.009735513217734,126.47263972955795,-25.75038101105937
3.4912499,7.0041668352258295,-4.760920265904038,-7.061127285689886,45.16459228114317,136.07669111148934,-30.616538994027756
3.5012499,6.489722173473426,-4.713584354921663,-6.723545924271342,39.062899775408894,143.19027968124004,-35.510741146341374
3.5112499,6.427816355694702,-4.6370220688366395,-6.512539446294024,35.70916103027887,147.40473264868635,-39.6856164679808
3.5212499,6.627963310280275,-4.922588972237408,-6.36208269947613,38.802992971883604,148.25526153792458,-42.23602793107699
3.5312499,6.707624871976422,-5.243188445392137,-6.005029343397757,46.64779795829466,146.6325199242531,-42.70866094829167
3.5412499,6.4918407090381205,-4.94807663893009,-5.491124574712379,53.52304488612551,144.70255697832778,-42.28219682821816
3.5512499,6.069459195478014,-4.630266764222817,-4.975907996089786,61.86289072779789,144.35441176972515,-41.4740493038616
3.5612499,5.852572394431901,-4.539511621698332,-4.63500575428596,70.15847698998125,145.96756176844167,-40.04190078404426
3.5712499,5.848874606171525,-4.348211906266264,-4.2546970353583715,75.31751518191314,148.01962036169473,-38.144823364982244
3.5812499,5.973314061954063,-4.100089889500337,-3.750143586591971,77.97697889566483,149.51821643522305,-37.022798549801024
3.5912499,6.249826303911659,-3.8485334688545154,-3.4249891828656764,80.01878393965775,149.53622557641262,-37.597768924959844
3.6012499,6.536902452082275,-3.7301272413885616,-3.1575816332708113,82.3939246890015,147.58723892039768,-38.683973736760194
3.6112499,6.69470268044332,-3.744448058679101,-2.913577472440717,84.27094459018923,143.8478587757096,-39.14489992785061
3.6212499,6.679698306682899,-3.829771845705424,-2.8364722071879442,85.57364459401971,139.3010668261122,-38.64720806780283
3.6312499,6.482084335123582,-3.9501347176045503,-2.7944290035332173,86.16853987726178,134.3666915335904,-37.09218172973467
3.6412499,6.361392795968926,-3.862604056195881,-2.7454872267898995,84.36953602820536,129.46144714428746,-35.41292988283027
3.6512499,6.497352659738492,-3.6330222099408513,-2.7124021149901427,80.69556099595337,125.49186010651388,-34.07240754391415
3.6612499,6.656332373613767,-3.627755170484029,-2.512378915953918,76.92020830569234,122.27016149952853,-33.15521048105255
3.6712499,6.739789015497702,-3.806833953444887,-2.1646053775629586,73.02879493174993,119.74866787474596,-32.62825832233057
3.6812499,6.929054229617942,-4.073852150675064,-1.956631058717297,71.32105727070702,116.50700132956165,-32.133878753026885
3.6912499,7.419462938410022,-4.373609359170484,-1.9098429119947524,73.17566348033642,111.95548927883672,-31.374933464597817
3.7012499,7.841021901890032,-4.432404355733525,-1.8742554973082395,76.10971085296683,106.74549360225485,-30.783250262472414
3.7112499,8.03396954523262,-4.336612843332179,-1.8294445682652851,79.30497320068326,101.45939942252262,-30.0999880969472
3.7212499,8.15988802414434,-4.31984180932626,-1.8691288738895915,82.25667653217263,95.90911910622825,-29.157201063176217
3.7312499,8.217509496949829,-4.169289889094569,-1.8799619950348132,82.83161870617194,90.86691871940235,-28.110893870372614
3.7412499,8.141736628026052,-3.8854858410831854,-1.722013544243375,80.37732020080084,87.08303418663469,-27.397529857576664
3.7512499,7.918579773142427,-3.480823205932773,-1.546731327744752,74.70003212560037,82.64873930217868,-27.049004994364335
3.7612499,8.443344570260683,-2.962680300584749,-1.446393447124199,65.58326160825668,79.57407435587051,-26.889654057677348
3.7712499,9.558961771693205,-2.9791818572560698,-1.4713532696911442,58.20980936196357,80.26108213362645,-26.149936380107015
3.7812499,9.548768870589939,-3.3031096688114934,-1.7591905944017225,53.22575744672847,77.82680649965513,-23.660341866265235
3.7912499,9.021819326701499,-3.2345640484289966,-2.0400297820263757,46.50042908121276,71.28329128452842,-20.20196732432885
3.8012499,9.165258507843788,-3.1090813211178667,-2.1459514353519697,39.926165513174844,64.23357354034458,-17.585897166693005
3.8112499,9.587217042261994,-3.1135897550906946,-2.2779633931631853,35.24517424361129,57.32563145925559,-15.887863267892282
3.8212499,9.804791492557813,-3.096977203160033,-2.173042613208186,30.46148424985171,51.11598884698548,-14.553116687366128
3.8312499,9.986070897682175,-3.182392464940952,-1.8599786785267758,25.798318001525807,47.032674356090226,-13.900720460588822
3.8412499,10.134330688138038,-3.4691713835516635,-1.6386074732585656,23.08286778140845,44.33493030551871,-13.08108218926086
3.8512499,10.13959808353329,-3.710616562399164,-1.572969721165518,21.523938648132543,42.15590655308155,-11.191710408088138
3.8612499,10.075883157301233,-3.8058092604790987,-1.5700398080514508,19.967388570873297,40.60251635079542,-8.70339743712457
3.8712499,9.945285102757648,-3.856097461401533,-1.4820100294697183,18.338055784542274,38.94569246848085,-6.215941471254264
3.8812499,9.766552435719412,-4.004637911840075,-1.347801012773778,17.83440195498829,36.75604053365198,-4.001531351233137
3.8912499,9.640750695695736,-4.214520853146065,-1.1882984920377382,19.09886280732128,34.424074058853826,-2.092213955684055
3.9012499,9.566520359641148,-4.315664688926601,-0.9704909325818316,21.014706575888404,32.09492412199761,-0.661718227431384
3.9112499,9.431425313194513,-4.314163670232906,-0.7211649670602921,22.383445740200926,29.488091773587033,0.2138982023688567
3.9212499,9.164453177591975,-4.302137597504308,-0.5544321651999805,23.266484804898802,26.601081257369035,0.8460674242547388
3.9312499,8.862360186890422,-4.230202127006602,-0.5328934979583256,22.695995270855494,23.6563559591125,1.420890823902797
3.9412499,8.705493815991979,-4.075643197220128,-0.5499484028433945,21.17757837175565,20.814453776654812,1.8884203373632362
3.9512499,8.716360485219822,-4.052172574150883,-0.4131217618342687,19.793886190554684,18.611647856106583,2.2217088737563886
3.9612499,8.658479024835387,-4.149060653853486,-0.07443367217470662,17.204984483059288,16.73679104902766,3.0905361644421503
3.9712499,8.705689262411664,-4.213338895483929,0.302262597601021,13.45601405646109,15.039375192394122,3.9853043341452725
3.9812499,8.953942411759062,-4.180089025049645,0.5143287659170293,10.461924607035918,13.745948898872657,4.146104664240922
3.9912499,9.16663840463485,-4.209031052227663,0.7410907623114651,9.23211057414977,12.482267335502936,3.811606265067514
4.0012499,9.242310497113577,-4.381060546614784,1.0146009864562153,9.545456872738097,11.369164064742723,3.6409022010265955
4.0112499,9.089375487911255,-4.507517391500952,1.0596655594338795,10.816538096205958,10.40357991471991,3.723458588938625
4.021249900000001,8.81899423644918,-4.449774676382393,0.9556520166970239,12.546791859731393,9.023145606149976,3.198088997578914
4.031249900000001,8.584991060077222,-4.311580181659872,0.857712902645623,14.324104121304867,6.9681607141536865,2.214932493928541
4.0412499,8.432322462038654,-4.275075975192967,0.7198921273300982,15.693969132014146,4.619472592841969,1.5548279962513596
4.0512499,8.464959994174237,-4.2783337969547475,0.6010151745363269,16.03226658054745,2.9767382499062913,1.0245599200987565
4.061249900000001,8.607359075831601,-4.217249293561484,0.5721095961893605,15.514477870280501,1.9171068860761187,0.2886063053606871
4.071249900000001,8.759030141802857,-4.2445470875986295,0.6035284257717951,14.794422498418356,1.3116188893893936,-0.2338578099544802
4.0812499,8.901795494491708,-4.34059305597179,0.6750275421742415,13.483791846317201,1.1593483961935631,-0.09069682263612938
4.0912499,8.916770814760223,-4.35438008054986,0.7404321959414409,11.41276780574029,0.9552354282193052,0.19085026794530605
4.1012499,8.869898064154045,-4.304497300452732,0.7170041378522298,8.973252801979779,0.7354473692735715,-0.12534216198335177
4.111249900000001,8.902059741608252,-4.322321143888635,0.7123468564426526,7.078973981824503,0.4006640141901852,-0.9309207334487809
4.1212499000000005,8.89339727687601,-4.411376178141342,0.7057042698956995,6.4359280047684555,-0.1018274650178791,-1.7557140874376254
4.1312499,8.793358049378861,-4.443323552553218,0.5931334903851817,6.302166887074062,-0.753829683842227,-2.459951355417883
4.1412499,8.751892217647576,-4.441588480010311,0.42849728154386246,6.4657558511847215,-1.499414891042108,-2.8717333173638915
4.151249900000001,8.73890536752918,-4.465155252710174,0.2772578764811665,6.418654796094347,-2.0736270423018976,-2.988947085662188
4.1612499000000005,8.697219576712532,-4.5371205853411825,0.2058235043786466,5.8134968176573,-2.1995642622401537,-2.8914647637702853
4.1712499,8.734313252025569,-4.652639467496231,0.23341464825284525,5.651108140425609,-1.912527908845674,-2.65839429878071
4.1812499,8.866685757443888,-4.766506419623737,0.3427459559494272,6.791539497169808,-0.9829885115484874,-2.832824338247959
4.191249900000001,8.946180528065524,-4.879987496576731,0.41929965936700225,9.42271642955678,0.40508411228225566,-3.3800678697924478
4.2012499000000005,8.965464030396186,-4.945274502957828,0.42189742607111147,13.1646743087709,1.5496375983876276,-3.8803947994749657
4.2112499,9.006343580513066,-4.978187759953535,0.4214505643525275,17.140886925713506,2.691322668866076,-4.465292204726919
4.2212499,9.009278066918338,-4.945109443345741,0.45170820540689344,20.608814144867072,3.945649592238005,-5.035396962146876
4.231249900000001,8.967083473930348,-4.799811129019606,0.4707315814753057,22.924591393933458,5.08545659462995,-5.734573108641274
4.241249900000001,8.959407802482701,-4.585923096317157,0.4540936067870227,24.209594771153572,6.109381760240568,-6.990875936123738
4.2512499,8.993814077663679,-4.384259402200301,0.5167531395167196,24.215117654133937,6.945495863910075,-8.520808541991093
4.2612499,8.953795961261529,-4.3368280203777,0.5763997056937099,23.439475561045334,7.573112496361588,-9.900447567705337
4.271249900000001,8.86523188422694,-4.365215519153444,0.5785141512526247,22.492172074297564,7.955059946074452,-10.726238157134182
4.281249900000001,8.787007511939308,-4.328255578728454,0.5415358896005287,21.228174830934957,8.051840750688497,-10.997684211674523
4.2912499,8.701003797707802,-4.296172328085833,0.49069618401432574,19.806578787216658,7.81899495288599,-10.977574960871376
4.3012499,8.700794105504034,-4.279764643994295,0.5525074715040832,17.814163435871915,7.454485909748291,-10.912711354827646
4.311249900000001,8.805386182640586,-4.27234294689978,0.7029491887361373,15.626100364193759,7.345121499368974,-10.653137831815423
4.321249900000001,8.846782158377723,-4.2805231104131884,0.7820340404436064,14.15587023937017,7.195264502988431,-10.48000415117259
4.3312499,8.769662004666094,-4.277126530204672,0.7809009644953825,13.27980485840273,6.7099095561556386,-10.143112359310855
4.3412499,8.655436393923534,-4.217613058409163,0.77555431211554,12.911850348216552,5.801111691915789,-9.271662607587528
4.351249900000001,8.620916933187848,-4.120565144902039,0.7606449228942335,12.557464979571911,4.692052637722559,-8.025048914314203
4.361249900000001,8.656683649647363,-4.058533284140385,0.7060664750148753,12.091921742896709,3.6865716464052065,-6.823532707730977
4.3712499000000005,8.670703631532968,-4.011195496623651,0.6700610662721708,11.319238981163402,2.7072188827648804,-5.499687503974903
4.3812499,8.725961584762686,-3.880922877479751,0.6973370899155522,9.453903636877195,1.6684246572409043,-3.6422186348536036
4.3912499,8.867799446893828,-3.726928568832491,0.7104575128934267,6.678490268757647,0.9247524424269018,-1.8841997503297077
4.401249900000001,8.92301745159462,-3.7091544690056883,0.6755280164377372,3.994307864659385,0.290646170807632,-0.6213804663050604
4.4112499000000005,8.862915375684715,-3.7801117835709053,0.6816466851950953,1.787840595351464,-0.06015514012985561,0.665755679187344
4.4212499,8.773503112237814,-3.899828945115397,0.7248472613082272,0.003977363246087405,-0.3741833100506719,2.081103529928608
4.4312499,8.653171397572859,-4.020342479377445,0.6887460735492521,-1.880375582843168,-1.2816257454619011,3.3806918916900437
4.441249900000001,8.736156893251987,-4.2099509089145135,0.6225420105160345,-1.585105415486142,-1.1640639309944614,4.633257596158083
4.4512499000000005,8.773157366909919,-4.302400723223363,0.6542556400165791,-1.2014704765780069,-1.0681318957855435,5.733676660166665
4.4612499,8.661150607144775,-4.291550522715398,0.735150959740733,-1.8047944276304435,-1.0940707252472668,6.208467319949223
4.4712499,8.826500769185085,-4.441208026010455,0.8849816668067125,-0.6374817003592015,0.1911149777786742,5.983291792982851
4.481249900000001,8.959581415875606,-4.5558789223538545,1.0252490847692461,0.8836246339800284,1.312769872305986,5.573976424982867
4.491249900000001,8.907495625076496,-4.72790102273494,1.06872542049645,3.339645188864757,2.0360201764451515,5.250582929680017
4.5012499,8.807532968379784,-4.81929182039794,1.045051431118909,5.9287372171757475,2.491902035105551,5.073781181599784
4.5112499,8.701021011320337,-4.740700460692483,0.9549242803611743,7.752617670859677,2.421186737402208,4.7838300178486435
4.521249900000001,8.627648698175838,-4.596849675907047,0.8239886862732998,8.487112337127023,2.1620888664831037,4.436850918735563
4.531249900000001,8.595474124710174,-4.4084763310783615,0.7708959167839533,7.493462144749738,1.8722342030089767,3.99875594367813
4.5412499,8.625982760826377,-4.262714482616376,0.8111735176729232,5.767707101803002,1.6191635315798119,3.674569925579775
4.5512499,8.656886393474565,-4.201110824807839,0.8776471282771128,3.5547314487264368,1.6064337781146216,3.643293534753957
4.561249900000001,8.630771202446576,-4.228561816474615,0.9348217277292623,1.8400192220848284,1.490716190187708,4.288790718596282
4.571249900000001,8.534512936251058,-4.286853854075402,0.9172319091660525,1.0633542077185871,1.2585029845652782,5.570535868207463
4.5812499,8.375935094482065,-4.324525952744425,0.8344120907136423,0.6935696391076894,0.8662094657537555,7.187772708571888
4.5912499,8.180819644546641,-4.325014123652117,0.7973975665307105,0.7913795604715068,0.07036548966266991,9.54216885871468
4.601249900000001,7.99588514949383,-4.345342159818853,0.7306503097674143,1.1675273888561326,-0.7168165498955847,12.160102475759158
4.611249900000001,7.8237905286397735,-4.379585222664825,0.5900929627974856,1.1269176054182408,-1.6547081919788296,14.71037412877823
4.6212499000000005,7.725590125469712,-4.3495843074038625,0.49088894423755786,0.6009617422677198,-2.185850006844304,17.3419872542283
4.6312499,7.677391284129714,-4.254595650876201,0.3642070489185745,-0.7157615311252237,-2.3740560125911108,20.045606582281057
4.6412499,7.5994351058806116,-4.145390303846103,0.18422388795374067,-3.2842422167241727,-2.2686049801069927,23.073072917960744
4.651249900000001,7.464716398574242,-4.027345180136532,-0.010651560695746375,-7.166149820008564,-1.7761396095761743,26.544980245524524
4.6612499000000005,7.337877255018447,-3.920083907157691,-0.2188044144443426,-11.865758287132682,-1.0981059821817998,30.37575781647762
4.6712499,7.234580027424002,-3.8780047252721888,-0.37565079556730246,-17.315887322843878,-0.1986326716145539,34.120243735947696
4.6812499,7.0953926095684725,-3.9149259235466496,-0.48650283948793327,-22.656081715814544,1.0512219557175946,38.10795190962602
4.691249900000001,6.859555097835592,-4.077198009613425,-0.5484907337646622,-27.293060336888978,2.198439711140805,42.46618433698961
4.7012499000000005,6.633195431920912,-4.264720997374363,-0.6074204033738636,-30.861411477080846,3.657945086141171,47.255151308444255
4.7112499,6.336163436121831,-4.3401271340954,-0.7199009886568526,-33.08954781192123,4.829229540744585,52.537774823643495
4.7212499,5.9400116131807605,-4.350848770807983,-0.862380681145823,-34.14135326974625,5.537026507921971,58.43109810258239
4.731249900000001,5.6597664143953725,-4.270607460197164,-1.0740404478659338,-34.95663262444241,6.529365993202138,65.21961646841432
4.741249900000001,5.467966690704166,-4.051325557000887,-1.3162164369003606,-36.59084011138625,7.8839857643807045,72.63113595349166
4.7512499,5.362084622098436,-3.7862671670069448,-1.4698865317316439,-39.67613446986317,10.21496505461033,80.14504758770755
4.7612499,5.286937574836315,-3.607005057269633,-1.550583229774107,-44.710314105538906,13.545963331350293,87.86996900081633
4.771249900000001,5.138600561622691,-3.564514901047519,-1.6348092133408005,-51.46972319019404,17.309288999338747,96.68631522014189
4.781249900000001,4.8811269921040035,-3.7321163064604876,-1.7091401346975497,-58.11618594996824,20.475827208328536,106.13678916758761
4.7912499,4.5806316505015925,-4.201197887564892,-1.8215654551784017,-63.68188707983914,22.69049693735117,116.41871949327538
4.8012499,4.359233822456988,-4.702043307260915,-2.126172908392208,-69.61935447132848,24.651287954430106,128.42626050413497
4.811249900000001,4.120056162321016,-4.934102728012385,-2.4047454307060963,-75.14287195782086,25.263906403293536,138.5307573368926
4.821249900000001,3.7638662993095022,-5.2455747050316885,-2.5468962007495066,-79.92794429855037,24.353005095624273,146.38158345344328
4.8312499,3.3646341541676974,-5.657795386148307,-2.829457422784408,-86.59827808619117,22.913873898806358,154.81616476760675
4.8412499,2.9654232746219393,-5.980826186101352,-3.303385371354618,-95.21203935578421,20.68887662178229,163.70963783328526
4.851249900000001,2.7360796362277773,-6.387484450965684,-3.695955617975778,-105.67059090491924,17.623283560685884,172.65868184418616
4.861249900000001,2.6530044028307977,-6.771035725908523,-3.844363427821808,-118.26151457300233,14.356123081064869,180.7323997332587
4.8712499000000005,2.615083124503939,-7.26972549088399,-3.983693386502519,-131.15329072593167,10.713086154362811,187.39261933532177
4.8812499,2.6030337583433565,-8.155463989420426,-4.122249311058156,-142.49656307513115,6.4633407214396215,193.35845889466674
4.8912499,2.4945536651311495,-9.050504166941039,-4.3931968492948155,-152.91234423367786,1.3629176820988964,199.66453474153212
4.901249900000001,2.508954792317783,-9.900531843024108,-4.801809571512623,-162.1553678417969,-4.101508904986782,206.5080108039876
4.9112499000000005,2.772962193298365,-10.765570462471787,-5.004308352776941,-170.7966333652475,-9.369521102692604,212.72256209182697
4.9212499,3.0502144862681746,-11.560020896546241,-5.183970488551052,-179.68580340956424,-14.541447616157496,218.1148811920159
4.9312499,3.374286153392756,-12.416664752974993,-5.546759583090332,-188.44566130823623,-19.62532365573854,223.0753858324089
4.941249900000001,3.811745271605178,-13.235925921321472,-5.8611908441609115,-198.3710596785513,-23.998197421990294,226.79550791426811
4.9512499000000005,4.261629565539912,-14.047682488391859,-6.124240172035641,-209.4438433018088,-27.351184883199792,228.57195236966774
4.9612499,4.770913858979687,-14.923334697366496,-6.60053351120065,-220.76121143935765,-29.769516987900634,228.10770464915845
4.9712499,5.453115456285136,-15.768745693746114,-7.014860587217704,-232.41489073567362,-31.011812295404262,225.03515398985905
4.981249900000001,6.173920404517387,-16.548431515822273,-7.293593958986604,-243.72198326755029,-31.31021341171061,218.59742818380397
4.991249900000001,6.92061999235659,-17.480140341573833,-7.574025285344848,-251.86521164104227,-31.092457880108242,209.63042512224027
5.0012499,7.895450836641811,-18.48653305915903,-7.8355771524475095,-257.32845075463143,-29.837017135712006,197.32507356481835
5.0112499,9.227667398979651,-19.383843502006332,-8.467237436549706,-260.95263107661896,-26.62686225069037,178.8078084232829
5.021249900000001,10.681875666758108,-20.371213811672426,-9.005272907026438,-260.3971583296536,-22.915584904833935,158.5663510373362
5.031249900000001,12.448642540343512,-21.45909824255479,-9.067602148394682,-254.99841105017563,-18.31917597283452,136.33048478629217
5.0412499,14.478868647141887,-22.289582712877742,-9.06193316887367,-246.31040547038253,-11.83483134618247,110.06588538072869
5.0512499,16.60787510597452,-22.7741921183114,-8.907797617449829,-236.89071133008775,-3.4439403180807586,80.05549630906975
5.061249900000001,19.146603506666164,-23.20630212273969,-7.9454126869325705,-226.4419565170001,5.82573641488885,44.832344287320346
5.071249900000001,22.649757479658955,-23.885336074783176,-5.958591463700006,-213.141751511525,14.735136570378382,3.038174417082397
5.0812499,27.04842792516402,-24.68140038406771,-2.9912516662471953,-196.65457891308336,22.387354909533414,-47.21914925893627
5.0912499,31.14148731604965,-25.47125563837879,1.3148912318372445,-174.3053923475408,24.629812897244452,-106.28864738437893
5.101249900000001,34.16246878773369,-26.175270015968543,6.514407932113268,-150.3913712621293,20.58368781910082,-174.3796227564631
5.111249900000001,35.04440637693428,-26.600348741726314,11.732791109583424,-137.71651709414022,12.24315143155605,-250.40138439368656
5.1212499000000005,32.14884222980689,-27.3074839410614,16.133378182583858,-145.66229819143587,-5.285614500297637,-326.2716246420914
5.1312499,25.82823935409978,-30.523132609034263,18.88431511954026,-164.89347785072206,-34.06269066375233,-396.8963418371345
5.1412499,18.22542839779027,-36.39233767229604,20.880677426257066,-167.69213756243965,-71.18915740985335,-463.00304445113767
5.151249900000001,10.66319705362452,-41.78021956293415,22.732787552339328,-146.25814930527443,-117.09959816613409,-499.396558486411
5.1612499000000005,2.3212006396064666,-44.95990379262069,23.098378974185074,-115.90838743632395,-173.4104024674399,-500.6226017835085
5.1712499,-6.424036743598239,-44.33477776781184,20.594618706788594,-91.86490957424012,-238.007377870592,-499.41673363003946
5.1812499,-14.259868268708724,-39.046028414988136,15.428138157530075,-87.41376353457122,-304.05536330083845,-500.59571089213904
5.191249900000001,-22.90186436601786,-30.443893740060936,10.119453201131074,-98.4591862034229,-361.73474414563697,-498.9287954308519
5.2012499000000005,-35.68520320693651,-22.274863198376213,6.31451595647133,-110.77287636826645,-406.7434028499151,-501.56134769821165
5.2112499,-46.45936048044513,-13.292282224149599,-0.43413348926790823,-113.45769459755374,-419.97435032941496,-497.66595765699645
5.2212499,-44.811246678925066,-1.0561219207737043,-7.426417979947368,-108.4918262985148,-366.9441824753106,-438.00871972109326
5.231249900000001,-39.95534741078276,8.141189581390469,-8.0675269357369,-97.45806704256202,-272.3167990965034,-349.8618526972268
5.241249900000001,-37.02148390761355,13.187418474722513,-8.401844098896087,-67.74423891739461,-159.52204420333211,-272.11015132614705
5.2512499,-34.52311843360343,14.718110591986388,-9.272799257221628,-17.44797612334586,-41.73617460286456,-192.53310243152893
5.2612499,-33.05450217506646,13.44763925395001,-11.131443446501807,45.488508018518914,56.34822588752883,-107.72127728887392
5.271249900000001,-29.16187778044619,11.508104901184318,-13.283454469309577,113.67544419931649,125.65758858080831,-26.383994438085775
5.281249900000001,-24.5597364902509,9.389959927452962,-13.166301494537583,168.53408821501853,174.02864171037012,40.97524516805005
5.2912499,-21.09303189787386,6.493519304900256,-12.142681840674975,195.4607043967883,207.33644465993856,89.29246029148284
5.3012499,-18.070151166190765,3.3129856061259138,-11.207310100162397,199.44887313346328,226.44838545877806,116.4145960776327
5.311249900000001,-15.307819061373655,0.18159488311656094,-10.24754469205714,195.02573262750408,228.82020251800057,123.59686555718247
5.321249900000001,-11.480647254995368,-3.4517481974324364,-9.2577503970338,193.7679494039989,218.3364944429484,119.68339909373518
5.3312499,-6.144029357053712,-7.33644940227576,-7.9461290609452115,201.60652334088573,204.25964311332163,113.59703665387659
5.3412499,-0.6690622312660556,-10.035795803314176,-6.47033255998661,215.1335210176182,193.52182608584013,107.6067194634766
5.351249900000001,3.335459022783838,-11.328138095606263,-5.2810428847747675,229.36758500735905,185.17638167444727,100.30993449885604
5.361249900000001,5.8499603154443,-11.682344489452808,-4.706048292336248,244.5474119599736,177.31347425543558,89.76986449069278
5.3712499000000005,7.470905862671157,-11.391640708983475,-4.536936044039641,258.3252422573544,169.9736502075174,76.60677997696551
5.3812499,8.052393791267493,-11.131582673451913,-4.750808557769915,268.6271626448602,161.7757740705684,63.596069690318785
5.3912499,8.04434263699083,-10.855185932149094,-5.496696418772062,275.27156870402575,152.79765678349054,52.49200535414073
5.401249900000001,8.3062997460773,-10.136932763755647,-6.350047495839859,276.38151930852763,145.84235778218363,42.65549045138643
5.4112499000000005,8.529554782693117,-9.059134597254026,-6.733245579044022,269.24827890557634,141.16637718635025,32.50204692424951
5.4212499,8.486813781727536,-7.876978312735682,-6.402570298943181,251.21973665275902,137.6153181365883,17.496393524459616
5.4312499,8.613473745465065,-7.007250123174558,-5.517554055194828,227.06714892729192,136.0167590388102,-1.9024197291599412
5.441249900000001,8.925392123887162,-6.798774963606021,-4.718963584001563,203.6442390012952,136.6025424057212,-20.362783979981973
5.4512499000000005,9.073313915926395,-6.991141793559568,-4.254877633510102,181.16897177439142,137.4818729963387,-37.57711225871068
5.4612499,8.851137500161762,-7.325879443561929,-3.8661308157562044,160.91532605578854,138.2533901453408,-52.58229724122872
5.4712499,8.29315789106726,-7.607045287370483,-3.5364437566630564,143.2216818376103,140.2364916120612,-64.49432046334924
5.481249900000001,7.406283097728888,-7.685941426278009,-3.410475772630679,128.42700737864692,142.8815222542593,-73.66992525830915
5.491249900000001,6.48017667934777,-7.7042967213972595,-3.352045982886474,117.85625230268973,144.95933738451274,-80.88055715249577
5.5012499,5.903627627416293,-7.77309652560649,-3.22333410710385,112.34360505062637,145.81871613598233,-86.51517333348636
5.5112499,5.800983240402186,-7.63050847777925,-2.9780333341043987,109.98229949097554,144.73795006726203,-91.180839650414
5.521249900000001,6.1419089343977324,-7.392865177744932,-2.68946624338774,110.33572407861045,142.23809419621327,-94.70587638276392
5.531249900000001,6.5177631218922105,-7.488747535174396,-2.4436612716447432,114.75316576254096,138.78381273544565,-96.62569798184772
5.5412499,6.656425113839936,-7.492287574483134,-2.2572223018178583,119.82582251925282,134.94005938086357,-96.78142910128301
5.5512499,6.726473413987777,-6.833207185745135,-2.1409340497897684,119.10070030355266,131.41933798214487,-96.24563130620686
5.561249900000001,6.75425744761071,-5.6582393698823426,-1.968212590282066,110.61513650784316,128.61315501647323,-96.79882941225654
5.571249900000001,6.962794469453533,-5.190785728892292,-1.6451794097765773,102.54247210697274,128.37925759877507,-97.97548961425434
5.5812499,7.099699560628191,-5.211140145556082,-1.41629873427212,93.71984504954004,127.18546722182552,-97.71273910440699
5.5912499,7.114558756186357,-5.283881055859992,-1.2764633001475023,84.22584331900035,124.10839874570476,-94.56093942566902
5.601249900000001,6.347130372902874,-3.8093060435717057,-1.0738343278319549,60.922815881737094,115.67319174919196,-92.94270619267732
5.611249900000001,6.36594830979992,-1.8428464158271831,-0.9177645125154045,27.20893090241766,105.91634125623447,-93.93050376657773
5.6212499000000005,9.134823891456934,-6.442982601456767,-0.4310227437857598,45.28105701194882,113.2460497953806,-84.33042053518294
5.6312499,7.462679144817903,-8.738220483891947,0.08685106300489107,57.68465339525023,107.5909915589293,-64.13891328792259
5.6412499,4.9375189985443875,-6.261609660687475,0.5727539349662322,47.263201562463166,90.9986046874071,-49.16917968208647
5.651249900000001,6.370005994086441,-6.662875114308927,1.0630353284808287,62.325356540173026,87.00515121976777,-46.344931949636724
5.6612499000000005,6.617077499596134,-5.803854250296963,0.9008336070870729,69.11495796452135,80.69214310175762,-46.237492013111606
5.6712499,6.646977098694459,-6.119559554027246,0.8584324278253562,73.96412282785155,75.74068212306624,-42.6415725338246
5.6812499,7.067109812697491,-7.411421641013124,1.0367962960992114,82.91614210712429,73.6271495350433,-34.69803819079279
5.691249900000001,7.016118944001872,-7.258261953866243,1.133421378193774,87.44039208460933,68.14311780399441,-26.035368033837038
5.7012499000000005,7.2960875727341845,-6.758567898891697,1.0959952783820937,91.43763263855489,62.80644297761362,-20.46788411102324
5.7112499,7.5822162269147615,-5.944005569627051,0.9026865489146348,91.10400302771725,58.16938145623992,-18.536122636222665
5.7212499,7.685171530718213,-5.134574645556122,0.8628579304372166,85.31588365685343,53.61921000063436,-19.556491601216774
5.731249900000001,8.116279114837457,-4.774192521770876,1.02770903581432,77.3310662627986,50.50880888671682,-21.930026764606886
5.741249900000001,8.526044650181401,-4.666201545173772,1.2414582093940527,68.48678353377856,48.352356897199286,-24.283081631604194
5.7512499,8.531159251298075,-4.701940792750463,1.4842936958592226,59.774181080847875,46.53803523054438,-26.232523503675345
5.7612499,8.52036409116,-4.733429506204427,1.606794065897389,52.5741244125603,45.14165376787526,-27.448065832245586
5.771249900000001,8.658251639509416,-4.777488116601299,1.5846425205595658,48.7740421863202,43.43834385936124,-27.981432311342306
5.781249900000001,8.703805664392146,-4.811402315903,1.591362724747057,46.08146908773374,41.32654065400013,-27.506587155826836
5.7912499,8.773302599358855,-4.879655880761224,1.7151369446094025,44.020512576506775,40.166033239583356,-26.102960762872716
5.8012499,8.920869213061016,-4.8935285682380005,1.9964319606937257,43.125833057620994,39.85216625251253,-24.43007893073754
5.811249900000001,9.000345524690337,-4.9130261009514395,2.3539705763949397,42.591649746294564,39.64723861740404,-22.767053329982414
5.821249900000001,9.076317425040152,-4.93052412566375,2.6461608245339527,42.69882406527446,39.81521847424047,-21.57085358389716
5.8312499,9.108312994134227,-4.973902863246005,2.8466342103838427,44.47207908250536,39.68914674975253,-20.996824622289676
5.8412499,8.923460535002203,-5.071283770707058,2.9714292946541443,47.87725296973948,37.88641187242034,-19.986210761140885
5.851249900000001,8.733714150312212,-5.069456323579389,3.0233981458796513,51.18499890840453,35.41805420010722,-18.54496449041239
5.861249900000001,8.54818793596138,-4.991802050205784,3.1054276237629965,53.99391141088079,32.25750839152817,-16.73326365478498
5.8712499000000005,8.3206846592257,-4.838908561197763,3.066312419406043,54.88610750996759,28.20441771420607,-14.469566614858428
5.8812499,8.146962983631356,-4.6253933514569905,3.023288169266756,53.59815219597351,23.777985484487424,-11.99027834174796
5.8912499,8.076434623496082,-4.361651628797463,3.0964504410456066,49.539386175409604,18.99901410581672,-9.526495570964713
5.901249900000001,8.141080195546841,-4.05375999222373,3.122306646165993,42.42019554616592,14.759631278461656,-7.232819509384019
5.9112499000000005,8.196629227133313,-3.7558155845537686,3.1717797922886044,32.625285777013104,11.263919097436082,-5.1255869074515585
5.9212499,8.175176128356854,-3.5027084369488337,3.4000829791303313,19.601059945541767,8.285642407413969,-3.214429825383887
5.9312499,8.065857066608636,-3.3658058713817285,3.6594921032629926,4.319350701757367,5.732339198879019,-1.8714243553201204
5.941249900000001,7.8808187106275716,-3.322829922875593,3.702504298123461,-11.779656996759927,2.773874670767635,-1.253418230470059
5.9512499000000005,7.713941229483015,-3.4668547194404287,3.5587418400719013,-26.99239642526325,-0.8389110327526462,-1.1621585910872918
5.9612499,7.639451533691706,-3.795897024383119,3.431029034631552,-38.984918311557124,-4.551628347651605,-1.2169001688209111
5.9712499,7.614912601030859,-4.186188645795765,3.395143646596079,-47.2205251228649,-8.019535052832941,-1.0539347236087715
5.981249900000001,7.657685590209741,-4.545352020735626,3.417366609527365,-52.093065213486,-11.01142942275253,-0.510946835240663
5.991249900000001,7.8224343296802195,-4.77312951538925,3.546157241728165,-54.015190439011256,-12.909270054496728,-0.020112907111964277
6.0012499,8.026214203565132,-4.8401531405679,3.7022757714050423,-54.162754090167105,-13.481892301004756,0.04820301947260179
6.0112499,8.1793701673657,-4.890495595079412,3.6811265271697486,-52.15432802156646,-13.24789679290848,-0.045295623032729035
6.021249900000001,8.296084019749246,-5.095714684237662,3.591521116680139,-47.76388434965471,-12.494259099366962,0.001038488509879144
6.031249900000001,8.38423706314368,-5.2953541714794525,3.5603125752927047,-42.10947013744351,-11.156854693750523,0.19243609857654814
6.0412499,8.423493767571026,-5.332581255587536,3.5025362940044267,-34.73836609459943,-9.409381177066635,0.428924145479506
6.0512499,8.402119953605457,-5.24853583374935,3.3362348812981217,-26.722526220190144,-7.915893652344639,0.2608343007212199
6.061249900000001,8.36249437305948,-5.136490627754524,3.1748456197000947,-20.18408897069871,-6.942081317228987,-0.39860140006047046
6.071249900000001,8.310819223027973,-5.031654485325885,3.137823464756431,-14.896513806442181,-6.093360342864427,-1.0776460809953816
6.0812499,8.279141008140982,-4.941274271834319,3.12540366590316,-10.613524700625703,-4.87617465295798,-1.800531213148796
6.0912499,8.285617447311553,-4.832399635190698,3.01542796410473,-7.1626023944656945,-3.78632097878007,-2.3941409473204165
6.101249900000001,8.3123690465962,-4.753775241840405,2.9214553374302574,-4.079685906491734,-2.954597984700058,-2.9097070115916073
6.111249900000001,8.313036281536505,-4.804517462792759,2.935093293499472,-0.5671591691669994,-1.8360797946095047,-3.3742137947024284
6.1212499000000005,8.271188408338288,-4.971792409331983,3.0102564877245013,3.2831230661931463,-0.8587753029964131,-3.4917232224036683
6.1312499,8.23424253265616,-5.1520239161591155,3.000974258601626,7.1047009964638095,-0.21140260410818698,-3.120044696418589
6.141249900000001,8.133477367880847,-5.196555613273506,2.867222398295811,10.627713430571761,0.06102195385074312,-2.549958750776736
6.151249900000001,8.088620764190253,-5.079888355444531,2.807530073815536,12.620298899552498,0.14333717297751036,-2.2862183458330483
6.1612499000000005,8.186139376976458,-4.8474350726536946,2.878811998288795,12.463720380598923,0.40922300114296223,-2.4165062844095884
6.1712499,8.251707649459059,-4.553844035558426,2.974488813872531,9.803078349531924,1.1020109097437876,-3.0599938044314667
6.1812499,8.224644974298046,-4.367487147727137,3.0669190332788387,4.597755942163755,1.8083263451287932,-4.103097467847689
6.191249900000001,8.138637161518705,-4.357001101548831,3.05279899307107,-1.4978001683356748,2.0843965081159137,-5.0763386490647795
6.2012499000000005,8.003175459019342,-4.412479068684877,2.914140130139855,-7.09167437193223,1.7453106032299044,-5.80391689414669
6.2112499,7.907197692329768,-4.505459602019923,2.822232445676222,-11.876259460339694,0.9421544358697992,-6.167208897680032
6.2212499,7.903766489906204,-4.6443346455312655,2.89541871636813,-15.127512369842377,-0.08452571875937626,-6.350951403891643
6.231249900000001,7.964357668284239,-4.77969078253735,3.0222292028275914,-16.450867553487424,-1.1656728027682257,-6.4451910148887865
6.241249900000001,8.047895959311559,-4.87535013497318,3.084448182242149,-15.92667016041438,-1.995760834135012,-6.116753366955747
6.2512499,8.153524023879134,-4.982976858425833,3.1765345365841906,-13.289165980520064,-2.5530528606186604,-5.064358407265313
6.2612499,8.25947211077548,-5.054626431555051,3.2203160920503806,-9.296940350902904,-2.819653602842965,-3.7084377724858326
6.271249900000001,8.273898518365634,-5.031286358338053,3.148323510171536,-5.138101414260606,-3.0435124301470022,-2.290519898260486
6.281249900000001,8.230555752859335,-4.905718776602061,3.037496763216757,-1.7058007137940432,-3.3823220101099687,-0.9408498169672511
6.2912499,8.148584238372658,-4.724673086969526,2.883924240746059,0.4508722522995194,-3.5736248883734287,-0.00198625291269191
6.3012499,8.067801185895323,-4.592135405311362,2.7544038592893783,0.834413880220267,-3.6935726158076276,1.015564493932477
6.311249900000001,8.029666318161798,-4.527138637802615,2.726086367570983,-0.4235626736709237,-3.4247655598372253,2.1590140546218786
6.321249900000001,8.0247291990417,-4.485003137951931,2.7878961412681513,-2.4032679507453025,-2.7548777477731066,2.98346274133965
6.3312499,7.996624759171445,-4.444318036306466,2.9039637198236834,-4.434505110208468,-1.9379908498842588,3.721817947145154
6.3412499,7.841621551885154,-4.495837576847534,2.9846755841808803,-6.460958317401601,-1.2015576858083454,4.827100734370753
6.351249900000001,7.588422642622696,-4.657156075539089,2.9507063027698917,-7.752065486962479,-0.9730735785147114,6.049432560911113
6.361249900000001,7.38141689132321,-4.8417217693983385,2.9280059181490365,-7.925586353553466,-1.3358555485203123,7.377937815776994
6.3712499000000005,7.226884990832323,-4.9837894251641535,2.9616745581554142,-7.120622403557871,-1.9876192150358836,8.80911966127453
6.3812499,7.053455359151818,-5.0562512075817825,2.9564097164405236,-5.520647002332768,-2.738441562286431,10.24553785491519
6.391249900000001,6.910674932094579,-5.027654860205516,2.907132996769944,-4.044912389506511,-3.5422256044529465,11.808216020075418
6.401249900000001,6.8437034530196925,-4.949585837809591,2.805118989808905,-3.1427905589045855,-4.189318689381681,13.759064623959583
6.4112499000000005,6.802026204807916,-4.897448132403617,2.6160306266469235,-3.1803178814971176,-4.811274499769904,16.15368913561942
6.4212499,6.752114767946424,-4.797185637580486,2.2910404539282196,-5.420945268058975,-5.148138537683114,18.918144562924994
6.4312499,6.699206812118729,-4.618637507954603,1.9260992446678782,-10.865604432416863,-4.834464310721118,21.518656136150476
6.441249900000001,6.571678164515939,-4.464375192186355,1.6863957688579079,-19.505427417447937,-4.198715103970686,23.499507460644033
6.4512499000000005,6.291639845809606,-4.47483395863886,1.4114954533421433,-31.15818360877796,-3.54674826129924,24.907965497367176
6.4612499,5.815867994269503,-4.677998690068206,0.9117770471908001,-45.79202220395761,-3.198606333147136,26.324789630312093
6.4712499,5.382250223422863,-4.868199842506984,0.39248761583675895,-59.7069967754049,-3.0264971731893713,28.39313927530245
6.481249900000001,5.118942085564831,-4.975123175265634,0.015082455647159217,-71.76298390605761,-3.016053485698621,31.10500460295511
6.491249900000001,4.8709183523185775,-5.120626718982914,-0.22589303387222767,-82.28529474294213,-3.2805018457794515,34.90776775531559
6.5012499,4.657526567045658,-5.355565233611466,-0.4175980328926759,-90.28944626361036,-3.1936421665189054,40.32320594859675
6.5112499,4.554345526628224,-5.5444105742111995,-0.593672645951378,-95.98894219439488,-2.216120904613993,47.52784768248754
6.521249900000001,4.461157095951101,-5.548386091798079,-0.7401344125223694,-100.0829896933835,-0.751456457496318,55.969242519915284
6.531249900000001,4.406708922059254,-5.483619094791417,-0.8840442469354766,-103.36971388246559,1.1909050766778222,64.95268930218116
6.5412499,4.403963036903215,-5.462883198989358,-0.985169232822707,-106.330385158356,3.7619978188414027,74.20370343543786
6.5512499,4.366355378891133,-5.418030490485174,-1.0344797730373676,-109.14023269123562,6.3796683703945956,83.36646690889354
6.561249900000001,4.302652058942814,-5.439471086340327,-1.151917578989556,-111.76293665818153,9.101426052178985,92.55037962086624
6.571249900000001,4.2586285200740415,-5.598257262946653,-1.2748975890170737,-113.38812567496727,11.90762413902058,101.77284860207249
6.5812499,4.1600111177282715,-5.800541851197004,-1.269535523578681,-113.82180407128111,14.380595404691501,111.3879044785646
6.5912499,3.881193914877471,-5.972705716342381,-1.3492690133301442,-114.1966370458698,16.319226088490282,121.84994341145324
6.601249900000001,3.6060229724623594,-6.150043493848505,-1.5283441753176454,-115.73721100099641,18.450803523530766,133.2523397057623
6.611249900000001,3.3799987115307633,-6.311585609972878,-1.6257707909703545,-119.64973627138187,20.921050022614246,145.4548917627259
6.6212499000000005,3.0070014533463283,-6.523851564872399,-1.8340013890583327,-124.86220682075742,22.174048003235267,157.35889135540654
6.6312499,2.685778625828798,-6.860169832996701,-2.2180760725327864,-130.09482966813025,22.254786109754598,168.87752836565068
6.641249900000001,2.536903362285662,-7.26885067730567,-2.653721784116424,-135.37023587205624,22.23075809716509,180.67096801037306
6.651249900000001,2.469086681645,-7.701960251812468,-2.9931913591777612,-140.66593521537345,22.12781196191083,192.1680141466059
6.6612499000000005,2.492874315819587,-8.096063098683242,-3.258001238288001,-149.42546146133407,23.000150814093967,204.06237838729527
6.6712499,2.479085586255949,-8.404150044887807,-3.648220727064746,-163.59348459840615,25.0449054048075,215.29563213430268
6.6812499,2.3337903725023668,-8.84072973192048,-4.135975453531561,-179.28740604553158,27.12360189327175,223.51420736439792
6.691249900000001,2.266957880048267,-9.63324790062493,-4.596372535289506,-195.9161200865567,28.791088930546668,230.5787357488443
6.7012499000000005,2.359112430515518,-10.722691569906164,-4.998463781677458,-212.9962310235439,30.32526142795793,236.47594346643305
6.7112499,2.41883212086915,-11.94726140030191,-5.401198093964491,-228.80895166676922,31.264730404329775,240.60421994310772
6.7212499,2.4879958804662388,-13.363517120593851,-5.8109849221095145,-242.14632993684987,30.857122405047267,242.84192394721146
6.731249900000001,2.8205805561343174,-14.928923512579376,-6.184245852577205,-251.1413144772441,29.17256708022577,242.95273353536768
6.741249900000001,3.493738219052307,-16.559093893442448,-6.604487652747744,-254.39283348938858,26.833735658806233,240.59945490729945
6.7512499,4.355967748807579,-18.36617703000854,-7.136097934961904,-254.32747034276684,24.196277594314715,235.5265797830094
6.7612499,5.3563353586779625,-19.92189081417695,-7.79185195419139,-254.53314407510717,21.429912450420474,227.0062898143714
6.771249900000001,6.6574599413798285,-21.01927877580803,-8.50716529755417,-255.7985784237429,18.975281005172956,213.57320421523713
6.781249900000001,8.370695955190566,-21.98086579475071,-9.05611231616476,-259.87248892729224,17.822500153251436,194.90725590325283
6.7912499,10.221893878668757,-23.07719162515776,-9.435565806336106,-265.00748204979476,17.69888474070615,171.04659789420643
6.8012499,12.259553761941952,-24.12679306585628,-9.616716305641289,-270.9747346392553,18.289811896881407,141.30226835178553
6.811249900000001,14.672787515008004,-25.161488532981117,-9.314111008094942,-279.4391167833376,20.840542023867826,105.10851380872374
6.821249900000001,17.224485155249976,-26.310231743083563,-8.805206938730224,-287.3547700399796,23.160055714262516,62.64835900832504
6.8312499,20.71170461413178,-27.227794676229195,-8.28506251959977,-291.8125689274755,23.931342930880657,14.061074704030222
6.8412499,25.742382289331257,-28.13252368535279,-6.539130298849491,-288.21100391725463,25.136708159562673,-42.16282810709242
6.851249900000001,31.355545969365423,-29.575008446891207,-2.8025548193254535,-270.32645729482095,27.98305948402116,-104.5649277717791
6.861249900000001,35.933107311271336,-31.960324356806723,2.725404732388688,-231.58475372932523,29.37671815579185,-174.23405106783528
6.8712499000000005,37.604857276649035,-35.34487820144275,10.387174159292849,-170.8689497707684,26.87151142665536,-261.3303163787951
6.8812499,34.42635946916738,-36.97896251791583,16.71507455155373,-126.26793766208614,22.459355386359395,-346.92617548501346
6.891249900000001,26.88335423565326,-36.5267809844931,19.901407278461544,-125.32348840640394,4.569306884320321,-424.655474824034
6.901249900000001,19.151474214362402,-38.14017128133357,21.560864957365496,-145.59258752523806,-28.568510297657543,-487.1474627891014
6.9112499000000005,11.32867446531911,-41.819614378016176,21.823410427639278,-157.12401583758344,-69.08588818680332,-502.5592187442519
6.9212499,1.868440019929359,-44.227956245954005,20.814860649920902,-153.99310475872778,-120.34268397990078,-499.08791344114036
6.9312499,-7.985302492305505,-44.03210193294146,18.172218884468762,-149.07026321132992,-183.59090570955425,-500.1015470981036
6.941249900000001,-17.471613744497457,-40.20521345614859,14.028775088235683,-142.59412981200876,-252.24207480869487,-500.49173547335226
6.9512499000000005,-26.493604311577368,-31.578196414790874,10.564356903035923,-128.24120787560014,-315.0145956817092,-498.46086325503325
6.9612499,-36.35708701657001,-20.981123454546346,7.655314272839716,-107.02881059355919,-359.3680073123108,-503.04014395022364
6.9712499,-43.75478544749448,-11.024012281360877,1.8974500526235425,-88.08839505221086,-366.9104742526811,-491.30281269352605
6.981249900000001,-44.231978307164205,-1.2672272307011134,-2.3204053175776527,-79.39908553492951,-331.42336395661806,-406.09010187199306
6.991249900000001,-42.479896223672434,9.25357243734146,-3.6684415105326624,-83.5106341620527,-265.4495691907158,-302.68455496681014
7.0012499,-38.53724035590092,17.358044952864724,-6.350457280846906,-92.33723985218016,-180.91192820522014,-233.41805126065668
7.0112499,-32.39650909598362,19.149726205874412,-7.424556334824338,-88.45330365705185,-86.54471444476123,-176.2229319611879
7.021249900000001,-28.89675203636637,15.831235116371204,-8.375758455442233,-61.96858705949456,2.1721453703977436,-111.84020372476783
7.031249900000001,-25.852047954675655,10.305126694093236,-9.35400220622463,-8.681382042198978,68.81384812534172,-39.12566288396537
7.0412499,-22.473616711201924,5.236702781185351,-9.098737593003273,59.937057552015105,112.52051017355447,29.27397440733882
7.0512499,-20.137129944602066,1.5102228822803416,-9.20973828790886,122.56731387582808,139.18078593391047,80.62836388769728
7.061249900000001,-18.562265142588572,-0.9801010900913973,-9.886802585466036,167.48013922708498,155.69546572326695,108.34695833707718
7.071249900000001,-16.216729944331995,-2.5111304225283555,-10.393405505065722,195.03426477899862,159.8994795221233,112.82222101360496
7.0812499,-11.553009883098172,-4.1415664220064,-10.248847422630941,209.48502279809477,148.09504926732487,104.08785132334074
7.0912499,-6.275004056609688,-5.697800216452475,-9.976108664686695,213.22760881715936,131.04324070958552,96.73864179682583
7.101249900000001,-1.6603665098440612,-6.577813373551175,-9.875146255398034,208.49465984284166,117.18749152869628,95.04768095211426
7.111249900000001,2.041653492351699,-6.957311290514108,-9.573348224030386,195.92212665416284,106.48403726216556,94.93590362823686
7.1212499000000005,4.5916977364317155,-6.774770889845185,-9.328343546570144,175.30748073413014,98.93811461892128,91.89109014796978
7.1312499,6.270648755715801,-6.529636374608824,-9.34782877832072,150.17373062649986,95.3911176823019,84.08746053062828
7.141249900000001,7.232236584816872,-6.730583451629429,-9.252227558151407,124.89419214379313,94.37544410810952,72.56382596646182
7.151249900000001,7.390297289982637,-7.366577816474776,-9.045955372074713,104.46792514938603,92.65628324888172,60.213767133868664
7.1612499000000005,7.242064011161359,-8.312087049976856,-9.051819818311733,92.30021091970963,90.53531842983665,50.336576962188424
7.1712499,7.2802728302738995,-9.022088297367793,-9.047212639479847,86.00987030938259,89.66539474830732,43.30966891335958
7.1812499,7.317726316573667,-9.008907834852225,-8.818581737920328,82.5836556577711,89.8205292234289,37.06784738510056
7.191249900000001,7.122861849978642,-8.424506557369906,-8.536848850730491,80.42262031481259,90.8006316040578,30.006847306393247
7.2012499000000005,6.963910963535531,-7.773187317557746,-8.170222502282648,78.96274329283652,93.10638054205258,21.56172206040122
7.2112499,7.124844141170878,-7.309115254214987,-7.6770910392793015,74.85689310535871,96.55729396211838,11.965554267375394
7.2212499,7.500302515675683,-6.989721056984691,-7.0903011708474155,68.68779740241087,101.29549541471904,2.1882152090111755
7.231249900000001,7.521413103210273,-6.951974510120148,-6.527330626309464,65.1727800551822,106.25574125853936,-6.77887910610779
7.241249900000001,7.106244711695925,-6.7759230154682575,-6.094050339541771,59.79899884965711,111.57002501108852,-14.281023378161576
7.2512499,6.675209218846064,-6.771693425323375,-5.7114421019926125,56.73427429392533,117.5699672047665,-20.09786003737414
7.2612499,6.34024204242083,-6.740031959161094,-5.501548777858831,55.29751600879442,123.93021534476223,-25.342255419690268
7.271249900000001,5.940254759742437,-6.014054932555499,-5.269703569919185,51.54858397716364,129.47012606101893,-31.08990307218199
7.281249900000001,5.388549627431149,-5.751892966768057,-5.0958059237666395,52.47893761662843,130.75617184368807,-36.63678038233978
7.2912499,5.233682750844369,-5.997241257291104,-5.204025684545108,57.93241653487481,127.99791786821879,-40.38509535426732
7.3012499,5.443195474250392,-6.053690600328335,-5.166548817070625,62.89296720514673,124.16502573809032,-41.4476274736496
7.311249900000001,5.586753749578764,-5.802941225744089,-4.946138365694083,65.94347929589105,120.82349918226656,-41.842681552010816
7.321249900000001,5.689909825352778,-5.278962872417172,-4.711154413235816,67.59726407734712,118.41184159062318,-43.414364558228435
7.3312499,5.815462927539357,-4.784050603535711,-4.323910020833663,67.64477181761602,117.74944418958876,-45.878070166336904
7.3412499,5.824352045458898,-4.6510604017635195,-3.856602559255264,66.12578517456848,119.43179470669239,-48.213892823016614
7.351249900000001,5.685069930155367,-4.607682465765117,-3.5443721707941673,62.72875336617086,123.11592775815376,-49.66311897633938
7.361249900000001,5.6156301473287575,-4.356872270140051,-3.3699077868990677,57.20741017962896,128.35101173939458,-50.46994247681535
7.3712499,5.815332019495082,-4.319921470896569,-3.2284134463221466,52.32690801921491,134.05907677710812,-50.312325252339406
7.3812499,6.101119244054121,-4.50774397692251,-3.1840781755739127,49.441161873973996,137.6304040166306,-49.19189069880125
7.391249900000001,6.382833422394114,-4.547114884959056,-3.1070732676214643,48.73841109346442,138.6525329027282,-47.394104203799714
7.401249900000001,6.539723412923513,-4.5133440211559055,-2.7915764750207277,50.15788975174861,138.56748291380546,-44.86943712097203
7.4112499,6.49910518200994,-4.555924502510666,-2.4745084638769845,53.035956170798684,138.47742231993635,-41.51779516923573
7.4212499,6.444702238942029,-4.713959869669428,-2.4179577962703074,57.95008762116813,138.8548222225968,-37.06960157233411
7.4312499,6.498737946455738,-5.052165975342313,-2.2726599128892144,65.67659172535055,139.5210881925688,-31.17778164971363
7.441249900000001,6.550921241234299,-5.211561186018757,-2.08349190125995,72.98214716615882,138.50947518102853,-24.615021041089378
7.4512499,6.796836521944584,-5.057007016648132,-2.0688332779222427,79.53844822155673,135.27459589168802,-19.437530227144673
7.4612499,7.230282159192541,-4.943610911787481,-1.9685127342494846,87.22739790444246,130.59690834658892,-15.997605412054332
7.4712499,7.429696153143959,-4.844031285392405,-1.8813541410629468,93.89792735419644,124.6318053243576,-13.551194152811746
7.481249900000001,7.478998100114922,-4.919797083506768,-2.0509985965081823,99.611304919295,118.5412062719501,-11.40787201535897
7.491249900000001,7.710929605968115,-5.103139997037297,-2.40233782369727,104.16646299270325,111.53112026511056,-8.304236628743666
7.5012499,8.05682675498145,-4.812391397806573,-2.7530532589912844,104.36405896933488,102.22818936096226,-5.505301793244088
7.5112499,8.562261384817255,-4.364357572743285,-2.8806125471062476,102.03024305739692,93.74357825351913,-5.280599280369364
7.521249900000001,9.226397097058992,-4.163179273267443,-2.7908293601072223,99.09944664528447,85.86890087115248,-7.0413651917845765
7.531249900000001,9.902602635177,-4.218441362700313,-2.6042879198248814,95.95792223487753,77.59760307759664,-9.07299286392039
7.5412499,10.457959114393821,-4.402538961339464,-2.437625242565853,93.33716054896232,68.22537474796604,-9.756902591243886
7.5512499,10.91269818722974,-4.5993568000998595,-2.4208813081277705,91.63567496109064,57.91718538783531,-8.777593266384889
7.561249900000001,11.238934332060033,-4.6405055024913455,-2.473384417550627,89.64585060498423,46.662283729409964,-6.3216711319478645
7.571249900000001,11.442077327708393,-4.415341956986621,-2.540799663158211,84.94959760168703,35.25055561216222,-2.9560787531361807
7.5812499,11.419991564380858,-4.096538833007385,-2.701885938237782,76.32967267272679,24.400682183664838,0.18888246879920753
7.5912499,11.234885782288414,-3.845644903555473,-2.7738077790616726,65.034063732081,14.62749675769667,1.954664648868988
7.601249900000001,11.065772510668227,-3.680273169478322,-2.5379407801609437,51.61765583743759,7.001331317901362,1.9714824468150542
7.611249900000001,10.94847061932071,-3.6356638263979715,-2.0754415562071036,36.660603297218636,2.3289375420443195,0.34085225429878985
7.6212499,10.772587792280069,-3.790674679585276,-1.5570648599630634,21.98318759027254,0.26378815614833245,-2.645921254460666
7.6312499,10.443704375274523,-4.074865922603842,-1.0175312521160609,9.101426297966073,-0.09181627570792252,-6.235949501839518
7.641249900000001,10.063420464828095,-4.5388826753355085,-0.4114023189929617,-0.7708798519618998,0.806940894191806,-9.511466270177886
7.651249900000001,9.621143715492432,-5.104761442969264,0.1777395862874031,-7.267815648135845,2.2445399950758884,-12.17660467440023
7.6612499,9.041345379035063,-5.571847369827375,0.552933486536625,-9.922049735935799,3.325772990187739,-14.167285701707717
7.6712499,8.41082421641898,-5.867685454898515,0.7757897898956312,-9.081715459597227,4.050613827667617,-15.724180239726481
7.6812499,7.916692404652153,-6.106712893497839,1.0130689703141753,-5.155328151764774,4.118859971138882,-17.166889074332495
7.691249900000001,7.5868805858193005,-6.35462175466983,1.1432599395225271,1.2605794915545292,3.8373402876943428,-18.03623510662773
7.7012499,7.236480034763637,-6.499477306260349,1.186305191204633,10.599161199485906,3.5510351391110886,-18.3910571318775
7.7112499,6.938321756630044,-6.377301492595227,1.2267199801877697,19.436375215604603,3.7261663188610177,-18.577507696299907
7.7212499,6.892064569502053,-6.016270781745896,1.166253762144842,24.568394155101675,4.192241432572983,-18.46608263242023
7.731249900000001,6.98932546636192,-5.618621673246832,1.1116979586599045,27.702972276066426,4.6427412685405,-17.626929269194747
7.741249900000001,7.1978492250791435,-5.257148346452348,1.1603897080590266,28.26476943744172,5.881412678770572,-15.781890316338037
7.7512499,7.441878468214589,-4.932242466773123,1.2293049338456454,25.99025123553532,7.968053303955119,-13.05903582849033
7.7612499,7.596663358740898,-4.599178418566725,1.2615550382286786,21.278090405502702,10.616853543198415,-9.879958112659443
7.771249900000001,7.6945697148037775,-4.170131303786255,1.1904709772051945,14.040243237258691,13.392326400512847,-6.750377896066515
7.781249900000001,7.805737876367644,-3.8338577137035945,1.0562416924643407,5.896397671522225,15.675923823115898,-3.725229870636083
7.7912499,7.927039247648264,-3.7264433872058964,0.9641567656500375,-1.7133002453346802,17.03011012023489,-0.8072882580870665
7.8012499,8.056354854286905,-3.7323077525938455,0.9090959793328905,-8.564149738462438,18.018095890913735,2.287160890843676
7.811249900000001,8.149412702810565,-3.7614572650760967,0.8979617165417536,-14.263713342746279,18.448767093598033,5.206373443633497
7.821249900000001,8.32257434812604,-4.002464109964099,0.9794094222249415,-17.70890364668676,18.67029153224119,7.613589117813499
7.8312499,8.535427040483661,-4.293541450435509,1.0326332160122815,-19.37644216478197,18.815366328806842,9.664952968204645
7.8412499,8.64899902739681,-4.487331247430763,0.9915993980563287,-19.70647175816553,18.57006249322114,11.472539859771292
7.851249900000001,8.737494533626217,-4.816627472320424,1.0540915411206675,-18.62250664237939,18.00578179367069,13.209604377611884
7.861249900000001,8.85071352944401,-5.177363142459364,1.227694863195093,-16.93414295696922,17.292464462640428,14.88481667904329
7.8712499,8.904866366893067,-5.409378552425528,1.3446416539354735,-15.389172381381826,16.43215366956126,15.887999867134106
7.8812499,8.940629500252259,-5.649996576865035,1.4138381288075161,-13.806118289567168,15.130872636715125,16.273565181491936
7.891249900000001,8.952700154171424,-5.924104939900006,1.4448505458106435,-11.780021770166652,13.100580437354594,16.412228552565264
7.901249900000001,8.863177931847245,-6.063272292052514,1.3663834917759017,-9.464037431449613,10.391797742913578,16.05871238449741
7.9112499,8.822021618720516,-6.008071546829071,1.1663726046627108,-6.930326596710228,6.902850225688412,14.387551205593152
7.9212499,8.899727738387568,-5.951761391916533,0.9391720638370795,-4.409539501572378,3.114513191913881,11.942347914783827
7.931249900000001,8.96110869627151,-5.881784722465266,0.7679554043115968,-2.593135729409417,-0.08725776799398853,9.837121600001117
7.941249900000001,9.059001815539116,-5.6498577331521105,0.6662957296135265,-1.61056709938264,-2.9428054767268463,7.823369640187781
7.9512499,9.207407042455738,-5.419657137260595,0.6222299979724266,-1.372385974222787,-5.163599986709799,5.647492958105029
7.9612499,9.20198020381067,-5.312707767071632,0.5366868398123454,-1.5969535780327466,-6.7453499724626775,3.4025035362483695
7.9712499,9.090904293830683,-5.238579112743587,0.3613468759427048,-2.490488946565288,-7.946332941349123,1.7060598902897022
7.981249900000001,8.946590035266844,-5.179567882720385,0.1605432570496219,-4.143689000986237,-8.895643509977285,0.6753535607280406
7.991249900000001,8.789946654715656,-5.183270954469928,0.09566697988999527,-6.015088324868427,-9.65892933924431,-0.3120523990883055
8.0012499,8.735931923577386,-5.186343440476028,0.19829196298256638,-8.051222287230331,-9.857085908642834,-1.6680803918739775
8.0112499,8.741049738336926,-5.197251537035141,0.3590053865176509,-9.992980344502975,-9.0898975220694,-3.4300314041455726
8.021249899999999,8.63857934702304,-5.2901722549105825,0.4837926455405341,-11.33484163551168,-7.445468560387643,-5.5422485434768785
8.031249899999999,8.408465589734496,-5.41081613795729,0.48629154313193756,-12.059782433637437,-5.757452578100699,-7.344391540212368
8.0412499,8.155919916163745,-5.548578824830599,0.40621365408972904,-12.078571107925406,-4.372312709360389,-8.699131530694535
8.0512499,7.978611599571839,-5.600537777356642,0.4023286214726206,-11.428241477249726,-3.36734044446509,-9.600789047353903
8.0612499,7.929446129368241,-5.552952114817594,0.4986771150022011,-10.525364631097922,-2.2376365684226993,-10.022971756266305
8.0712499,7.929110299895493,-5.5582070691777785,0.6211739438691004,-9.053619702068092,-0.8771450563609894,-10.090137230520282
8.0812499,7.865716308630563,-5.5620364300891065,0.7105241235108033,-6.82595732181636,0.6630705490336992,-9.779140617063412
8.0912499,7.721743616308864,-5.499283181885194,0.7116412403580068,-4.114257353299642,1.8766090399994748,-8.600376676065164
8.1012499,7.573897363919761,-5.385994609770889,0.6027450142261906,-1.2630510070300531,2.350008303425517,-6.8849873722142805
8.111249899999999,7.490719329021348,-5.22402871114251,0.5089425246299546,1.0327588331957678,2.314326414359727,-5.06922081072632
8.1212499,7.487246346589962,-5.0336034420780615,0.4626214897372652,1.811586973563255,2.2726045988468506,-2.782673372384898
8.1312499,7.504162055722589,-4.864266270433538,0.4192213621920772,0.8213432970589402,2.4192374437263195,-0.5052029924289427
8.1412499,7.545309445610048,-4.825007356317104,0.4319526283551141,-1.0713137788535922,2.5637251237712335,1.4625129704824322
8.1512499,7.60746764737219,-4.850154557246988,0.5191679400545044,-2.918940398436861,2.6343489012022845,3.417583504068292
8.1612499,7.649415011640247,-4.9273794757387055,0.5841965689672771,-3.90735315453146,2.764848078212307,5.440241801701328
8.1712499,7.654293370821653,-5.076821432529691,0.6309485839754894,-3.4349700744789247,2.68331541728371,7.592179262911002
8.1812499,7.570371281826499,-5.1817164633046895,0.5738362136179043,-2.03017676448658,2.2545195185164415,9.967340023602205
8.191249899999999,7.460846123546782,-5.191151234045442,0.41934547485483625,-0.21497064128294377,1.5347647562388542,12.443994845605303
8.201249899999999,7.398429734762881,-5.195184113468473,0.3734306506607422,1.313912952685373,0.7029787735861925,14.84547611119214
8.2112499,7.317898581174091,-5.236928925460707,0.4029289407758757,2.358062720040149,-0.12034459576651606,17.241297627916765
8.2212499,7.190245869627771,-5.268556106603771,0.36181633979048206,2.6541394618196374,-0.8022263923114477,19.90784745785662
8.2312499,7.013937512518278,-5.2065651905264705,0.23774926615496036,2.154995662937343,-1.4187182962122304,22.41559623600657
8.2412499,6.8311502210687145,-5.117851973084743,0.11760901699422514,1.4566878621715433,-2.4282484295983062,24.980924722138287
8.2512499,6.6641078272548855,-5.045551844816307,-0.00374372891685194,0.4222330999253209,-3.6522809810626238,27.86554465755053
8.2612499,6.498838279877971,-4.997121726821255,-0.16251439376353435,-1.0340598907019132,-4.633343949281514,31.204504107193873
8.271249899999999,6.355530297869344,-4.915437659814771,-0.2963811190057932,-3.1473662339213404,-5.305243073173832,34.8848583948071
8.281249899999999,6.2332204116542895,-4.765967962069111,-0.4019102651670921,-5.790005199714311,-5.820544925728372,38.537046478753545
8.2912499,6.12858162196256,-4.659540111526362,-0.46671684375357375,-8.739881857794819,-6.040217037373772,42.4828344012912
8.3012499,6.0217858073461095,-4.6983136179411735,-0.45889285527913554,-11.172644460008174,-5.510684542255203,47.333349075311766
8.3112499,5.728114179003369,-4.730623127390996,-0.442669051896442,-13.203691249133161,-4.899312659208429,53.431515774324545
8.3212499,5.24506411322984,-4.771788111729225,-0.466121301900699,-14.625365048161608,-4.934336365422248,60.785446423529834
8.3312499,4.669921844335288,-4.913535845372715,-0.4816694971139831,-14.851809100666904,-5.8516237711200105,70.06028044223767
8.3412499,4.014734162451574,-4.949435516955784,-0.5456316062265717,-14.74662149627917,-8.207811002515788,80.39451396823068
8.3512499,3.4171439029172554,-4.968192730648233,-0.7751183899970323,-14.400018032456263,-11.585821965659006,90.5599530431756
8.361249899999999,2.972064673756578,-5.140262395416537,-1.0175644891828683,-14.089546902001782,-15.470126343492666,101.60973983780826
8.3712499,2.579517455466424,-5.134390029242791,-1.2421249831450218,-15.659004527918333,-19.492076731396192,113.64125520349599
8.3812499,2.250236857999091,-4.996896901954012,-1.5548694255959583,-19.199488516999438,-23.00574673576243,125.71172286700654
8.3912499,2.0224894935584365,-5.006699761015764,-1.8507886993659144,-24.338134788072594,-25.94902983732341,137.15586980117422
8.4012499,1.8270753988925847,-5.11486427098737,-2.089916068816619,-31.625537981240655,-27.920063880785758,148.37732595943604
8.4112499,1.5983554078802784,-5.3317746671173945,-2.5031615875296542,-40.603684134093754,-29.236831168364695,159.80625529230986
8.4212499,1.4957803898085844,-5.663138965471843,-3.146467111473102,-51.36358261490431,-29.70831750341838,171.2285566906678
8.4312499,1.4923179345303583,-5.912075689442847,-3.814796390811347,-65.42651078695044,-28.478266802999077,181.54980952073822
8.441249899999999,1.4308584878970212,-6.284847280315602,-4.411159945506154,-82.36265170192087,-25.302968309529373,189.92819316531643
8.451249899999999,1.4386354897545155,-6.922776145942551,-4.989165120487708,-100.63759168198604,-20.326785506512735,196.0624376109824
8.4612499,1.549523887826655,-7.81394893230819,-5.600007234476921,-118.32687447159158,-14.100278875729382,200.48871415152027
8.4712499,1.6990512491177734,-9.11232664053006,-6.285048217940658,-134.3005071064498,-6.6872432774927235,204.32842982073802
8.4812499,1.995930188291383,-10.689187874419417,-6.912163786940961,-147.50615973458812,2.292835691033881,207.69070116943067
8.4912499,2.596785505046714,-12.161371673372194,-7.437960644459376,-156.99200030009843,12.580473878772898,209.92918309131144
8.5012499,3.354569395701421,-13.443299558718543,-7.793648417196524,-162.27314261992626,23.2537194247401,210.46728850775628
8.5112499,4.113003915192745,-14.851483304526248,-7.939189097509258,-162.2071934381009,33.79289719151264,209.4287085144899
8.521249899999999,4.990554781353129,-16.225008550394218,-7.979738831237185,-157.26406105821388,44.83963257021605,206.96045583382235
8.531249899999999,5.906732580785759,-17.36997307870376,-7.846794733433232,-147.49904156740695,56.75438486603601,202.09715757921322
8.5412499,6.977216796976265,-18.474146283582414,-7.5829033792985,-133.36786569787222,69.5528862391621,194.9109896495937
8.5512499,8.210948237886921,-19.16346636567667,-7.4894206133678205,-120.71592423017808,80.43855684727974,186.89138636833073
8.5612499,9.39429220137275,-19.260745014820735,-7.379633596087179,-112.52738206422787,88.81113019850856,175.81429446654644
8.5712499,10.367532002653634,-19.050696262295446,-6.936236515380613,-108.58254128949784,95.54000853523208,160.43828703442333
8.5812499,11.138714633323602,-18.896328916178746,-6.282518015793909,-110.66322172422466,100.71262991731795,142.02925800010925
8.5912499,12.016070641414231,-19.058406872626282,-5.651903599182317,-118.17662988798587,104.3895534972008,120.5563996671571
8.6012499,13.03684019403004,-19.25453480779428,-5.227825416668348,-128.37573257751797,104.85008672675009,95.07991265085498
8.611249899999999,14.230487312903321,-19.164339612164294,-4.730449526001394,-139.60852196971655,100.84098720930983,66.05627084828232
8.6212499,15.693446604180311,-18.878642747707506,-3.406195663382723,-151.6279011797258,92.94116522501307,33.94372293982938
8.6312499,17.497682413057102,-18.77140428368126,-1.1823980663946267,-161.01233075191024,79.71093301678282,-1.3477338552941465
8.6412499,20.166495855931068,-18.830791110836152,1.2446261833117531,-165.0093732638173,57.44297540069246,-39.25002348692958
8.6512499,24.158452755023404,-18.44018937195394,4.076665945587935,-166.3763369993572,26.12983039217425,-78.19265636307134
8.6612499,29.32811267063624,-17.579193877520385,7.782622647598296,-168.63746048347417,-10.295256426076051,-118.53331653941699
8.6712499,34.12733091223645,-17.382061220755684,12.60496004681716,-175.72319676996233,-50.05807977820282,-161.44231454610693
8.6812499,35.792205378851165,-18.133724448833448,17.566451726275538,-188.45489693880066,-91.05499019188127,-206.8484222019952
8.691249899999999,33.717375227022856,-20.801525398036645,21.552228803530443,-201.9059094264235,-128.153602439394,-250.93937294930188
8.7012499,28.586489985127287,-26.647814063892476,25.620465715010287,-204.47557826624296,-163.1070215477408,-290.65071690102747
8.7112499,21.33024084919623,-33.13278736210101,29.14721315006128,-189.60062208671607,-204.51311305893537,-331.21237262839776
8.7212499,13.25000961630531,-39.215399818523004,30.756273791443423,-156.54394831275005,-255.32660436853683,-375.4794375737607
8.7312499,4.027975487938752,-44.02606272556375,29.686865015620555,-119.82088926703275,-315.0503819719906,-415.1482141526986
8.7412499,-6.939844370841835,-44.29289966696919,24.099158429320592,-100.16829959258946,-396.0026982891464,-452.3550876840674
8.7512499,-16.53914606947447,-38.93129855834319,15.461581728891353,-117.69095649157404,-478.10438986291945,-488.5725664799842
8.7612499,-22.82482149139218,-30.553681751047982,8.875272846509738,-175.28353302744281,-502.3147793019824,-500.6364704018637
8.771249899999999,-29.395632733967215,-22.192678492512016,4.68024944453855,-249.16626508998647,-499.47560999451633,-501.6525663293292
8.781249899999999,-36.91052218713733,-15.80795964334934,0.572814157017131,-302.66626204490154,-500.9577159459999,-491.4343043652604
8.7912499,-40.634381315315906,-11.15929898200324,-4.102340300188336,-309.53005128476303,-449.23202163851425,-438.46026308218245
8.8012499,-40.17409098029565,-4.9973440015185275,-5.86290847939415,-274.35922987565067,-333.69299161268214,-374.32084083295115
8.8112499,-37.3373259857082,4.375847054000668,-6.452291279539878,-222.15922205185635,-201.57830551921035,-325.6579091726794
8.8212499,-33.67637872109997,10.804654627844325,-5.422188530107709,-161.99181248522206,-75.8177926439862,-276.7654434860122
8.8312499,-33.709592752868176,12.193010247460537,-4.583902121444164,-92.94918731933633,24.138934677487757,-211.96047069816956
8.8412499,-33.01580883752331,12.057406706755884,-6.757648840773305,-19.397032959800278,89.00236294589273,-133.75992148812682
8.8512499,-28.978459882533723,12.055583973673237,-7.814851207404984,44.913327424097204,126.6103092040059,-56.706781071373605
8.861249899999999,-24.909510754542996,11.480153206703857,-7.26152584898419,87.02481860723357,147.71167878324235,7.454300148985634
8.8712499,-21.728751966553837,9.70281450044805,-6.963075635823057,104.94822501325687,156.69493895500847,54.18894026882963
8.8812499,-18.795115080147202,6.959702067821174,-7.1331762381392245,106.71067509582186,153.5573511368314,82.91324214088424
8.8912499,-15.366876475759273,3.8724076307709887,-7.322740032017896,98.23659798160563,141.67123472472372,97.56871538090286
8.9012499,-11.684464371785317,0.5513620635121002,-7.381898786840787,85.83084634977662,124.8547715282232,104.29110676322513
8.9112499,-7.843275878075526,-2.813509009745393,-7.351986269206354,76.33456157606848,106.19957376718814,107.30907354439597
8.9212499,-3.6856133249776954,-5.539541719800521,-6.84407388843333,71.2776127346318,87.14804191572647,107.28473313692467
8.9312499,0.5551625608272507,-7.483885455387994,-6.202368784358101,71.03953505172785,69.27848874854075,104.06269733677432
8.941249899999999,3.9522959415272685,-8.579134352669506,-6.264784219681312,74.18199963175326,54.82942528290846,98.3300275391467
8.9512499,5.804458708650475,-8.823824527882852,-7.025803535506298,79.30338755006616,45.15091865745837,89.54976844312793
8.9612499,6.360181907751673,-8.600667067174072,-7.85359068376306,83.79696132609463,41.99478362485547,78.93283400880107
8.9712499,6.619558300623912,-8.284086198450062,-8.647869742268885,85.29299445925191,43.50718645537178,68.63242265929672
8.9812499,7.300550042456719,-7.917564763915377,-9.473295722824746,84.92098519350112,46.899013214704055,57.72962345369677
8.9912499,7.798970700105476,-7.435329950044057,-9.842889576402793,81.68024276445524,51.52598096282169,46.29725917234183
9.0012499,7.686973477983842,-7.352827454285507,-9.789385965398239,78.84956857735939,57.07210281740553,35.155675094622744
9.0112499,7.4000300609356495,-7.305457393187859,-9.689113239171975,77.8571058110084,63.67898024671815,24.764098819985982
9.0212499,7.153409265738766,-6.8534402717828335,-9.471022331632444,75.01961362419607,71.52634030265175,15.249368015836803
9.0312499,6.8529477525730105,-6.398033757068429,-9.040578155776842,70.61547281878826,80.89956074435439,5.673133207177376
9.0412499,6.543385019727343,-6.0735811553799435,-8.686125234556034,66.04920589810541,91.35434136808934,-3.929635529124921
9.0512499,6.45574336637612,-5.743632673169175,-8.493883379076129,60.82487496001401,102.4880235851103,-12.072184863118665
9.0612499,6.554651237798086,-5.555723670984211,-8.315917624113723,56.70546583585136,113.60974612172319,-18.06953918717763
9.0712499,6.424997366617034,-5.404245595310738,-8.024741700441224,53.42046615403083,124.04073199877656,-21.98772595737742
9.0812499,6.138045133806503,-5.065822144552735,-7.747514420672146,49.10063710229912,135.23675806679117,-24.34880469016965
9.0912499,6.025002541990435,-5.071038228901334,-7.659013584281156,46.8050991547754,147.2576187190779,-25.15767042870038
9.1012499,5.9832614874906245,-5.001226061413834,-7.415470903730782,44.14082743277003,159.11496116077137,-25.524547189492427
9.1112499,5.752686742703774,-4.80332917410115,-6.98999508761797,42.24757228867527,168.78841489307212,-26.882125262024065
9.1212499,5.589278017751922,-4.831762726011644,-6.775616446577925,44.580222934897996,174.83220425400964,-28.983470020379816
9.1312499,5.657759604338926,-4.905214948502649,-6.5911111990080276,50.39655750149781,177.95931513571566,-31.100512978221563
9.1412499,5.727730532503476,-5.0620528365116835,-6.134230063320573,58.42874982150281,180.38460995037573,-33.13007465167486
9.1512499,5.641716533888978,-5.2959326453185485,-5.696830891137458,67.38284740391211,183.07233709341008,-34.87726486800985
9.1612499,5.506745164662125,-5.6019044151777555,-5.570820988907136,79.29247283752534,186.18721316604322,-36.10050121537037
9.1712499,5.527184627462998,-5.768972016261876,-5.323852679491263,91.29491376381183,190.0418917490846,-36.85509484894429
9.1812499,5.695419698307933,-5.559075079393874,-4.8828117726364955,97.91449022743313,193.9005559891828,-37.276055421118876
9.1912499,6.011321524801685,-5.333666965948607,-4.548356421914219,102.37362019313436,196.8563461410263,-38.014653416861194
9.2012499,6.347049046266328,-5.0952976727261134,-4.206107349566553,105.33961327535218,197.6817796657206,-39.71299700715299
9.2112499,6.482788289674356,-4.754018517300029,-3.7916505136608096,106.23094575668149,195.48404639806094,-41.8651675204298
9.2212499,6.471127598239513,-4.421375023108751,-3.387347207475281,104.91476953388162,190.43848177017762,-43.91560586177018
9.2312499,6.400073480436042,-3.9928462785794143,-2.95452193272434,100.47767470372665,183.69012900898232,-45.53633839045839
9.2412499,6.6656349590881305,-3.8286411902593622,-2.7045996277252335,96.53443543050439,178.17327867300673,-45.94928383051063
9.2512499,7.206190696595282,-4.38900029406317,-2.7810929230047026,97.63607683800704,173.84154230406878,-44.02061908978487
9.2612499,6.887328709553868,-4.584061245295403,-2.7278800508662573,96.96224996493517,165.57055333050488,-39.70605290197027
9.2712499,6.479882233330457,-4.3330213422399195,-2.3873171497059564,95.44398746797526,155.62195639419417,-34.32203680963479
9.2812499,6.932684241875693,-4.550626655027377,-1.900565169062473,97.9030670810877,147.02419832229015,-29.147893505030993
9.2912499,7.247234699188921,-4.363859831499843,-1.4109783625481704,98.42537274391847,137.61356303358943,-25.147180772908417
9.3012499,7.613461807042118,-4.127309362820226,-1.2991398137401808,98.60295178425697,128.7384545593928,-22.351701253345144
9.3112499,8.134856910489034,-4.202087858134556,-1.5237168919518118,99.8133097338139,119.99340511902214,-20.1129801585933
9.3212499,8.618474070110182,-4.137388231226095,-1.740623941456992,99.35353675829987,111.48643196154786,-17.89059487840058
9.3312499,9.09037116805198,-3.926325874223586,-1.7247057016823992,96.32238460872455,103.804239781938,-15.949195303201792
9.3412499,9.480834162196139,-3.7693923003307868,-1.568046574380737,90.94598778978452,96.70573879003774,-14.429810383534566
9.3512499,9.695531830787768,-3.5974997082144218,-1.50935552047283,83.51074436691472,89.95096992388983,-13.547004817438369
9.3612499,9.805977178211924,-3.39073937728384,-1.5673632614534907,74.6275219607574,83.06050926256225,-12.978770170697038
9.3712499,10.007815051267572,-3.4041846910640126,-1.6163648777849342,64.69911982491067,74.2514870965197,-11.822569380546506
9.3812499,10.148550253535978,-3.4807410025510213,-1.5881274948859954,55.53656128502461,64.53087712242633,-10.148512204994388
9.3912499,10.109911113490611,-3.5271499226589538,-1.578182827815178,47.47535567994515,55.34879572348467,-8.422652440131722
9.4012499,9.978246780678706,-3.670646830280331,-1.6330023779633904,39.22688625540731,45.82477892312439,-6.324783909925264
9.4112499,9.869132472072918,-3.811147950646919,-1.6245489484009359,30.15091186154801,36.392659626226646,-3.6893938915161817
9.4212499,9.890225908315779,-3.856777429815109,-1.5139643077157738,20.965554953062536,27.90490152159822,-1.622969660095074
9.4312499,9.959019922421016,-3.921881584388681,-1.3000018704057126,13.31214691543737,20.41676987810269,-0.4507536527537105
9.4412499,9.968571680708344,-4.171700642925506,-0.901238044284581,7.885109361621479,14.104716021663686,0.699833879532978
9.4512499,9.86326775336785,-4.485851457805991,-0.4912459820919068,4.210330984493405,9.209540621837343,2.036508465227024
9.4612499,9.588184501762253,-4.78186765390532,-0.2377771238799911,1.4965457108219542,5.515630588582857,3.387109495933202
9.4712499,9.305541178058728,-5.022194771618462,-0.01572751592263381,-0.09774555694363893,2.8343616774362035,4.36470351439399
9.4812499,9.080931546937007,-5.048836608523415,0.17366567976738184,-1.2441354849854025,0.9197823812710253,4.383421709569037
9.4912499,8.928323078291145,-4.99144946789451,0.27534253068061576,-2.5847683030754967,-0.2763618243304671,3.6543363047342146
9.5012499,8.826346369650185,-4.9371933913297275,0.3603452793959226,-3.9006517555294695,-0.7551724497313541,2.551082515744926
9.5112499,8.705811534342331,-4.895067510401656,0.49640202621329776,-5.064118264344338,-0.606884779530679,1.4873933404009934
9.5212499,8.625242203207605,-4.934920908218419,0.6767587165755563,-5.779121001307846,0.041333608724947755,0.9452326578951238
9.5312499,8.560164835581125,-4.987264803839473,0.8474226392405794,-5.6804199372286845,0.7493630776312336,0.6879096764996655
9.5412499,8.401299533225718,-4.944129859496384,0.9259065690974464,-4.77837567247159,1.2123343022709157,0.2124913633917548
