# Time (seconds),Accel_X,Accel_Y,Accel_Z,Gyro_X,Gyro_Y,Gyro_Z
0.0012499,8.774766819343663,-4.2546488045284585,1.9250004199453783,1.0600017392072147,8.21697625937171,0.16379977337188262
0.0112499,8.673934080233893,-4.168663022916955,1.7026527928682464,0.48419048200296716,6.122332514033949,0.980197410705818
0.0212499,8.622959640335193,-4.080888980418872,1.4643825772185117,-0.9566836747515143,3.2651127382396092,2.135067503988522
0.0312498999999999,8.62044954590199,-3.996428742780152,1.2496663823364837,-3.1992250562787152,0.25065507444212415,3.4826576729080108
0.0412499,8.612965299925799,-3.9427444096356945,1.1480701016545607,-6.118422441019119,-2.7360699583939554,4.872794897192887
0.0512499,8.6448831553032,-3.945786491719956,1.0704808634920526,-9.175730345981318,-5.409818681879501,6.402973478237901
0.0612498999999999,8.725163456398306,-4.001148180994223,0.9478778093603504,-11.762341149924506,-7.8936040872415205,7.942079155597304
0.0712499,8.779607412547753,-4.077725154883353,0.8116504945559333,-13.799461680961265,-10.266050888974398,9.438267307354778
0.0812499,8.80876466098283,-4.16046964958858,0.7266996422075453,-15.204838958009283,-12.438685133962387,10.835325666879466
0.0912499,8.87565405481298,-4.218270238691157,0.7347693006475079,-16.30622474695023,-14.128650008627554,11.725484202714108
0.1012499,8.874145588307595,-4.254529075755753,0.7244877426779642,-17.25837813106042,-15.199255076153495,11.836540631843533
0.1112499,8.80923498516075,-4.2883993830770475,0.6287710213814772,-17.981662129824063,-15.71720493410668,11.35331309922995
0.1212499,8.802549642555258,-4.35772296776412,0.5139962841039253,-18.602180230314776,-16.019310487217023,10.637285361092342
0.1312499,8.789627573632579,-4.484023604425468,0.48260395085970814,-19.1693074648377,-16.09146503675895,9.767248565344191
0.1412499,8.773498926129607,-4.569245012958643,0.5488541245992734,-19.780846227078317,-15.220082369074198,8.654909589674352
0.1512499,8.80565882396925,-4.643780716240027,0.6375309976771838,-19.673238029907054,-13.562790995065564,7.185357616928217
0.1612499,8.80580170876518,-4.750267151469607,0.7102591700676989,-18.59780565699005,-11.481977627836477,5.605763479862939
0.1712499,8.749389506605963,-4.907154780637147,0.7612080892920037,-16.18914765165983,-9.35282765873658,4.268863028938064
0.1812499,8.692739854375123,-5.101080866780759,0.8184954086188064,-12.370244870055162,-7.244055296815712,3.180241278867974
0.1912499,8.59093413258076,-5.187280434319025,0.8879301485863695,-7.628838344872228,-5.265564036182172,2.1225426883115297
0.2012499,8.42385234342177,-5.153924295417178,0.8974855407362482,-1.9547271549256553,-3.6365718395524698,1.071184769699574
0.2112499,8.28566751256031,-5.070018474297545,0.8190431703664577,3.267138310717453,-2.3525421186610496,0.38124869566447145
0.2212499,8.220382976946915,-4.950339143429627,0.7532284591895357,6.415640329855093,-1.877696638862352,0.05593692653379932
0.2312499,8.191743278526113,-4.820668520292297,0.7311573834663213,7.9271676232276285,-1.6646152256882003,-0.03819134846384531
0.2412499,8.161669142664845,-4.693363922473553,0.703329217765134,7.823438876986236,-1.473627848833379,0.31873090954272715
0.2512499,8.139889698428059,-4.600699497186413,0.6516272410884123,6.475679129360265,-1.6765947097094638,0.8953223368597141
0.2612499,8.153629130242315,-4.520874519584049,0.5729663874624714,4.080927116492012,-2.2573642888877465,1.4849416883490292
0.2712499,8.156281359762724,-4.446707332614079,0.4793765562698079,1.1476618386086042,-2.991348505689926,2.1648422477045886
0.2812499,8.175599024145116,-4.395963560074734,0.43758337079648485,-2.2800649411594627,-3.6896110505166773,2.837617804341321
0.2912499,8.280708412140934,-4.391782807625144,0.5083351974745463,-5.7581372453001,-3.8259291051669315,3.4231627233858273
0.3012499,8.329291245984509,-4.405933203932225,0.5729779679568021,-8.779963374660925,-3.7261094319190873,4.115771552017359
0.3112499,8.348221096454855,-4.48212400756245,0.5907234376690464,-10.590288434909839,-3.332281338288627,5.264923835941098
0.3212499,8.38437139949252,-4.588547692922429,0.621513420108273,-10.722373073071207,-2.5334150156806263,6.695553448025328
0.3312499,8.408944098690672,-4.594343932927949,0.6713316837903396,-9.369664888514578,-1.7022427391576715,8.437626785184898
0.3412499,8.503661513360154,-4.607812877703294,0.7392971045117873,-6.272228733014218,-0.8406481640813558,10.296516052687046
0.3512499,8.641875244793825,-4.576182127945267,0.8233730111603214,-2.297263749361758,-0.09773577061878393,12.301583509368868
0.3612499,8.796000621987238,-4.476620772356195,0.8929794088722424,1.7427650153843677,0.7834214288411757,14.0347560385578
0.3712499,8.901661234681086,-4.365665247286348,0.9188821287617641,5.338518625204073,1.6571881581025305,15.100859170447759
0.3812499,8.961458544160942,-4.226922508664271,0.9270762463750373,7.8443396245481765,2.381837276461139,15.585335508427457
0.3912499,9.022394577904628,-4.122849690882013,0.9021914019546009,9.400502055891621,3.0353411094041785,14.99854093598541
0.4012499,8.995486681395725,-4.1112025488223845,0.8829845707066405,10.556454554327416,3.241092219081471,13.580688514710518
0.4112499,8.93783590049836,-4.195232751235124,0.9486709663263311,11.763564526809535,2.9736978771863414,11.390591774958558
0.4212499,8.970430693016198,-4.327089539624978,1.055376215324543,13.095870621147292,2.6490375284684458,9.047778003754214
0.4312499,8.950655498793868,-4.465019211590133,1.1250108057404393,14.374668096892377,2.239556847776221,7.108779719098746
0.4412499,8.865343286759678,-4.60110061102962,1.201608791388819,15.472640285274785,1.8215971730612703,5.27802792401323
0.4512499,8.790742676392686,-4.732584815221268,1.297341919945323,16.12518036253026,1.5362137435950651,3.672179541049795
0.4612499,8.665365483723015,-4.928903953186839,1.366187533540639,16.954047549571563,1.1783688844798648,2.2526522716830977
0.4712499,8.504697665893124,-5.120400332392424,1.3885377043160696,18.111224285001903,0.5192919502797709,0.8380952571466235
0.4812499,8.378824202919212,-5.256156246730016,1.345770419448728,19.2491127904953,-0.6558299647450619,-0.3359055420979192
0.4912499,8.286582890460053,-5.364771391699278,1.324206985236619,20.6838969362806,-2.1455191610131568,-1.3891846393453973
0.5012499,8.25853886624059,-5.411766057826234,1.3155049477665064,21.335468018615757,-3.3888987652017124,-2.2167181259790465
0.5112499,8.24564321011061,-5.400951776699522,1.2287788005851827,21.211831622759945,-4.414459014852078,-2.562508871061147
0.5212499,8.190536976913213,-5.335940168689184,1.1125617790252955,20.72191316968424,-5.520101900826846,-2.5847946132348443
0.5312499,8.207523366657973,-5.257073803343626,1.0142352042716216,19.401302707025053,-6.606066394034668,-2.583766820475239
0.5412499000000001,8.353386828462183,-5.192541450982253,0.9752332050606848,17.38680108562184,-7.4027814870180055,-2.0357649022955377
0.5512499000000001,8.457426305769486,-5.094805612370075,0.870413358095979,14.787539727605159,-7.467279740045083,-0.8209673607184146
0.5612499000000001,8.483420658329548,-4.940394416104482,0.6901281746374284,11.57291864190599,-7.627374584803479,0.2557588829011534
0.5712499000000001,8.552040494935236,-4.837611871641959,0.5743705459514702,8.86538873622117,-7.96878218518616,0.6917469993786745
0.5812499,8.627885797055129,-4.8334372889965715,0.5117238583930738,6.934542944956891,-7.980279023366999,0.8574460531507733
0.5912499,8.673216700791174,-4.853158152703925,0.48062176987040856,5.27620302284124,-7.8253861640508875,0.969993419312701
0.6012499,8.700299536483838,-4.861944684193722,0.5025946371334148,4.060621246312718,-7.423116674303139,0.7760303589700678
0.6112499,8.648354615337714,-4.815367468432809,0.5336441560471468,2.6129428237620504,-7.059417579479303,0.07159200883553107
0.6212499,8.635005418198851,-4.844686447464296,0.5566285689279697,1.0663647930141136,-6.290938921401401,-0.8317587472359911
0.6312499,8.662188390021969,-5.015966140470672,0.5858986604158901,0.018820778185923558,-4.919227858458921,-1.2840608430904121
0.6412499,8.636941072353174,-5.1334760635006385,0.5862216912312455,-0.2837233591493761,-3.36268227705376,-1.3539072923158484
0.6512499,8.635673783686125,-5.17809587370338,0.6833210281256651,0.5697063418679509,-2.064567189612765,-1.609008841020849
0.6612499000000001,8.64796936680337,-5.144051564705822,0.815514050994312,1.6163272335797982,-0.8027459621933698,-2.001929931825697
0.6712499000000001,8.58445699699537,-5.070192940809753,0.8114735650462017,2.490061578701881,0.3685668713101683,-2.3874923003379847
0.6812499000000001,8.522067173196033,-5.078978265497504,0.8110896159741926,3.763134485507115,1.279468303067463,-2.7508757010823257
0.6912499000000001,8.49638688264285,-5.058902738541908,0.8838590925204163,4.842675739145007,2.205349399989075,-3.0736782869985655
0.7012499000000001,8.51071796590621,-4.987990839245509,0.9416543209250011,5.663329102484788,3.1298230326149383,-3.302686527353246
0.7112499,8.488365928592797,-4.93084648703543,0.9728603690521387,6.072175067415328,3.675446965872752,-3.269048222651005
0.7212499,8.451700882821786,-4.876890016456927,1.01415348715513,6.485568385965742,4.221880947998161,-3.0243544221928893
0.7312499,8.474724472047404,-4.7939554762883265,1.0589298418760498,7.154862803890105,4.8101484315793765,-2.9490783878494375
0.7412499,8.45052523691864,-4.747734800728314,1.0741281383311716,7.698901660723789,4.940401076899102,-2.8569235431268596
0.7512499,8.372768649729595,-4.757958635535452,1.0867979456564094,8.058915403294474,4.875172698080518,-2.4305446738248597
0.7612499,8.364624369502545,-4.750506235060242,1.1619830861702456,8.14775185523533,4.975613640921114,-1.8127774157470506
0.7712499,8.41743384219887,-4.679875972118074,1.2333700044381712,7.876422139934937,5.106398413517011,-1.3595460971171907
0.7812499,8.440077248116301,-4.668095932581775,1.2765934376053034,7.4888611071263105,4.928760671051219,-1.0148491023751505
0.7912499000000001,8.478286523621577,-4.720888413877832,1.3812517458429823,7.504823272217111,4.906150295875769,-0.7316594269303162
0.8012499000000001,8.538550294336275,-4.703304876912607,1.4391772227009276,7.672554107684034,4.990342471363414,-0.4733632298495225
0.8112499000000001,8.532145050144939,-4.641096408635486,1.4664686573161985,7.591866363482544,4.6453046763900865,-0.12940000753926142
0.8212499000000001,8.52022961094639,-4.6467017228948615,1.5281812887509176,7.626814969890118,4.34907360905307,0.29658505380220224
0.8312499000000001,8.514162578684921,-4.677287372115537,1.563045083062755,7.519256690350743,4.0530124721636955,0.6842148477632648
0.8412499,8.488244698321836,-4.679974337474542,1.577517526932099,7.219699507934592,3.5254003480190943,0.8712732116201725
0.8512499,8.458512317274282,-4.6848912186952125,1.6037646567671766,7.192604742533677,2.8934223240605284,0.8061637860735251
0.8612499,8.46286497890238,-4.76392406144253,1.6630083238073003,7.80085297696066,2.1250825196792102,0.8381454296357879
0.8712499,8.451737492707515,-4.824745088908822,1.7286521132250021,8.623920061733394,1.3593482767618918,1.2911193066072928
0.8812499,8.412042395900253,-4.787010086349358,1.759264388708387,9.560543967754784,0.4963856895384894,1.6583895814868408
0.8912499,8.413148189113805,-4.712606489623989,1.7507728049754632,10.466798504137623,-0.3720168093959756,1.730556129014609
0.9012499,8.435192813632776,-4.656900121429362,1.691171314111239,11.019143969409857,-1.2673446948430018,1.737258692808615
0.9112499,8.463819775315027,-4.622829316999518,1.6952320327309638,10.991675965380189,-2.206434744554483,1.7709498702480853
0.9212499,8.507445636631683,-4.524394441498416,1.7551371164353593,9.978917614901057,-2.591930300184344,1.810054624626743
0.9312499,8.56817289000681,-4.440362989936201,1.7508409983411433,8.564239826479826,-2.6821529328570275,1.7519679464414224
0.9412499,8.612269161144038,-4.442993392196424,1.710914377549423,6.8793598165739684,-2.874156295670742,1.3568994188769972
0.9512499,8.609750945526718,-4.514715531408442,1.6899015421979313,5.098479764615305,-2.8462466072013655,0.9491308702931387
0.9612499,8.619726046952156,-4.620240417647828,1.6887128624662,3.631271026425679,-2.619759598936519,0.8169220292320987
0.9712499,8.62742349321722,-4.711022197736951,1.678075959064948,2.821391472804763,-2.48109862662915,0.8168901799748933
0.9812499,8.598052054748154,-4.7780177738059155,1.6030847621348094,2.758924030281121,-2.6069653605867105,0.9326212842877449
0.9912499,8.571141405115286,-4.8412573764370475,1.5794948437016045,3.3156052807473095,-2.691493246368484,1.03579168565927
1.0012499,8.551872810888083,-4.86746082640492,1.6065200188959696,4.230724991709946,-2.6530926774733223,0.8565938210618783
1.0112499,8.502656394529547,-4.854001450092024,1.569634166816841,5.123489029531666,-2.7165538320101685,0.7872019209095865
1.0212499,8.462158726461219,-4.859673457903033,1.5281743316870304,6.052007129427105,-2.8417672679422896,0.7478163462136405
1.0312499,8.435078882767696,-4.880688793708705,1.49073203885157,6.529801942369851,-2.722007678386565,0.8541687170508205
1.0412499,8.357676441476045,-4.909746823564745,1.3852574860284075,6.467968850230466,-2.4484910545625125,1.135314916972096
1.0512499,8.324574837338984,-4.963132797751141,1.257281506303066,5.938104085429332,-2.4415351051246565,1.8254293119830627
1.0612499,8.33387020248237,-4.907998224366119,1.0798275559386692,3.6346003974140766,-2.3114442780710904,2.6223680313230697
1.0712499,8.291619571418604,-4.800779117318038,0.9624636348817346,-0.6031337281090632,-1.9225710352422745,3.2202516433432695
1.0812499,8.25086287970208,-4.798669723445026,0.9405240349510876,-5.537434258433844,-1.3708234855020824,3.665165848838516
1.0912499,8.229873411248201,-4.8313063094465685,0.8690021313205892,-10.666486791175021,-0.5520367473247796,4.111228083424497
1.1012499,8.206261055912497,-4.906632183862722,0.7826016177338949,-14.859273322744762,0.2749050124439286,4.740248142632933
1.1112499,8.224038738231217,-5.023807326809737,0.7469355582862708,-17.302147227007524,1.1258106464785207,5.468711411539227
1.1212499,8.208946380051593,-5.15714012757177,0.7850439012266142,-17.928372583979936,1.6468278145724091,6.38948009861635
1.1312499,8.177496438943972,-5.325762762484676,0.862556633150215,-16.939376623967874,1.9901656435726076,7.334437448750535
1.1412499,8.156228690456302,-5.479315581964366,0.8348750491930464,-14.546788864208992,2.577630040117474,8.102672767140554
1.1512499,8.151216079247591,-5.532218360252177,0.7454805528206552,-11.671223287373543,2.772225152232308,8.814331369841868
1.1612498999999998,8.200608094822213,-5.453767175038118,0.7545271038114858,-9.515451836696176,2.9122551599092508,9.1222236004982
1.1712498999999998,8.308187977928043,-5.311955436371302,0.863206395409532,-8.357343519170772,3.6908020782044053,9.099721305179916
1.1812499,8.482998514320048,-5.185965055315004,1.0177474208402875,-8.114587680264815,4.920977490732415,8.820683988900557
1.1912499,8.653647935995194,-5.142793466896992,1.2080151148476044,-8.302647553482169,6.616705300560487,8.421225480878029
1.2012499,8.733765720617853,-5.154499810373359,1.359136065727989,-8.358850454311172,8.353909930109507,7.972121696476285
1.2112499,8.697893457209073,-5.135935870271425,1.3850135981360525,-8.179500484264763,9.501108197434828,7.269376084945544
1.2212499,8.617860628591057,-5.0897181497159485,1.3324957559504451,-8.572413243946354,10.335661863521095,6.374681873278679
1.2312499,8.555193329021176,-5.013068062711203,1.348154327694519,-9.845238896506311,10.783569272361769,5.160766511646421
1.2412499,8.465715113970772,-4.923143338763363,1.4179771549535791,-11.4205324708996,10.786620084527936,3.2958769289336223
1.2512499,8.349719748323004,-4.9061513857144865,1.3894051376079335,-13.022320299054204,10.55169688748814,0.996217882698054
1.2612499,8.27069476340888,-4.966604286529395,1.3250088517611314,-14.119972908593082,9.97091839251893,-0.8819043727674107
1.2712499,8.261999596740132,-5.011697880264593,1.4204947353511235,-14.219795432110756,9.328346979239509,-1.9898336147709008
1.2812499,8.298731393253066,-4.993651990081391,1.5637890859298393,-13.79528725874874,9.152055751423198,-2.6743753903736596
1.2912499,8.334585986333428,-4.937887527672369,1.5764364598267062,-12.901127264574983,9.153346201158657,-3.107126234558848
1.3012499,8.37293964327586,-4.884032507992609,1.4895069528891196,-11.76289950205085,9.026807562544276,-2.9663122710008336
1.3112499,8.365073079963304,-4.81062090879656,1.4517153030199257,-11.11511220967511,8.935045183519664,-2.630768808084215
1.3212499,8.318313729692893,-4.6677900651600535,1.4747903984438058,-11.549454779995397,9.053414900070194,-2.480707976980288
1.3312499,8.265756173368587,-4.535194746376609,1.4520480806274856,-12.40182302248728,9.403310018171702,-2.57413705162156
1.3412499,8.235922390054572,-4.483392420182043,1.39053227883966,-12.944947128160118,9.634073900103528,-2.7277407634695203
1.3512499,8.263842713644001,-4.47502366315847,1.3656848436538875,-12.847852939880683,9.90175119173664,-2.512272759332785
1.3612499,8.311110184120839,-4.410072319143269,1.4323619501462528,-12.49892665877445,10.168468232135456,-2.268273572224546
1.3712499,8.407998451877495,-4.330253175195235,1.5163360695831358,-11.745589349405865,10.770811128188802,-2.1025670796894205
1.3812499,8.573968975970976,-4.296410763827117,1.5394909600578324,-10.157720199696714,11.681366894790072,-1.8928054671921928
1.3912499,8.694361635780023,-4.266686090367913,1.5723337564826125,-8.300223952067201,12.403910494142048,-1.6759145578630792
1.4012499,8.741185678104479,-4.276156352034293,1.6587544553340035,-6.372964903834822,13.083215722762418,-1.3161044099701418
1.4112498999999998,8.756396733104946,-4.285921976025514,1.744333443738819,-4.688686149139894,13.701810773168608,-1.0040456229348058
1.4212498999999998,8.763934296153634,-4.327470301751412,1.7840236468846846,-3.0307244761296426,14.377458528940178,-0.55967750422275
1.4312499,8.707854021246613,-4.3949165692573535,1.7786514977439534,-1.2245952902289439,14.388349070110197,-0.02607042540029786
1.4412499,8.684741583305895,-4.490853094891216,1.786215852855854,0.8015078764972201,14.072652025441585,0.37019858003384504
1.4512499,8.655863848791132,-4.565290077585759,1.834332714073844,2.496465097462087,13.396362898137829,0.9005115998716117
1.4612499,8.59722143971851,-4.618096167198442,1.9034595787452067,4.122817546953317,12.494219706986586,1.5950800260866445
1.4712499,8.554835608732372,-4.662268089272031,1.8947232352348744,5.354990653115804,11.396053355223932,2.2379127437260737
1.4812499,8.481506110735186,-4.724186756778582,1.860887742783617,6.107363968767912,9.738078341857102,2.55260203892927
1.4912499,8.479923423941434,-4.786754176332086,1.8463201511005232,6.527725475828605,8.23827345326327,2.7259369818324837
1.5012499,8.493091704977832,-4.778454577212638,1.8616881933250509,6.207495083357717,6.586602265328856,2.8650322435242814
1.5112499,8.48667292766382,-4.7961951939591385,1.9248897638595925,5.725764025951943,5.015931753837231,2.7994152098488327
1.5212499,8.474732176050463,-4.856187018751735,1.9407203489803904,5.2785119516773795,3.666480751479911,2.482872701780585
1.5312499,8.4525461977536,-4.917859398951244,1.8566513033738086,4.88084547626999,2.324080578726945,2.0326193631373526
1.5412499,8.4912591151469,-4.943646917415803,1.7707607120315707,4.418150709282453,0.860829154812397,1.7569757082155315
1.5512499,8.564776147014236,-4.916321952979846,1.785475924965546,3.591366328682428,-0.3762065696404846,1.4829194003334707
1.5612499,8.597296423322097,-4.8919908230277525,1.8440848293390304,2.5017316365689553,-1.1704602533322228,1.2808106295898567
1.5712499,8.643163973910976,-4.918227564168095,1.8460708240258699,1.4914960203421002,-1.5878178568822432,1.1578320184023165
1.5812499,8.7055263976896,-4.952497153911713,1.7589791364747103,0.9741341932914963,-2.010569879593536,0.9568612588089838
1.5912499,8.726477256892464,-4.959181024781916,1.6902932552319698,0.8751601494588106,-2.5937497575852855,0.5233475866667259
1.6012499,8.703197825980004,-4.951577786976611,1.6959702631705922,1.0599736402048847,-3.0330166139464803,0.11941033963547538
1.6112499,8.65618528541862,-4.954108373445349,1.6981664904691494,1.625217048774589,-3.2929588758533255,-0.25329499237195285
1.6212499,8.635923076125843,-4.955072741426292,1.6589029644219007,2.480858128705106,-3.4161455482897254,-0.7469306562023494
1.6312499,8.647071907460658,-4.945031724089587,1.5742580117709684,3.510546852197655,-3.6050230149659472,-1.3546680230321813
1.6412499,8.668404779254097,-4.930686731290686,1.5493829691555028,4.458961458048217,-3.8276071382838097,-2.047176894414207
1.6512499,8.722232427241655,-4.92599890061999,1.619125590969678,5.241427382721895,-3.6292974594693743,-2.722857467936305
1.6612499,8.743838218544967,-4.9004589521370185,1.6757762386383306,6.091365138555166,-3.1271124770698253,-3.2550503312137877
1.6712498999999998,8.69463830468611,-4.852560488657832,1.6928021993705187,7.321534216530581,-2.717108738676367,-3.6457735792387833
1.6812499,8.637758971767454,-4.8148532317631325,1.7043214616885627,8.817673692387148,-2.5560188894178144,-3.831197289499577
1.6912499,8.596729994674712,-4.77635985947181,1.7041865216739434,9.891850470157564,-2.5611500492187664,-3.486570607514562
1.7012499,8.488876295947414,-4.723054725575929,1.7108779054093195,10.398542977237973,-2.9100599867965453,-2.9234138039071094
1.7112499,8.353388202758897,-4.662594627605296,1.7137873502964625,10.391819975080946,-3.4224418622220356,-2.311576674811101
1.7212499,8.300267222764841,-4.642937358729943,1.6755651531537894,9.720364302298046,-3.984111529806757,-1.702463970019114
1.7312499,8.32517140228513,-4.641428378107303,1.6477266740061036,8.513683766838348,-4.770620319649553,-1.0511249542241659
1.7412499,8.344258984373832,-4.645318811013828,1.658080624085458,7.258866722894518,-5.420734745215859,-0.37638528943696425
1.7512499,8.310212163344614,-4.667730077579864,1.6471990469683948,5.971652492780421,-6.0519903478123345,0.16656092567912892
1.7612499,8.293336027474053,-4.730895805502026,1.624869952837011,5.284715374113012,-6.651436622079645,0.7197843627392498
1.7712499,8.266027682661633,-4.803937175218419,1.6332427425236715,5.101720253079283,-7.063975761393339,1.4274624775484448
1.7812499,8.202931549807415,-4.84295520847674,1.6225220012496302,5.203997937433716,-7.3369677667824105,2.0936881809690155
1.7912499,8.176762395357683,-4.845080319087193,1.586624564289106,5.4139109152430445,-7.3644871432394465,2.652547550393191
1.8012499,8.173140312507588,-4.834541213824695,1.5896404701677729,5.671258772531821,-7.12675212871347,3.2850271316985458
1.8112499,8.16425592628205,-4.85435309498485,1.6044979396307189,6.187995204865019,-6.622011339421752,3.8074693817932377
1.8212499,8.138809154194515,-4.885598094437575,1.5976393658048262,6.744931016976227,-6.079645027237678,4.3043317145346895
1.8312499,8.093256809199513,-4.876030581134697,1.5654213692457133,7.210460719596529,-5.419303694493907,4.953769756900949
1.8412499,8.011698978574431,-4.819828873883357,1.508803375417616,7.310382299380129,-4.7908319336372385,5.379154271710327
1.8512499,7.930373053456427,-4.743017952016086,1.4629083595470684,7.123243943180332,-4.418910887138045,5.64264012820534
1.8612499,7.843480408617727,-4.706934655171111,1.4440118243945,6.662747863762011,-4.013537325177523,6.327821588435174
1.8712499,7.7592023351445585,-4.701314041684448,1.4071143154229844,5.848758831451603,-3.4092343992789202,7.368302114965224
1.8812499,7.690376978140386,-4.664404412211945,1.3318788732031537,5.178387078882906,-2.662352947728874,8.87193053741194
1.8912499,7.610779014520411,-4.67685130828982,1.3319734569437198,5.195914241374632,-1.8560582846563198,10.774701571455314
1.9012499,7.48743538672846,-4.701109864499727,1.3678149196106915,5.799471371415517,-1.2211622188838733,13.026529942558499
1.9112499,7.388507361905678,-4.680220816180052,1.3835750120710475,6.9291839451373125,-0.22150661424813586,15.8648659706158
1.9212499,7.256174945522566,-4.5959389281583185,1.3814159259749659,8.091079724679032,0.5984596719457319,19.029708257223728
1.9312499,7.1199571878418,-4.501151867746709,1.3083382681651414,9.339738563826078,1.1117985825830463,22.666670345988237
1.9412499,7.084788854132708,-4.401226197146127,1.1644949584109874,9.872708530917624,1.8890849099608276,26.293709904709278
1.9512499,7.036360561930602,-4.2288925528716845,1.0651234615404817,8.856168597837721,2.533936402487516,29.765693327929082
1.9612499,6.982171325585401,-4.06584248878857,1.0117431989660048,6.810126241026795,3.735200147049296,33.25390455068711
1.9712499,6.924125081653934,-4.01574814495606,0.9732764032311565,4.099781376775411,5.087510027033419,36.89172634469077
1.9812499,6.86991778650925,-4.087566088142425,0.987922219203273,1.5072953322452047,6.652847550881124,41.08058152471666
1.9912499,6.771085027122047,-4.148017931544798,0.9209126965315952,-0.7745112733928801,8.308227512955174,45.980397583116485
2.0012499,6.607939592496461,-4.19310148750836,0.7815902568858063,-3.0833721525741713,9.722853067914148,51.47525460243447
2.0112499,6.372962774128059,-4.226281061906474,0.6572830156698333,-5.545200398248735,11.167623744753541,57.26228323995651
2.0212499,6.062291041405151,-4.270688271637153,0.42801773345832106,-8.874247997741092,12.32336047167456,63.19561588021772
2.0312499,5.764394421997328,-4.33910785109063,0.13728396646730412,-14.039132071373478,13.226014766682454,68.9642565501981
2.0412499,5.502428252135832,-4.384521541757746,-0.06994375561960556,-21.40595048199206,14.206080605201208,74.060150793262
2.0512499,5.267193471161906,-4.556166959990363,-0.21515116618658653,-29.90469275100444,14.988843846817787,78.51881322165683
2.0612499,5.147798162426287,-4.883719979028514,-0.36190452442473653,-38.41420120062583,15.825364064678087,82.85341856584834
2.0712499,5.079082345011765,-5.212684402244088,-0.4900575542656979,-46.90927888265411,16.873691805987825,87.05845946643686
2.0812499,5.010450664493386,-5.550141589489665,-0.5209312264433273,-55.20143910179239,18.21956610472437,91.1240420061241
2.0912499,4.917016974124942,-5.984274277180489,-0.6269398378138109,-63.53617852882141,19.861210552660726,95.86170630510726
2.1012499,4.827989437614534,-6.485244871105927,-0.7831725205840614,-71.01095382532857,21.384130186961325,100.81397769774142
2.1112499,4.8095160658498,-7.001879157498242,-0.7959880456247884,-75.59669159115636,22.88630114709323,105.39644210484413
2.1212499,4.6919076269087965,-7.4861002637546825,-0.9012895490081109,-78.32024691124434,24.0934350012007,110.32770564785652
2.1312499,4.559395551579167,-7.942110988746941,-1.1690296817766315,-80.34544697385418,24.602748357563147,115.68184954961995
2.1412499,4.607322910927254,-8.347067863733404,-1.4445966196388733,-82.38870617979035,25.034140651667446,121.10735438752296
2.1512499,4.678071998356253,-8.609481624490178,-1.6827178815430848,-84.90714679835358,25.233747988547023,125.61297118509435
2.1612499,4.700305956846202,-8.868552076642768,-1.8516769474531802,-88.27760381161785,25.20471189136226,129.37276314418514
2.1712499,4.865871240437597,-9.20757013648891,-2.0189095919154334,-92.75233229482765,25.480690463259528,132.6811206367315
2.1812499,5.1736189753690764,-9.589422234761264,-2.17022628086502,-98.39950526660651,25.972769035914787,135.45143699516495
2.1912499,5.4736655933232115,-10.059073398869016,-2.2093315800737954,-105.09014922470517,26.615747174969826,138.00029534014132
2.2012499,5.639733403257504,-10.505492576828722,-2.2185327441815006,-112.48445296372492,27.569178606101563,140.1136824962908
2.2112499,5.732602397942127,-10.896493445624023,-2.329846558341279,-119.96290520000554,28.27578381262287,141.56551403229918
2.2212499,5.987370421167181,-11.443411120952934,-2.331218666420514,-127.26668766806291,29.004335861107894,142.9257943315906
2.2312499,6.246534286397251,-12.095608069978073,-2.168537299891591,-133.25107089751708,29.95025602258467,144.19340998016318
2.2412499,6.355514070847137,-12.49851219698744,-2.1197730281931824,-137.94365211319246,30.1221745255448,144.97618990307996
2.2512499,6.607416828853416,-12.787480943276615,-2.2433482530186666,-143.35781023809974,30.01263243013366,145.6014842128822
2.2612499,6.93447217979671,-13.29834978349217,-2.334392303042512,-149.25980030856124,29.933061446098105,145.49648396336647
2.2712499,7.096193066329759,-13.704896910746546,-2.230069707174703,-155.2564316500538,28.326375464298906,143.40203158637266
2.2812499,7.331089221863487,-14.011159098857807,-2.1263074919841825,-161.64475405858,25.77004670304913,139.2833432369855
2.2912499,7.693834539658254,-14.542543218948355,-2.104096744775686,-168.37944129993883,23.54230481079764,134.0353382147384
2.3012499,8.087361111134246,-15.271651442718216,-2.0549444370957497,-174.4778156737555,20.46913239078227,126.17773470385002
2.3112499,8.62378269621574,-15.961521718827353,-2.0429323863465623,-178.77964522358465,16.33548296110859,116.43814192638845
2.3212499,9.501627284097536,-16.64841375573897,-2.0364482405921303,-180.5915030281702,12.326198579031647,106.67496650676352
2.3312499,10.674294342096712,-17.435451448068886,-1.9230565703815583,-179.99273252518137,7.714764930352956,94.6281818194425
2.3412499,11.903736368857231,-18.028134222738345,-1.787299308429567,-179.35531066104477,2.2888532846384404,80.12019039193973
2.3512499,13.318627874321658,-18.40013999603894,-1.8645506201633715,-180.26102102299643,-3.4950342048610143,62.8056594620445
2.3612499,14.942912116189957,-18.53441802427393,-1.7789929179562252,-183.382735737173,-10.91126222544704,41.13696949540514
2.3712499,16.664793348054395,-18.40234419401116,-1.2292984220521377,-189.42390964644065,-20.27436561839425,14.592919016998692
2.3812499,18.613282954837867,-18.41861071130991,-0.07255071972761218,-197.13399378834313,-34.031858720604326,-15.917444753048306
2.3912499,21.422120666095758,-18.816140049103346,1.8533883785742364,-202.2871605937626,-55.2898964814078,-49.69775739606312
2.4012499,24.86732315268318,-19.17416233833967,4.507184785956628,-205.51186969665616,-82.13200369989052,-87.4775368591773
2.4112499,28.1617023814523,-19.716142680779082,8.50211347703226,-205.83844394840548,-111.89463149190387,-132.14721461772763
2.4212499,30.554007376552203,-20.838324345496336,14.270874050932045,-198.89196199046506,-143.64903286398334,-185.58456445398522
2.4312499,30.407095812326375,-22.60490654493117,19.966912321907408,-183.01769856249487,-178.13592159038868,-246.71923295867296
2.4412499,27.397903034228865,-25.40136062821931,23.728110675929916,-154.69260877336274,-216.80365977990752,-309.7196552470362
2.4512499,22.82747847912625,-28.415655465098823,25.734632685548302,-119.32911213174661,-259.7079093949737,-366.24306255330623
2.4612499,17.351006184734924,-29.207660312838744,26.595743350849066,-96.03921662430149,-302.90429540401715,-413.1880801953783
2.4712499,11.341073368549235,-27.76284468556895,26.14515266049371,-92.5407343097767,-343.9603134526994,-451.53266314761873
2.4812499,5.024987958537578,-26.339864710243848,24.021031566751645,-101.05253402759092,-382.67848069838817,-477.0767583063707
2.4912499,-1.3897992752588184,-24.81768430732238,20.239864226289537,-118.70033930991215,-417.64838664967215,-485.2585097581234
2.5012499,-7.129401473606468,-22.381946164728458,15.12786262469114,-144.41179371878334,-445.21858501994836,-477.73706284158135
2.5112499,-14.300614297870272,-18.494844671537184,9.721237447516272,-176.15432544861204,-456.31646541249194,-451.93081902090205
2.5212499,-24.170049938919572,-14.730825347230725,5.657794431609291,-197.3325795165395,-445.2418372339147,-404.5673168026166
2.5312499,-31.330979929161426,-12.826829489789011,0.35736285902710085,-189.74060591026935,-407.52363414925657,-340.39816273180855
2.5412499,-32.197547302873915,-9.319872606874501,-4.688410404610199,-163.65933427828804,-335.965350646549,-275.1631957086435
2.5512499,-31.575750605367148,-4.772972817054284,-5.174345375659378,-120.7630657359684,-238.85655581690838,-226.96391653239002
2.5612499,-31.089457237639895,-2.0902987195612983,-6.295992058648309,-60.55887290466672,-129.58096698935864,-194.12708280578397
2.5712499,-26.97891566665887,-0.29591431749722286,-8.70433058662775,5.9684652046985445,-25.814894091200532,-165.49533984452344
2.5812499,-23.92032976614337,1.1123898367390088,-10.511938930277545,64.63044861296247,60.5058385634759,-131.85761856368447
2.5912499,-24.161476539185024,2.242865091788028,-12.986173967296983,100.44387706059155,124.00592266296289,-94.00555568891069
2.6012499,-23.27687210476504,3.751288502427152,-13.960093276085203,111.43489102706454,166.5839360286971,-61.75023586216394
2.6112499,-21.69711228090703,4.237710703856439,-13.312601255457754,108.76830179161107,190.22594726688885,-39.77347433864559
2.6212499,-20.242899518079444,3.150814473380162,-12.971614211556536,102.04863108399475,196.6142968952677,-24.232288358703226
2.6312499,-17.92463021839414,1.7070320283660827,-12.364946021105544,94.6974381504192,189.78268814965043,-11.847121779492793
2.6412499,-14.71765481239919,0.23665393806409835,-11.032276966727858,88.91866225445901,176.28390667570199,-0.07937336769338052
2.6512499,-10.996136706748363,-1.3938264439642893,-9.682013491067806,88.34194902440886,161.03052379187648,11.049332861145702
2.6612499,-7.283879183789732,-3.020854650318352,-8.678726998525294,93.06076367874527,145.50642313747227,20.70228504054063
2.6712499,-3.8452715919100666,-4.3133545658740164,-8.039452696019788,99.27195043756271,130.40369331033978,29.921107658739537
2.6812499,-0.7080981753634521,-5.216433450208845,-7.764610343664839,104.91863004064531,118.024730862356,37.87236960683568
2.6912499,1.7688647840293374,-5.606000930651836,-7.568899444978651,107.31770639435908,108.31222259628015,43.43264529777591
2.7012499,3.523746517546417,-5.451400101484536,-7.393643293003718,104.67627664264342,99.94151094137317,46.256073779768236
2.7112499,4.752984114814367,-5.40542716045791,-7.2476810854580584,98.44892742697502,93.24901126518711,46.27321252252214
2.7212499,5.688298648749074,-5.658674402254841,-7.090126342851946,88.60004421443351,89.16475448632518,43.70781332960667
2.7312499,6.498225154921492,-6.0953298727587475,-6.8160365714330995,79.05197185455845,88.48479318139388,39.998223441604196
2.7412499,7.152575849604455,-6.6206557458070145,-6.200302421976869,72.67199431239716,91.00658319965312,35.33124516170758
2.7512499,7.464959052889734,-6.974171664592795,-5.474464516568389,68.36197470186842,95.08357333088371,29.21891031271993
2.7612499,7.628111788609657,-7.141389882267098,-4.957602141918776,66.87562030375048,99.98341602427642,22.17180645791564
2.7712499,7.771444703109051,-7.1843522686312165,-4.562031667957328,67.7642834752544,105.02089167148797,14.555231987151805
2.7812499,7.603426298820706,-7.236365430915005,-4.213456628876501,71.82285298420595,107.80637647505444,7.302762557353642
2.7912499,7.15134059480231,-7.26624125749453,-4.032380483995315,78.95803395619943,107.94034283794451,1.710958943987071
2.8012499,6.7079528264367285,-7.17814719059595,-4.083934350790997,85.87340135652184,106.40274468081317,-1.609219393994833
2.8112499,6.372071554654195,-7.448019269217819,-4.429127951858712,93.98385365038152,102.97671578575898,-2.2751199655437926
2.8212499,5.993668703458419,-7.375159512837208,-4.938952112613006,98.95675435319914,97.4220756775618,-2.553581350590543
2.8312499,5.770091335299292,-6.358039922042961,-5.157856344176723,97.51915159839982,92.14742937999715,-4.617386801984718
2.8412499,5.947808751808227,-5.302950081092546,-4.919604776390483,91.40216623469635,89.41628683205462,-9.549933513524925
2.8512499,6.176149261270024,-4.1867939071363445,-4.351514801410169,78.46952445504412,89.35370016697208,-17.124745853706475
2.8612499,6.484356594496862,-3.6485209330231823,-3.6974592050325117,64.71398317781858,92.04957292041881,-25.129263625481084
2.8712499,6.916871128344937,-3.8033157074075947,-3.3109499648996628,51.68515575024696,96.67225832400138,-31.488178775189215
2.8812499,7.259064392083911,-4.232172664431434,-3.318759070755483,41.2165907969764,101.10892801948141,-34.21895957394978
2.8912499,7.341218856517256,-4.401878299499388,-3.405518941354296,31.844147672010827,104.77324638152301,-33.82983619871085
2.9012499,7.141469366918234,-4.2039218399892775,-3.2236843167527107,22.13000883630279,108.43108425976187,-32.57697771364216
2.9112499,6.934132864062315,-4.1058464984650715,-2.9288327189404004,13.928935349855228,112.8155460227505,-31.37281889855536
2.9212499,6.8226458147519065,-4.226203124934676,-2.722759021771635,6.773942257880483,117.88280665750482,-30.132059962194898
2.9312499,6.788826370359904,-4.608907513990952,-2.415984185024594,1.3360992254619362,123.97482618140306,-28.32388558468491
2.9412499,6.915162933845702,-5.102072038116543,-2.098957796753074,-0.1417820778203616,128.30809244685346,-26.50036034055307
2.9512499,7.325215009858601,-5.581882367925927,-1.90619959433943,4.016608144431236,129.99071889713008,-25.554930035444237
2.9612499,7.660533378310596,-6.048667619371149,-1.7626386645210068,13.016690519112153,130.64474667074384,-25.12037906561445
2.9712499,7.608954623516309,-6.282490970285051,-1.7401979876279647,23.31635259352004,130.62775551431184,-24.615510190538497
2.9812499,7.607459524528449,-6.474468940990157,-1.7849897636219842,34.42978436759265,131.24943662504649,-23.87735598633058
2.9912499,7.822621337959868,-6.689136733275919,-1.5979703622383252,46.528189740974824,133.3055214653014,-23.131210493046304
3.0012499,8.056204956243423,-6.58392265054587,-1.2790030245264157,57.593806995241955,136.2660125032655,-22.79875784205839
3.0112499,8.390341789661194,-6.292388601899554,-1.102644692025333,67.37614621432769,139.54586840476418,-23.190720232139117
3.0212499,8.704471731972733,-5.971034885014516,-0.9364880640333311,74.67242496674943,142.56834608012085,-24.72565246248211
3.0312499,8.922621147582865,-5.636800336373342,-0.8616394167942873,79.57802003988253,143.83452925887858,-27.0946125101996
3.0412499,9.146544639239636,-5.401012260735205,-0.9496706550313059,83.86207003953845,142.68920433693896,-29.55854028306805
3.0512499,9.22282112035997,-5.273549811190624,-0.9226061468516958,87.97898996515899,140.0148329637903,-32.04815051338798
3.0612499,9.144208240009352,-5.102062313378707,-0.9792273479584997,90.29097531395816,136.56908965353463,-34.031752855507946
3.0712499,9.16260815508804,-4.859518799343143,-1.183362675297801,90.70289140554976,132.15320201875207,-35.06355471121053
3.0812499,9.38370939241662,-4.6754393779637455,-1.1758176641331932,89.30069841898104,127.78675572533427,-35.60074186135677
3.0912499,9.520592805420776,-4.545900564161352,-0.9175476410774913,85.50130227228406,123.76851432809904,-35.44616761990276
3.1012499,9.604571879666155,-4.447947869499094,-0.6916922848838946,80.42882087635505,119.7165361737077,-34.27599253023664
3.1112499,9.857753822523524,-4.472235502463546,-0.5752986974722356,75.52297745626926,115.28763439778191,-31.438251863124027
3.1212499,10.078659149088198,-4.693703875297054,-0.5015701198765443,71.01898867168129,109.79651312853417,-26.466746200541596
3.1312499,10.145478260415194,-4.9008487069212645,-0.3975832607174261,67.03802693403146,102.91139630435738,-19.926462939170293
3.1412499,10.270928489032997,-4.970655039480949,-0.34321562142608303,63.658646357560656,92.9876212441563,-11.60029866708184
3.1512499,10.370192869601535,-5.1275366536527205,-0.35545823317300596,61.79433065154723,81.37031401541846,-3.6189088998642704
3.1612499,10.308138505388564,-5.354438898090747,-0.330396607263746,61.26651925476891,69.76488261587046,2.548462565126667
3.1712499,10.183098315707202,-5.412009011931655,-0.32221544525067425,59.588128345102355,57.61946693492437,7.896914150118895
3.1812499,10.175715118466261,-5.3038080083292956,-0.36476597782252845,54.846013427657624,45.67684818703308,12.37067718562453
3.1912499,10.278065232187402,-5.133990818573329,-0.3725371678108161,47.36068132470726,34.87051108648933,14.914524212200321
3.2012499,10.346223385388434,-5.009429524884032,-0.16780583222672743,37.613725887484556,25.222296996027545,14.900085842922477
3.2112499,10.324485862721705,-4.913458131992072,0.23634121823557158,25.587211405213527,17.11121945842397,13.002869933515898
3.2212499,10.203007842767164,-4.917771740724078,0.6298495101661045,12.492487545947446,11.468736804344092,9.931747100490838
3.2312499,9.970914847105766,-5.008570284724407,0.9049556944326654,-0.5353083929321049,7.887756443099801,5.834885971955894
3.2412499,9.587631796550516,-5.131171715130416,1.0815761057611943,-11.96553863842528,5.252860210946941,1.0060354236607898
3.2512499,9.106494767230117,-5.369254916785739,1.2109064044300117,-19.999741709533858,2.8769653043936616,-3.515062473129921
3.2612499,8.671565709903687,-5.644530213460141,1.327073549946771,-24.44629114516849,0.6907014271484715,-7.150095301612958
3.2712499,8.383346299092942,-5.849923025065681,1.4366577686723907,-25.17513220092104,-0.9094282732542216,-9.75078402544354
3.2812499,8.228857074209131,-5.945543620390507,1.5928594386169184,-22.718952324120977,-1.7427079487431603,-11.330043612507806
3.2912499,8.105136155569019,-5.887753389575158,1.7545474740673237,-18.011198038244192,-1.9930111709779565,-12.228101916128391
3.3012499,7.984228641738856,-5.748155189660711,1.913350210262235,-11.98967910090013,-2.1231440336567062,-12.395329961532633
3.3112499,7.911589763124833,-5.603857703910991,2.001745638249514,-5.977248820043151,-1.8723402299682264,-11.71524558365685
3.3212499,7.80017992851411,-5.36137202033217,1.8766945691818553,-0.7711078648160687,-1.3940919770387599,-10.310975182391148
3.3312499,7.695096250815822,-4.981439055510702,1.666620348102779,2.9255116443651623,-1.6637467635984713,-8.782476540225328
3.3412499,7.679479055760228,-4.626054618765206,1.5289854761599073,4.504353963215359,-2.280627071963296,-7.411930306754169
3.3512499,7.767428745383184,-4.369765284826088,1.4607510625078064,4.3603077326362305,-2.6247733503157757,-5.730966150762261
3.3612499,7.927755761012405,-4.175741647330687,1.4566858851022606,2.9511475120768837,-2.6870131035297997,-3.9048214802375454
3.3712499,8.113038438908783,-4.126147711091534,1.5304791591273668,1.0427655900237613,-2.24184333857654,-2.4137255292870647
3.3812499,8.280470614894233,-4.120543606144602,1.619778475565069,-0.9763803608332235,-1.4700360221552353,-1.1992322779740419
3.3912499,8.35510181703934,-4.168842606460234,1.5761803753406212,-2.3513981222655547,-0.6977490974406626,0.019326485725662933
3.4012499,8.339354697963522,-4.3188643974589755,1.4595843379212823,-3.277203011070819,-0.15279427368960172,1.3831804222379236
3.4112499,8.255375391174326,-4.511228102161449,1.4119766061503984,-3.83613318797803,-0.030221775504219235,2.7262761598872864
3.4212499,8.225779427438644,-4.7242456216796125,1.4251605080743026,-3.5900244891079263,-0.08429056581223293,3.8777470590742253
3.4312499,8.294632921456332,-4.912314581157468,1.4600876825235312,-2.3956548344587683,-0.053088429661440055,4.583930815061374
3.4412499,8.331689912563423,-5.09708783634296,1.5205744315231988,-0.08315708689770772,-0.17053602068827667,5.061956866582623
3.4512499,8.317486345462308,-5.289128588302676,1.546985909680207,2.896993673344452,-0.5747169075621835,5.355669068300449
3.4612499,8.269058134128882,-5.359932906142012,1.503774403479374,5.466813916988869,-1.0744718969041132,5.655568802963444
3.4712499,8.20307843811488,-5.332714220782505,1.404027840245576,6.705425460569005,-1.8400705555667112,6.003052654677295
3.4812499,8.14397767317978,-5.310044367255461,1.2589401574244599,6.190285072188011,-2.7307241899902497,6.243424057756459
3.4912499,8.092779337572496,-5.22830656533432,1.1573062890723897,4.0521074449348635,-3.583319612587443,5.965296520671776
3.5012499,8.139951903064569,-5.147944915143571,1.1864836895796464,0.8302921309822936,-4.1791185451835595,4.952658520213079
3.5112499,8.33245953975705,-5.208347444422825,1.3114485247241103,-2.120009220774748,-4.086286209447396,3.7718642596294165
3.5212499,8.484521684714835,-5.30292246179097,1.3981126321081074,-4.246437838073508,-3.600600706959674,2.614372642296331
3.5312499,8.490585784855524,-5.360417909577404,1.3969434028971979,-5.566054623644626,-2.8868998920212023,1.6522141602463034
3.5412499,8.45825213852061,-5.419463836683778,1.3648088090137696,-5.7372736515195,-2.1378161368243047,1.0998665344675278
3.5512499,8.451283299609752,-5.4383196748251885,1.306866974438717,-5.57716425228201,-1.5481954349031293,0.8197096287397242
3.5612499,8.381595950020884,-5.366936223269017,1.1930970278576893,-5.5629465026750715,-1.432227900778995,0.4951618349575537
3.5712499,8.307523215099698,-5.322623219170525,1.1585739375357287,-5.716858759313072,-1.501243350836289,0.10301035536860892
3.5812499,8.309387938927825,-5.365899025702288,1.1855330998047962,-5.83873162630366,-1.4084991932973274,-0.3042699516999658
3.5912499,8.284849956061194,-5.478221143557066,1.1810887403216188,-5.347194238626099,-1.4586247872712796,-0.7453161795295545
3.6012499,8.177335941680791,-5.569982375116804,1.1601272899993862,-4.240725283533216,-1.4438393168102823,-1.0191187030808113
3.6112499,8.111939653737076,-5.597071056201758,1.1549915933677735,-2.783650740786349,-1.3494517605213414,-0.9401008793148037
3.6212499,8.105609772071828,-5.550364427618105,1.1810393030076798,-0.9945852423144844,-1.1498856386898435,-0.6217026346094285
3.6312499,8.143977584653477,-5.431336511417837,1.2680367565031163,0.7441611689273837,-0.5854586885964851,-0.33524734888484636
3.6412499,8.24984760249187,-5.347394398788537,1.3954197321702935,2.105794727851823,0.5035766762362308,-0.04263114675193172
3.6512499,8.285692016399292,-5.275612182792139,1.4751924463418933,3.2781644674450914,1.5686578119179007,0.413496429620257
3.6612499,8.229342952389757,-5.229200159327992,1.5001918423635656,3.855441911871723,2.4822441260261647,1.0110649462461696
3.6712499,8.15556110227738,-5.157076301143155,1.4737340835885768,3.9094770176688343,3.3467627019565054,1.63827843515675
3.6812499,8.075742981867302,-5.05649122100377,1.4692870579031105,3.961937146616233,3.6241017683660672,2.152679410404261
3.6912499,7.940069647460213,-5.0489732930850755,1.5322973714399708,4.379889968609197,3.3066233343140357,2.7840561217538085
3.7012499,7.754744645799207,-5.062945994980433,1.5888686643591468,5.066810776038053,2.6454853716771174,3.711698010873734
3.7112499,7.601951114227666,-5.054714425468014,1.611031013803337,6.218336400889871,1.7072395434630676,4.855050248099115
3.7212499,7.482604159268197,-5.077018458046468,1.6015027537469357,7.856341171670328,0.6042231789142062,6.560505747936989
3.7312499,7.3735615714555545,-5.097569104459666,1.6047079563942386,9.399807608616012,-0.36514274566400723,9.013220547706055
3.7412499,7.276745844312184,-5.057889095088085,1.6016702888351897,10.405143868473317,-1.3975471999641993,11.901629026694305
3.7512499,7.174978279442236,-5.01454468782438,1.5292403737287756,10.885600638801831,-2.720684335350937,15.011280342209933
3.7612499,7.021303476862881,-4.951348392172931,1.3239942314590543,10.292716485052342,-3.8923556362326104,18.225464122193568
3.7712499,6.844959769060421,-4.839970339972488,1.0666618977950073,7.607436990905015,-5.235676068993038,21.815925813587633
3.7812499,6.682752183054626,-4.773515807223672,0.8846395575796462,3.9131915639068247,-6.643565079509742,25.41480405725935
3.7912499,6.51647193946135,-4.741075516787509,0.685302884963665,-0.08212970178857751,-7.524877195997497,28.415694502614095
3.8012499,6.32368785228549,-4.717274265337807,0.39101663321386787,-4.518445130069072,-8.451525715059924,31.769991956563278
3.8112499,6.133695758917545,-4.7001006921923585,0.1083577341251714,-9.115798678186314,-9.169057702555145,35.47974507088744
3.8212499,5.982996305551613,-4.660901896231305,-0.134130875514701,-13.978279997117077,-9.195742775092414,39.308122594678984
3.8312499,5.817969172000568,-4.623375075794177,-0.4205957210484022,-19.26201509108572,-8.575817663550994,43.59308331024416
3.8412499,5.589943554440252,-4.614241016397024,-0.6860436141415873,-25.168047470482055,-7.754920045957851,48.5265965728209
3.8512499,5.328468697335747,-4.6109633051484575,-0.9603664040255115,-31.279663320566247,-6.558558101620403,53.73574468875734
3.8612499,5.0599293778293095,-4.666575797229245,-1.2817363190891091,-37.0866775208313,-4.786519377150269,59.35880258798812
3.8712499,4.853014311806205,-4.805412458589592,-1.566055313719479,-42.7343815856348,-2.6628461551620197,65.77781476904926
3.8812499,4.719741639169966,-4.927874807277289,-1.7824191517583636,-48.82184122869297,0.23489528333200532,72.46221046833737
3.8912499,4.537265671576365,-5.063071541002549,-1.942170706467357,-55.26934789597644,3.4892350756930868,79.36546846654257
3.9012499,4.296014295031717,-5.3167302512985515,-2.1322782491124808,-61.308419037810445,6.640200114248864,86.77497946291487
3.9112499,4.077708189936129,-5.582583327792871,-2.4744454755618444,-67.40704962397345,9.666982638754826,94.51527669311875
3.9212499,3.881526477100275,-5.802214926324306,-2.8808843382798512,-73.90560516149445,12.493054457937165,102.61261935173883
3.9312499,3.7937092895992244,-6.0653435516572705,-3.182626509241616,-80.245957291416,15.481555952007676,111.0517182980771
3.9412499,3.7612850538534333,-6.431870277920182,-3.384925336225186,-86.33676857994102,18.587279666372385,119.78322299642518
3.9512499,3.643362748816291,-6.793567613192604,-3.612520273699667,-92.82175081181292,21.776913494292845,128.9545633588627
3.9612499,3.4753507398452164,-7.111353542424849,-3.8802785794856955,-99.88871470092424,25.0132795177083,138.12149132759416
3.9712499,3.407637452725299,-7.380568664836001,-4.120181517688697,-107.28545808601426,28.270683609899702,146.8107867785102
3.9812499,3.3881300598288915,-7.720274050351071,-4.341211230615397,-116.45240467223726,31.65771051914607,155.98789333422465
3.9912499,3.4033337290911407,-8.293348788662795,-4.512552260996301,-126.11791511429666,34.79701836877057,165.64644659955815
4.0012499,3.486760298427329,-8.86948074041582,-4.664170889013453,-134.34760617856014,37.62023639977755,174.27604456037167
4.0112499,3.6189793699732995,-9.30608106770947,-4.796737160405572,-143.02048369737355,40.7175790467343,182.33095766774636
4.021249900000001,3.80670542961547,-9.82862300781541,-4.849810725209854,-151.71644324024098,43.680857918796775,189.86350651081204
4.031249900000001,3.9845787321368524,-10.500774188301188,-4.813905116651164,-159.68246039797762,46.51726507047507,196.84032045203202
4.0412499,4.1723946893269535,-11.253513310667264,-4.785201107777614,-167.39840439667094,49.41530748558038,203.74970713653363
4.0512499,4.398973667732765,-12.131414087458447,-4.671220771478545,-173.91994916135303,51.971032333821626,209.7853824950122
4.061249900000001,4.638339685030311,-12.948949381747395,-4.4990721585895805,-178.87417445365605,54.84897448170608,213.90745428500276
4.071249900000001,4.834649525273045,-13.65871803274174,-4.531935378932935,-184.5194200108868,56.86543041240807,216.44837585655327
4.0812499,5.233799168922862,-14.595721240249684,-4.537158686967974,-190.20650462679893,58.45432531687048,217.13649703946407
4.0912499,5.674182308684476,-15.921670712059527,-4.253211089173832,-192.93540118531166,59.83252771355769,215.28119984385262
4.1012499,5.99792986593876,-17.065602234965535,-3.9845472162046773,-193.76420013842215,60.12210488577291,210.5432938922418
4.111249900000001,6.517078031952228,-17.906317137052653,-3.8478286509275392,-193.64196346023715,60.549921579686234,202.71031643561767
4.1212499000000005,7.141048335804281,-18.926341101713742,-3.299929020913559,-191.7693415130444,60.52753974224538,191.5800608827692
4.1312499,7.931980450196967,-19.871162112210428,-2.4198059867234365,-189.82458554638856,59.30312105115256,176.77390523091637
4.1412499,9.028620339051567,-20.446210318280563,-1.5922220775926599,-187.5265583370836,55.351894877729734,158.28132335381676
4.151249900000001,10.773612607902399,-21.35511246498931,-0.4681943904479637,-178.50095418913043,45.079547576923034,135.39101934558423
4.1612499000000005,13.760191810264851,-22.967138480389846,1.116787352042847,-158.0906813985269,27.449341126994295,108.13774753718512
4.1712499,17.834818158803632,-24.86998860302609,3.3215378661975326,-126.07972999567757,3.7473320290845327,77.62636863558271
4.1812499,22.174182047489893,-27.23089742765621,6.20303286354495,-84.06542644608508,-24.41255779354688,45.08019164470115
4.191249900000001,26.29149497651261,-29.011926163185105,9.280573483355788,-47.185680317978544,-60.78721447367799,1.0214464042343943
4.2012499000000005,28.80751750812923,-28.152454718915084,11.748345886256594,-48.32300073139964,-101.12389619133135,-60.585948047741866
4.2112499,29.149169829950488,-25.573114550729347,13.359416867178936,-101.18434986287293,-137.08435598247388,-136.3475028838361
4.2212499,28.810927691176428,-24.551062495185672,14.19473647898886,-184.38407765889883,-169.35602969698044,-227.04305520682735
4.231249900000001,27.630653245411334,-27.303543789567865,14.765233025550462,-264.9537074788299,-194.38340248351574,-322.8170516214006
4.241249900000001,24.409697803396565,-33.262325209320586,16.852953186166967,-312.52817499168333,-210.99347464131898,-420.3447751977706
4.2512499,18.79647298748321,-40.161722469139804,19.527888758664627,-306.1583596421481,-222.7849271971649,-490.9280048513363
4.2612499,11.429364021289711,-44.84828805925838,20.49852859015638,-248.17997556256788,-237.08790430299698,-502.5584466463563
4.271249900000001,2.290731552730088,-45.22641148982337,19.602379286279348,-166.26948617374322,-264.66480291450637,-498.86678090767293
4.281249900000001,-8.006200097591853,-40.5455889354097,16.19176760910596,-96.60354184269906,-308.6330647755711,-500.55614526551244
4.2912499,-16.702263512930294,-30.404806064820303,10.107306967038603,-70.00272052224985,-359.16656623793017,-499.1339731495975
4.3012499,-22.689094649356026,-16.653751606004214,4.998575744983832,-103.4664122564655,-395.081771450509,-501.4215117042622
4.311249900000001,-28.25443630522196,-5.808977359113686,2.4398180281753965,-175.61785318947926,-403.58801086291214,-496.7972926815487
4.321249900000001,-31.012999143331882,-1.322287603414385,0.23553957938725037,-230.08675543390672,-379.1622334143945,-439.28421209248916
4.3312499,-29.02389014822648,-0.244093543041468,0.09012040270529235,-238.83061740462566,-320.9291247063544,-351.084014895325
4.3412499,-30.462862366852708,1.385780078573601,1.0451711770363614,-202.77067746347893,-246.28290847998824,-277.6133121692708
4.351249900000001,-33.7157330620635,3.8301589152126034,-1.2750444261275844,-137.97194320042607,-179.3825326983169,-220.9547519604207
4.361249900000001,-30.67082914192461,5.235884530552698,-3.00934305748589,-73.30489677758308,-117.02513289399037,-170.61778759500652
4.3712499000000005,-27.266472445192008,5.400073303852549,-3.6227686729989337,-20.881149972754365,-57.490192526691864,-121.25680533885357
4.3812499,-24.84814400559017,4.219450144237076,-4.562842994542733,19.52758570425971,-11.42687653760981,-75.8532405291157
4.3912499,-21.719031446791824,2.2585160859888167,-4.734757242483425,48.636034138246046,25.897433724824356,-42.08108679215775
4.401249900000001,-19.769480984981637,-0.1554859618131817,-5.064526947875183,74.70470441494051,54.88725897211778,-22.46390228565333
4.4112499000000005,-18.018842197393376,-2.225110108672275,-5.700186945591929,98.31434076134329,71.72129748490897,-14.711194288783533
4.4212499,-16.04656704797442,-3.305379458438723,-6.425924079195209,116.07086249638607,75.91072290284357,-13.314366847675982
4.4312499,-13.115362334618668,-3.836436443383258,-7.365613339648543,131.09291580945336,72.88088181723192,-10.372911054749762
4.441249900000001,-9.366314018533338,-3.858650349884867,-7.73001135567923,141.62035900133924,66.84527874660624,-4.190380507857023
4.4512499000000005,-5.91855618135375,-3.555928199139547,-7.497229149225318,146.21861812396125,61.25600466140862,3.574075894049636
4.4612499,-3.06507028327434,-3.363367533108458,-7.374054013977642,145.33751490944456,57.056516531099895,11.125875016775746
4.4712499,-0.664333000151023,-3.381122750558081,-7.622343099469582,138.87448856970192,53.27411647648349,17.890716828614273
4.481249900000001,1.3262676638518547,-3.238366151340021,-8.204142538937269,125.56403644501894,50.84132640973356,22.873746253985573
4.491249900000001,2.9752336356556874,-3.323333932708013,-8.918105988895888,107.67766409652023,51.16446762211476,24.02257693757789
4.5012499,4.273269010624603,-3.822021358963132,-9.550512870578258,88.28789184710313,54.106072421066315,22.212984586656987
4.5112499,5.088217732063197,-4.234977638871022,-9.938463552794119,68.00978680343134,57.870420126170984,19.224519793495656
4.521249900000001,5.548287295268156,-4.3199190042456825,-10.114130015853753,48.259053201185345,61.12370227684134,14.694027495658371
4.531249900000001,5.974440012858839,-4.25389125336219,-10.111911852930753,31.92168220117807,64.90631861893867,9.052083673683716
4.5412499,6.226278498524663,-4.597125351949431,-9.93019210897159,22.453892749578962,69.66989881565156,4.4296214110658285
4.5512499,6.157695693588356,-5.280355599261826,-9.490597991369164,21.259371278144833,75.82648114358648,2.307280785384574
4.561249900000001,6.019452904407402,-5.8139931285995194,-8.878712977272585,26.717442585964427,83.51864515725357,2.208108802182673
4.571249900000001,6.110163672338599,-6.047111411606919,-8.63269082703734,35.45433178193707,92.51670008656882,3.2414929083842
4.5812499,6.139083947164411,-6.000744297615623,-8.71850420292689,45.06245414395311,101.35412813215586,3.8883863355589265
4.5912499,5.798933448236111,-5.893381475825776,-8.606454688298648,54.222306828917205,108.7597722237076,3.390687298583204
4.601249900000001,5.435455922750519,-5.746077598674773,-8.395819720089156,59.81564267368889,115.09517569409942,2.058365693117136
4.611249900000001,5.303838093687457,-5.586719922032901,-8.344693107184202,61.90956699501701,121.68844066490378,-0.7500592489977388
4.6212499000000005,5.153348181951803,-5.589346181055213,-8.214740263503122,63.37700944048072,127.38845866761119,-3.7598660274296587
4.6312499,5.100143191978084,-5.59096582317269,-7.757535231360199,63.92499768677781,130.92291766167338,-5.03337532075363
4.6412499,5.280362310231958,-5.677427231656544,-7.258298414579025,67.04011394631692,134.9008228470276,-5.385370296915245
4.651249900000001,5.420413614117708,-5.554708791178002,-6.7378713725420045,70.20881428270728,140.3129748614446,-5.568962980944829
4.6612499000000005,5.384778294812846,-5.25909821620303,-6.210928943381253,72.43321320048416,146.4432275080117,-5.618622480351241
4.6712499,5.514953223900358,-5.4418324081521305,-5.826335446606796,75.68845999550997,153.7153942729584,-5.773511412893555
4.6812499,5.917586000389216,-5.3807844857369975,-5.574509798921958,75.52185175581135,161.7790703621352,-6.598463896518648
4.691249900000001,6.510198769572873,-5.196326180138206,-5.421846300765211,73.8360775550818,168.69685039773603,-8.485475906883883
4.7012499000000005,6.951919819646083,-5.282162722870125,-5.086207963670923,72.74621509546506,173.8562686517702,-11.441900164290026
4.7112499,6.9650786224525785,-5.345954601539756,-4.5351123661207975,71.77896232924662,178.28184523327957,-15.013960687601777
4.7212499,6.860710035737153,-5.562222322214157,-4.06922120304348,72.91105513990051,182.84574726066603,-18.427517088604763
4.731249900000001,6.736556888196297,-5.943412440686771,-3.5363246327531117,76.45315992290567,187.21960374165826,-20.665727581812234
4.741249900000001,6.5300129843635935,-6.299272289218764,-2.8032892823369004,81.40296741966831,190.88587906717277,-22.23119666275452
4.7512499,6.423332679889018,-6.406824475122399,-2.1769228108818437,86.07897785266415,192.52185644977672,-24.050082381208618
4.7612499,6.474245396233252,-6.237999710067332,-1.7455919828609563,90.05336266041643,191.9134239694662,-26.709573237181502
4.771249900000001,6.547776864846469,-6.000354783078706,-1.4837059261472942,92.54763142621533,190.22964474100272,-29.877076904367257
4.781249900000001,6.64622822487348,-5.913974436353409,-1.4839536662586654,93.52444604662146,188.7957374996747,-32.221587972368745
4.7912499,6.841679788273178,-6.287250597790012,-1.5458050532086682,96.05304128411349,187.62042779351248,-32.462181962920056
4.8012499,6.755051119840477,-6.723886651432269,-1.362517818058431,98.73935012801856,185.08576616498024,-30.650083048378885
4.811249900000001,6.31405387975782,-6.546571623268977,-0.99889290445746,97.45709817614205,180.85899262181863,-28.60202003523162
4.821249900000001,6.285402697013586,-6.1889507743551775,-0.6471903740060929,96.22263707935595,176.4922007464563,-28.570132402030165
4.8312499,6.617448055039364,-6.078739352660972,-0.2800720644424227,97.74883721394876,171.69555704451147,-30.936383048051134
4.8412499,6.819334828605382,-6.105163974787955,-0.0233993651336201,100.29024454966475,166.54926148226437,-32.952695327650126
4.851249900000001,7.0964974482779075,-6.259370281832725,-0.10873685879131949,105.27721098141673,160.92727033998756,-32.968808086800955
4.861249900000001,7.453144251998943,-6.385748639170135,-0.2133003412338716,112.34369682919576,154.31841944779973,-30.486125437475607
4.8712499000000005,7.88501701356168,-6.306001493291387,-0.17822671148820135,118.05981830008268,147.59500864560923,-25.621604206827588
4.8812499,8.392757196337948,-5.948226288654972,-0.3136538089908896,120.33512318054926,140.21398551680616,-19.89241719649981
4.8912499,8.99029333757528,-5.413488633415294,-0.42270022784502,119.00664998739579,130.8735847041241,-14.985529721615725
4.901249900000001,9.611856194365057,-4.847242241301929,-0.47013636268280906,114.17772139871781,119.73944707949575,-11.99342180891614
4.9112499000000005,10.042698305640107,-4.455407857296497,-0.6456541052645596,107.07164934320227,106.00889157726895,-10.244608647370095
4.9212499,10.266683001868252,-4.328900251373571,-0.8064012800153706,99.4460315676669,89.27456601820192,-8.641784507046559
4.9312499,10.49950410084496,-4.316710096930054,-0.933389330241076,91.60100549479395,71.5487389310178,-6.612656982645313
4.941249900000001,10.769254609757382,-4.30546140208155,-1.0537819956491141,83.56146060771546,53.666355935357615,-3.3571126552714654
4.9512499000000005,11.104657839090187,-4.4037534717640625,-1.0313871393849665,74.93637913019037,36.593429438744174,1.4509000874056233
4.9612499,11.32851186964141,-4.290794666291732,-0.8039786417189206,63.195626337201,21.504738794907645,6.816995500279775
4.9712499,11.425441006248999,-3.9131458144649724,-0.3294332551460387,47.330808355196034,9.629906392767989,11.296751682404892
4.981249900000001,11.48509562420659,-3.7381094510424075,0.34344071232517026,29.15819416395832,2.1792845104123906,14.59077976683687
4.991249900000001,11.325338150429658,-3.773478361464087,0.9699582979831752,9.362561747321047,-0.6172310845671668,16.987123892626283
5.0012499,10.756830789235464,-4.056153465670524,1.294553817995457,-9.486881270128485,-1.2293772757638144,18.53159393518709
5.0112499,10.118873547266967,-4.6105717546368785,1.313993917999825,-25.003670285383897,-1.0635062373011304,19.301894831912936
5.021249900000001,9.519755151546002,-5.136516785802814,1.2596909274570316,-36.478080225909224,-0.7134341037941424,18.88816473179439
5.031249900000001,8.807809017828136,-5.60463402439582,1.3173629526164947,-43.60716891929747,-0.5566711634621685,15.788028753336325
5.0412499,8.318901683581162,-5.946899792694513,1.4490285019425986,-46.335536715573525,0.0545952181054721,9.826092680746683
5.0512499,8.194955203496308,-6.206457905944137,1.6445315922645047,-44.50731214764454,1.0220931238768032,3.2069318843589065
5.061249900000001,8.1244486975902,-6.5311555922646285,1.8663026883542455,-38.9879677307935,2.4497923579673944,-3.068972475349401
5.071249900000001,7.926842114012618,-6.760986567570764,1.9976207995810031,-31.081168311467792,4.25695218713258,-8.46529263002464
5.0812499,7.726823210991508,-6.781800599096523,2.0659887990448533,-21.7960644477785,6.053049154990029,-12.383910274186416
5.0912499,7.722621649794932,-6.669768428904741,2.1247107191301735,-11.862329307717577,7.833329273686499,-14.863147554523332
5.101249900000001,7.798711046505948,-6.403259410800199,2.0654018533018585,-2.2721713239062127,9.468969082167854,-16.196413718483118
5.111249900000001,7.874049320854847,-5.942900530431637,1.9536827852856977,5.495336825118736,10.8150461561535,-16.96267768722355
5.1212499000000005,7.9976133825833156,-5.365162810951518,1.9355741307637855,10.323607949761639,11.65158137575624,-17.43661469244165
5.1312499,8.126615562353908,-4.879303340827711,1.9361937997986458,12.332345330724133,12.068695590395041,-17.559343054789395
5.1412499,8.179741040994998,-4.526370711381485,1.8635360857634984,10.818477131599009,12.863081083233089,-17.23131606155725
5.151249900000001,8.135414554761693,-4.214977935790273,1.7033568737409164,5.941567941786365,13.269978472175229,-16.499618185455933
5.1612499000000005,8.157290580933397,-4.0788154975082005,1.597207126019018,-0.39048032436975805,13.141355512337066,-15.35651384749984
5.1712499,8.299552239408818,-4.095345751247546,1.5909833974172107,-7.018529653431762,12.90621366193086,-13.74812380631089
5.1812499,8.35614880965704,-4.266930991220719,1.5815135097619069,-12.395565610249394,12.257639106400012,-11.446130232484956
5.191249900000001,8.333291708974276,-4.5261342266729905,1.5917551650980302,-16.123593585377435,11.661667780752428,-8.299007730234731
5.2012499000000005,8.359230705091457,-4.755594512985233,1.6531917228960331,-18.0108232588437,11.262466638625536,-4.763722164570302
5.2112499,8.378709985684337,-4.963471845652012,1.6559192214216445,-17.48041939008799,10.671945513292023,-1.4339213027489461
5.2212499,8.296696311474067,-5.146925614273902,1.6133394427606882,-15.206573708473464,9.545360763953992,1.6005957146079282
5.231249900000001,8.208562890502124,-5.3258882445048545,1.5938791347697063,-11.526903282726282,7.942133741229791,4.150687241436514
5.241249900000001,8.178709089922522,-5.43915792940516,1.5198308312651474,-6.548407432270604,6.083403289382853,6.237971883580975
5.2512499,8.112517134827975,-5.539653365157454,1.5027846402385838,-0.6538211426226733,3.366741561916551,8.051320236125374
5.2612499,8.111545404019965,-5.582650331309632,1.622737510425498,3.5744828642208595,0.9876444961557297,9.151336365566138
5.271249900000001,8.208996618038379,-5.490473960993556,1.7258862508646393,6.15757967939221,-0.40427121717320563,9.297280656293976
5.281249900000001,8.272393057527337,-5.413124806030347,1.7847321483771166,8.611204889538639,-1.7924073520387234,7.960504425110194
5.2912499,8.289797900213355,-5.376842108049888,1.7535514554364302,9.537242839101895,-3.410553650328905,6.2275716361244315
5.3012499,8.192735154494711,-5.384959269655021,1.6241905417584412,8.818723456426165,-4.860441625433725,4.860306462094601
5.311249900000001,8.031240984802405,-5.335755116207481,1.5023308711629226,6.614485636891677,-6.2951324161557745,3.4420853392391697
5.321249900000001,8.013341908440387,-5.210160520749369,1.5336228983660267,3.0134652601868583,-7.499568694298296,1.7584342854154245
5.3312499,8.060979825088998,-5.122532201219079,1.5907372593901894,-0.8290764718000987,-7.753360467439007,-0.46040292918136394
5.3412499,8.05072830457935,-5.1574627461904266,1.5383679526548235,-3.3774478973593847,-7.714092827500268,-2.7714505450497953
5.351249900000001,8.144246281941848,-5.316838028490281,1.5916660254261168,-4.090820389560064,-7.636968826473929,-4.3703890466666495
5.361249900000001,8.308580004990025,-5.470094812113757,1.7356353492819108,-3.391680430029093,-6.8412481740883,-4.747675697831748
5.3712499000000005,8.417517271163742,-5.512604984913128,1.8060833732480124,-2.0348076680671157,-5.349312773711268,-3.899515085301883
5.3812499,8.482782131091609,-5.569512565430219,1.8116278180598886,0.14783954284958728,-3.5968140510897766,-2.4206600500708455
5.3912499,8.482934890280655,-5.577145495572512,1.7435614047683103,2.8737084146198737,-2.144816613741244,-0.7560833272801877
5.401249900000001,8.448989396490974,-5.506592330751348,1.6095934674606849,5.534215478006106,-1.2193675301248161,0.9200852124803299
5.4112499000000005,8.336657207777558,-5.570863655278099,1.5159977967323257,7.84765052637039,-1.1223451729364413,2.8642657678155
5.4212499,8.177413267120679,-5.644610938691294,1.5326980156839272,9.322683254744181,-1.5901231974263055,4.631609143007209
5.4312499,8.070350229268245,-5.534636334933687,1.5745633968306065,9.461380641238714,-2.407997856147132,5.574893773051332
5.441249900000001,7.978155499640897,-5.449675382845824,1.5574132662058486,8.33055619738356,-3.716516413217373,5.842882934443587
5.4512499000000005,7.852711761897503,-5.583081122419874,1.4764799896536573,6.600282725375763,-5.400415083905472,5.77062549769504
5.4612499,7.696505354300684,-5.694534729718343,1.4024102627649901,3.961501112995813,-7.1516783339569905,5.1134718037198095
5.4712499,7.639432593236545,-5.656127868216649,1.421062657934213,1.1382903731944005,-8.503653987815317,3.4034309706423245
5.481249900000001,7.745401905214531,-5.677091929415369,1.4537776630356272,-1.1524189804388492,-9.467377378845331,1.6183613173527052
5.491249900000001,7.952837212225651,-5.85600485632762,1.5194511082025821,-2.3046882493994985,-9.729631318495754,0.23457905273218632
5.5012499,8.072029470154183,-5.984675374340836,1.6399288939527568,-2.209937853865333,-9.540694623448305,-0.7209956151701379
5.5112499,8.108232484159815,-6.012011995931048,1.7552571197838405,-0.9653288893141979,-9.2819704675032,-1.3071526749301394
5.521249900000001,8.14731625520028,-6.062134282954992,1.7608505305897857,1.3829614326670339,-8.818860875290927,-1.5541871568860108
5.531249900000001,8.097207231376856,-6.072221529606367,1.609581482643521,4.395196864527189,-8.55139089177975,-1.6040889006596473
5.5412499,8.003441292050331,-5.96920816675011,1.4697833066821955,7.3605748982436525,-8.82336750788261,-1.7772363204364274
5.5512499,7.951369461298049,-5.827983368085662,1.420767370083454,9.77429619973274,-9.014916200424778,-2.2188762131495485
5.561249900000001,7.897089849127433,-5.623538262445113,1.3309907451205072,10.92897464544676,-9.103419826124728,-3.021298679832249
5.571249900000001,7.91056359364645,-5.426071377943485,1.2218853753583414,10.253779200733327,-8.89852666606815,-3.892990576399514
5.5812499,7.972252441321322,-5.347447936927137,1.1588349744359485,8.67518348912196,-8.12159496606544,-4.608620596435254
5.5912499,7.937913091827174,-5.305384944236481,1.13731714315736,6.953487921217133,-7.54828798382523,-5.200485839768479
5.601249900000001,7.894642017028803,-5.27092806801159,1.1535822180844182,5.087218035151391,-7.179728046407478,-5.530049113837692
5.611249900000001,7.976238195056584,-5.285800312846307,1.1455015184478532,3.6910349357056873,-6.4065721104876845,-5.477015424693582
5.6212499000000005,8.052582504648727,-5.287649143683722,1.1630741755059406,2.54425259649982,-5.60911782465294,-4.950547016787481
5.6312499,8.121410018841951,-5.332914322589138,1.3034572591561187,2.0550633634944795,-4.521049137263994,-4.134473944116176
5.6412499,8.174904519491438,-5.391607216493705,1.426357740244999,2.364790770849086,-3.1386964912303967,-3.1397248301915996
5.651249900000001,8.151328446239024,-5.396379152516089,1.4247103173613396,3.3712835110259864,-2.268516909379245,-2.1512375931013956
5.6612499000000005,8.114090282032784,-5.401817918391503,1.3921856615808508,4.733338774441115,-1.8453913535714233,-1.2589143755510261
5.6712499,8.06518300256937,-5.406277217661963,1.3914763927802603,5.708217337053916,-1.3903383510117968,-0.18368494649598166
5.6812499,7.9256280876615115,-5.405141001359046,1.3915433624794022,5.998184369922722,-1.4550169188930266,0.3081058860638866
5.691249900000001,7.85952699883961,-5.389081101256242,1.374780542788759,5.908024546742641,-1.801892619841795,0.3204610621395828
5.7012499000000005,7.930197842751136,-5.356212391021677,1.3924008590244379,5.3178420150464305,-1.9648282482767687,0.3140935802746104
5.7112499,7.9493516263947965,-5.321271140756515,1.4097086624956086,3.855879831585068,-2.181427380643542,0.2204574246281374
5.7212499,7.932973895484123,-5.338301013518565,1.3883776417687475,2.1131121523105,-2.4653318145083354,0.3008012405886176
5.731249900000001,7.966115607097764,-5.413036671664621,1.431334797984053,0.4843688911602521,-2.5524823512364976,0.5615519905992593
5.741249900000001,8.00783958787256,-5.4549324189515325,1.4615104032098365,-0.8036856608932044,-2.579200914285348,0.657170215149329
5.7512499,8.02962478633174,-5.52960455846093,1.4596381064775104,-1.064353687090025,-2.588960333056611,0.5895144212978107
5.7612499,8.00921773666748,-5.605927462760761,1.4766058468456842,-1.0493279722433149,-2.3992044585228154,0.5917401405934888
5.771249900000001,7.961309411306999,-5.628961768986185,1.435018132134853,-0.8124054674706341,-2.500994528505678,0.8041485069349457
5.781249900000001,7.985899167229874,-5.678124248036421,1.384414603020618,0.23963620542975245,-2.405959347563703,1.0050685465996896
5.7912499,7.969872986912848,-5.702286431587518,1.3330705208750127,1.0947348917426654,-2.004441409048126,0.9866146404304005
5.8012499,7.87785897744156,-5.702674087780001,1.2361693940719514,1.4095450026537926,-2.041860382958746,0.7967833541986608
5.811249900000001,7.934335786953486,-5.713351363624835,1.1966684005034327,1.9765717701242536,-2.1063814549638202,0.6175486892062163
5.821249900000001,8.022177591588914,-5.700038759904319,1.1910688837903431,2.782036681108536,-2.028582176528595,0.5679189011671587
5.8312499,8.040647409698236,-5.691730849695424,1.1856753637399227,3.1788132746721955,-1.7944132995806663,0.9450484750721511
5.8412499,8.084981922646625,-5.628605995341706,1.1690425149572983,2.9806733384443107,-1.2554605742677973,1.5428217554154209
5.851249900000001,8.15155140657442,-5.539201006744973,1.1124193594192202,2.457506256713649,-0.8496620558352178,2.223294678034
5.861249900000001,8.183255940851772,-5.491234135819691,1.094130851211724,1.4106763065446377,-0.3948732469588829,2.704889090589039
5.8712499000000005,8.182763589718277,-5.446463830817345,1.131772934372343,-0.3521648430035258,0.1502771133931588,2.8833705633028517
5.8812499,8.169012948586381,-5.497042148041107,1.1542434974681894,-2.119366221349621,0.8000417712133332,3.0078512385057126
5.8912499,8.086666298471865,-5.636733107162277,1.1286355029123982,-3.099372645610103,1.3294379053204648,3.0791777174568744
5.901249900000001,7.9708137928632,-5.704101537477864,1.1265414553999649,-4.062392089101246,1.6106225553886295,3.055297021763939
5.9112499000000005,7.950025419630855,-5.726742941934293,1.1777724672099483,-4.8307898438582555,2.0249050593196567,2.844631872671422
5.9212499,7.951403051822029,-5.757717286163502,1.229266512431426,-4.763395909698372,2.4724463423827046,2.6074830708725845
5.9312499,7.930792229146557,-5.758156166715133,1.2870100434254204,-4.594632407464042,2.8432878653358458,2.649078410690824
5.941249900000001,7.9048349435787,-5.767039215149193,1.3366896120675456,-4.280690108925207,3.396627350932349,2.7382399579240735
5.9512499000000005,7.856546177310558,-5.765077081484827,1.3708629202112175,-3.6886639642588483,3.739659434572871,3.080550808318821
5.9612499,7.823266694249772,-5.742477664389644,1.4207276419088013,-3.109146836068763,3.985696452088788,3.78045786472292
5.9712499,7.767842491089499,-5.739963048596945,1.4219978575054424,-2.4673304749489406,4.267375117631409,4.508166047014373
5.981249900000001,7.7368821516976585,-5.720460900685763,1.4223728106111915,-1.6825265686939035,4.380305880954495,5.121856352372704
5.991249900000001,7.712053522977865,-5.630646318564388,1.4584205016995577,-1.2510425873129347,4.604784010805032,5.447667942792998
6.0012499,7.584690553530019,-5.564812095834056,1.4849589122714835,-1.0478448527735373,4.737818914464429,5.733825290425013
6.0112499,7.471598333015127,-5.564002194883678,1.4610321542301519,-0.5960976071481967,4.638608789145724,6.261133011320242
6.021249900000001,7.370466062294501,-5.560085311126709,1.3693387080827646,-0.16845611915328726,4.513848054512669,7.528769863767356
6.031249900000001,7.270580938552531,-5.542649743645963,1.2941855787495564,0.042148852020065845,4.4492261876900985,9.210538161169989
6.0412499,7.204157044858345,-5.478390719896799,1.2717287740449579,-0.08166727431054611,4.573075915981743,10.94454616789713
6.0512499,7.157961270144344,-5.437551589763235,1.2516954414579513,-0.3012752193466452,4.856182272906806,12.74822262009795
6.061249900000001,7.083456667031927,-5.379648115672674,1.2038381078727154,-0.8350119858839038,5.292070105334086,14.92089957515128
6.071249900000001,6.953461463362791,-5.257914475124468,1.1367274907436737,-1.9650142972405358,5.724512650823242,17.28497110864624
6.0812499,6.813338465354746,-5.2267492868357595,1.0579466866593177,-3.1704456903717357,6.099503490989937,19.70866193045537
6.0912499,6.667039350834431,-5.267404647807771,0.9359713072516802,-4.564708463885271,6.461191425162251,22.99791054412275
6.101249900000001,6.521924409563424,-5.249755903458757,0.7881020789896328,-6.475992129116441,6.858359675494157,26.787649332415036
6.111249900000001,6.4093624359883385,-5.2073409460956315,0.6317411281343923,-8.613402537329286,7.158392096649914,30.315237194586643
6.1212499000000005,6.3283898303595825,-5.152307555259465,0.48588420522524556,-11.631961084014957,7.91775419075216,33.77109361858493
6.1312499,6.261535381815208,-5.1115589628466545,0.3484296089886843,-15.382162122797782,9.199748149100154,37.20545974922594
6.141249900000001,6.1863128138193435,-5.136268336178629,0.19541456328261955,-19.330325551632008,10.882793214648224,40.72099422315474
6.151249900000001,6.076440777196006,-5.183416957066973,0.047727076785424566,-23.720594166572383,12.95102611005372,44.23223217939976
6.1612499000000005,5.913611173500851,-5.286457866307475,-0.07295649422680912,-27.69709824210524,15.694949666582291,48.16029835480089
6.1712499,5.63324274064203,-5.401949003137605,-0.29082044999430856,-30.465159047064304,18.430543171134076,52.61695999505939
6.1812499,5.317784046328258,-5.463459849441105,-0.585743657106021,-32.71808999631703,20.94187656116927,57.71264835961322
6.191249900000001,5.0714841880429224,-5.3882489468962635,-0.8193272344354903,-35.89669881548534,23.63989519384761,63.588485088844735
6.2012499000000005,4.716472369759354,-5.174965510924805,-1.1358716195168275,-40.3429038400554,26.412560650387917,70.32672212447387
6.2112499,4.257083450057722,-5.097747438723657,-1.5427440629335702,-45.84982977371764,28.58639645569126,78.34093763073462
6.2212499,4.00574643043825,-5.520225097621038,-1.6271428392932041,-51.97490482928121,31.12481788566955,87.70275315847934
6.231249900000001,3.8795461711722874,-6.191958909231215,-1.5076086045900374,-57.372939334873415,35.146764816862586,97.78712612062263
6.241249900000001,3.592441994873137,-6.6040504618525375,-1.6370080654388466,-61.60370695573377,39.55202685656112,107.08380186825892
6.2512499,3.348980599370297,-6.8747082657510905,-1.7890001831516413,-66.95715354798301,44.367756023287036,114.68221598527765
6.2612499,3.218863143558657,-7.1692409988148365,-1.8173757908330261,-73.57300128022966,49.965850821445336,120.79199746527068
6.271249900000001,3.005178345492816,-7.33697375594653,-1.9714772628338904,-81.39165342490463,55.27006329395428,125.95268423811166
6.281249900000001,2.7526037939925994,-7.287946728522606,-2.3201684636961697,-91.121398626672,59.35606372548774,130.84267393745012
6.2912499,2.676484298598545,-7.2217468712749096,-2.6422361984193534,-102.82627961354454,62.88251291282259,136.57256156623444
6.3012499,2.7219580274406034,-7.327564887710291,-2.8392366043948067,-118.85048491578122,66.93323446200142,144.6692076485116
6.311249900000001,2.7925477048418097,-7.802658184888496,-2.89396192319562,-136.37923563488107,70.53689087644005,153.71569962732838
6.321249900000001,2.867939370963037,-8.586044238558319,-2.8878627450713443,-149.41402860274778,72.48898792705701,161.2934015347219
6.3312499,2.914997100059617,-9.452104879637746,-3.1462581530928695,-159.01567876324282,72.90455458775149,168.3086763195255
6.3412499,3.1772262916969067,-10.411357389502205,-3.486624666775781,-166.42341326932018,71.39475146055346,174.92295700201822
6.351249900000001,3.7888982845399313,-11.437258015924032,-3.5892152382775513,-171.5790120783251,68.36800801491941,180.0404428583728
6.361249900000001,4.4315625591237495,-12.395441684228857,-3.5245915110666233,-174.5727454442835,65.18980838402906,182.81691059832437
6.3712499000000005,4.908103482024138,-13.384519230138189,-3.361096950879526,-176.1528379197102,62.4303242321647,183.2514711729859
6.3812499,5.494808439614635,-14.592745911154172,-3.0211637572166983,-175.87554081578176,60.46673787641539,181.73228943257692
6.391249900000001,6.320860708771557,-16.232599483979605,-2.4523211609483604,-172.45472806171566,59.89927644743889,178.89272190286277
6.401249900000001,7.090758920210802,-17.967636241306913,-1.911986491710834,-165.3816649833789,60.21718601837023,174.8722091239868
6.4112499000000005,7.804594653718462,-19.221414893889914,-1.6118605508265493,-156.32441612440007,60.00210578638289,168.55531769135862
6.4212499,8.723125006073152,-20.238264673369883,-1.4425438509462285,-145.53745905101997,57.823810221271216,159.09875070516196
6.4312499,9.840400493578716,-21.153174754731737,-1.434648528908047,-134.6460211817974,53.2147661924857,146.30934588730102
6.441249900000001,11.056545512337605,-21.619108175431943,-1.5349799649204632,-127.32365399598821,46.71033381705775,129.96108794992276
6.4512499000000005,12.32719572262994,-21.70677211759285,-1.3028988743835401,-124.9015931888754,38.726166831646196,109.51481849698982
6.4612499,13.545682287163222,-21.597310632811492,-0.8232525129412086,-128.60142240729735,28.775391206299602,84.37966425675326
6.4712499,14.840594143671021,-21.27630366816226,-0.4807211978300841,-137.85216546564055,16.166194676386542,54.97728900026445
6.481249900000001,16.464227209828415,-20.81255283201098,0.1577874311385184,-150.74978645719906,-1.514311910664336,21.686396106977618
6.491249900000001,18.52294158630514,-20.46046514017092,1.4127086742801178,-165.86173727177706,-26.329807690412967,-14.23077170605643
6.5012499,21.051610174717762,-20.27239567441525,2.591915047801934,-182.25840146179758,-57.11515561703246,-51.69972703427734
6.5112499,24.093778805043407,-19.626944794263366,4.723150753424755,-204.8348365210055,-97.43743073926063,-99.01705961672315
6.521249900000001,26.764262559166347,-18.789674825776988,8.808605228487998,-232.00817351102955,-140.52219170203074,-151.90936042785395
6.531249900000001,28.00843508390851,-18.70324600204335,12.94262694813304,-258.2096338659177,-174.88548995317691,-198.27599203670687
6.5412499,27.507061603920725,-19.44154808888692,16.76586349917689,-289.5921690119166,-206.0190296457313,-243.34974000754914
6.5512499,25.78152826889507,-21.40457241377909,20.616948093646986,-322.64373658541007,-235.21017023322554,-290.02111330404017
6.561249900000001,23.073549492991358,-24.71940420623466,23.930127907174512,-344.12666964351473,-263.22907575651493,-341.59835431158797
6.571249900000001,19.17775269231537,-28.4550284456417,26.229087393582397,-344.6334390232448,-290.7635921900612,-399.07687098676803
6.5812499,13.775682064504188,-33.343556706711865,27.279769255538017,-314.4766783367254,-319.3181580968715,-458.11637055607474
6.5912499,6.057565031258439,-38.058132910447824,26.107826868098087,-258.06526275325996,-352.5513001192346,-495.6761782151641
6.601249900000001,-2.5254770840370955,-39.20708323955448,22.118060804216665,-194.50926067004698,-387.426387683677,-501.168407084891
6.611249900000001,-10.254373325966325,-35.5788167636736,17.265446924894132,-142.96339572180818,-421.1850838064017,-499.96403892665654
6.6212499000000005,-16.54203586128118,-26.609894938892015,12.928111435398433,-132.03093100830864,-441.788527601632,-482.4069907121223
6.6312499,-23.245461577330904,-17.23485200220285,9.861719761545215,-156.43715886671055,-440.5648743096477,-438.2104031299637
6.641249900000001,-30.715210586117244,-12.29294303578741,6.872221894594913,-173.33264124028085,-416.16902844027146,-381.59645952987904
6.651249900000001,-34.150073425066,-8.78843117839691,2.44931735365835,-172.04977391629006,-358.07882942729907,-322.5356308598579
6.6612499000000005,-33.23295678740394,-3.875247234343936,-0.5312213628344666,-155.17859482177556,-267.97157431424745,-277.9073889746987
6.6712499,-31.69764647305468,0.8858998501080192,-2.2250308467208963,-118.75511977546692,-164.17214850112592,-255.33934623317563
6.6812499,-30.4044152603991,2.5994850112312538,-4.9565309023864685,-62.67845759287196,-63.41722747307247,-235.74452672947933
6.691249900000001,-29.77979478712158,2.1971100009852855,-8.026322628019342,6.090634824290755,26.281597113943498,-201.32962350386177
6.7012499000000005,-28.70018581472193,2.5555901998188366,-10.436593547893242,76.42534450754421,98.16040726677265,-156.1358697853094
6.7112499,-25.69535532875624,4.499652750200817,-11.44651305447913,133.4916219583111,150.6568252123514,-112.13089380843962
6.7212499,-22.025576550360743,5.859850168226194,-11.319600135936119,173.86856429754266,190.6190399438134,-69.31615901422644
6.731249900000001,-19.38252266082314,5.471423948909232,-11.554536543638134,195.65660329969825,214.741257690192,-26.762045558580123
6.741249900000001,-17.227975288440547,4.894755710345313,-12.433368070804073,192.26575504219926,215.72154511940383,4.043300534394773
6.7512499,-13.840967574360505,4.262872847258667,-12.493985744268299,171.94208371005487,206.69627388926924,25.053876926851895
6.7612499,-10.013410232895362,2.7408373935659482,-11.247902887169001,146.42680434280246,195.06867022513526,37.89616974749979
6.771249900000001,-6.557732749462482,0.5914863809144045,-9.69149698487642,122.78318680289587,180.6771071684039,43.20766794030554
6.781249900000001,-3.0660560553191156,-1.878410199347678,-8.592875297906343,104.72246583877474,166.47275623331151,45.117610634183585
6.7912499,0.25527556023585857,-4.364392206257999,-7.854499654202409,94.44121964403678,153.99593050117537,47.40192687199652
6.8012499,3.035701054255118,-6.412671428126294,-7.250421945169839,92.01628282297767,143.28647253776506,50.55161729969766
6.811249900000001,5.023856197147128,-7.727152349945701,-6.849730622599569,94.59308955540249,134.91828710607305,52.67100877136108
6.821249900000001,6.195031454158192,-8.399165354288954,-6.85087960235307,100.19104716814002,128.0783277275325,51.96179784486511
6.8312499,7.116144023534741,-8.731466405703216,-7.062047153485923,107.95585715632629,122.54978693339142,47.67907666919778
6.8412499,7.731199930878078,-8.967533644473312,-7.05638331420362,117.27935069598986,117.89403276407857,39.96138881847501
6.851249900000001,7.7633603469867545,-9.145429974592563,-6.768751726754105,128.5086631163594,112.90617645552759,30.073347571934764
6.861249900000001,7.513404919728354,-8.953318349781744,-6.364901843280294,138.86592348066455,108.2354941013167,19.53306607208372
6.8712499000000005,7.09814032514704,-8.43480390460346,-6.064478159989721,145.35818372814384,103.44893094345242,9.521026614747997
6.8812499,6.695572962072382,-7.744891552742367,-5.9523822921599026,146.4780536843921,97.9324417411454,0.6987459047671583
6.891249900000001,6.4068635407259515,-6.922350190452717,-5.9608589532637595,141.07614575509723,92.03969323988973,-6.7714466304926875
6.901249900000001,6.150636543698005,-6.1303355603155785,-6.100628775364736,127.27355603462362,85.78265511557305,-13.083253407415736
6.9112499000000005,6.031934254181927,-5.245912016417389,-6.318071874582118,103.85598525295048,80.44189767358324,-19.931534827915705
6.9212499,6.154996130810545,-4.791821760921519,-6.411204634458597,79.70214670184279,77.55015254336699,-26.92574607316377
6.9312499,6.414944995126963,-4.9581307138057245,-6.192349783343706,54.95136279956519,75.7278794601605,-34.38765524770479
6.941249900000001,6.878944051609108,-5.532238317802558,-5.4605080689328975,31.82851112906214,77.03040096177205,-41.84657310972368
6.9512499000000005,7.0414391540861,-5.981338757643759,-4.8257869572512435,16.977677709350704,80.17441770242297,-47.459504850074914
6.9612499,6.731842028373018,-5.941734293599811,-4.6625458028522315,6.579928284207957,82.34548140467558,-51.699193337780166
6.9712499,6.711572267790326,-6.446712290401402,-4.569864940668182,4.292265469283487,85.73871586871702,-54.04014918346746
6.981249900000001,6.604433956486659,-6.831506847361279,-4.465114550448111,6.574273073454325,88.91612272731518,-54.10965749223768
6.991249900000001,6.315977770865373,-6.651435910968564,-4.401440961820077,9.86858852916952,90.89549328392148,-52.925057463171825
7.0012499,6.270748175483495,-6.317625033906879,-4.156237501466627,13.577701614102399,93.9514014607736,-51.632434097392746
7.0112499,6.2781232009676815,-5.89327231921695,-3.8324823650886533,16.039592528035286,98.2648627576733,-50.43187942001873
7.021249900000001,6.318022572640133,-5.493669369140268,-3.6557549329571275,16.975126560664766,102.85164707542769,-49.600234420473136
7.031249900000001,6.438476821306575,-5.109198046003605,-3.490773514787171,15.163263837665042,107.35272185754833,-49.526075720513774
7.0412499,6.474856677270914,-4.747236391554339,-3.3185605826621862,11.36433354118879,111.68276005292806,-50.05606663201579
7.0512499,6.134961847326318,-3.888476946652494,-3.286179010497568,1.0908019133577431,113.70447415067677,-51.914438749478855
7.061249900000001,6.07819765529298,-2.6376898252310714,-3.252136794556686,-16.53078499573012,116.08746176009082,-55.27344795158658
7.071249900000001,7.438397569508028,-4.3824874719600615,-3.1666256049370953,-12.004487486504715,125.00942698395333,-53.72588687017851
7.0812499,7.3653589704751,-6.762917218237312,-3.125203184330338,1.309423956739758,128.57051851562585,-44.66306638523031
7.0912499,5.838252477966852,-6.211208582305522,-2.828308304013703,3.404934824362339,126.4513807343067,-33.20064015677655
7.101249900000001,6.012750002801551,-6.242275780337991,-2.0781761399701635,18.388767632487095,130.7568366000085,-25.558715559171105
7.111249900000001,6.43590055739728,-6.27440346294991,-1.4999608343163382,37.67483231259747,136.43626024549303,-22.56123774839886
7.1212499000000005,6.491581892775752,-6.039383147549342,-1.2904246189653799,53.13356135857301,140.0792166487052,-20.83320661584314
7.1312499,6.699844450274669,-6.478669560738693,-1.2196116244810356,69.86833379150336,143.65956457229476,-19.158511707111415
7.141249900000001,6.647875478580035,-6.574194116572683,-1.132599458499289,85.86690008661064,146.0497315723982,-17.27585901785845
7.151249900000001,6.750134258322374,-6.391578234513978,-0.9925264160911734,99.51011284655772,146.83490262194582,-15.729045765408973
7.1612499000000005,7.149536479478223,-6.229037029249822,-0.9802802268984303,108.10072854441674,146.30294492107018,-15.563460023176352
7.1712499,7.476420285309144,-5.952673776648822,-1.010518264576988,112.4248487377954,144.49436801879233,-16.184490977427213
7.1812499,7.738682519518101,-5.6915496969339765,-1.0217336734940308,113.32169334149751,142.35726238184986,-17.196612469207505
7.191249900000001,7.840790157667477,-5.382341926617608,-1.0004974381572092,111.34619364323956,139.09522694870984,-18.744119952425397
7.2012499000000005,7.94206109116798,-5.1739802057235,-0.8158668787373581,108.86889340238976,134.73041641392493,-20.997025754417592
7.2112499,8.304141251649396,-5.172222925571534,-0.6027425026967025,106.64353832275982,130.97970624158916,-23.580929185602287
7.2212499,8.579991607815112,-5.099596570641818,-0.4217171162070208,103.45119280906924,126.00721946850085,-24.720996218725062
7.231249900000001,8.979842694662628,-5.26171143469643,-0.24642944868615094,102.08505161493194,120.01918456883251,-23.261829271014225
7.241249900000001,9.517893432310524,-5.6107149877073805,-0.14362870455473023,103.36259024016195,113.12368250638468,-19.126236547455076
7.2512499,9.78623613287613,-5.642510599891403,-0.02064195568690019,104.25975391650508,103.731584016745,-12.531727696840493
7.2612499,10.001759141753388,-5.452078894063948,0.10608827092100583,104.00849388103211,92.75830580514535,-4.690003071495208
7.271249900000001,10.175200028120095,-5.089679323264566,0.0368805144860034,101.45175246312013,80.06770746987864,3.516499563135212
7.281249900000001,10.346690748997307,-4.665450951219529,-0.07154113378606661,95.4336377958264,65.88220525650742,10.940878004323208
7.2912499,10.617528991846688,-4.459960435965732,-0.0697042494260888,86.28600922873586,51.796779114991736,16.64170373197454
7.3012499,10.768973506668782,-4.327344302289587,-0.008822321850180777,74.52704120098043,38.42242721562383,20.578249113695435
7.311249900000001,10.660362245886445,-4.140442788669182,0.12318206251976688,60.81056640593762,26.445436135147148,22.66636565273789
7.321249900000001,10.331459471379137,-4.035243737999295,0.33913269115087435,45.474972864592246,16.150431227070857,22.902477482445843
7.3312499,10.01053354160663,-3.9734303427309414,0.5614080049261597,28.91615967296188,7.8377065233339085,21.34815385285648
7.3412499,9.77726886427482,-3.8459273066418014,0.7364144354784442,11.806880771590802,1.9414884324821933,18.25602390734329
7.351249900000001,9.494737206242794,-3.8442656090252223,1.0272454715052755,-6.550551401996703,-2.2917448783621457,13.453517117437217
7.361249900000001,9.239484253127616,-4.1725290916878155,1.3874131495295003,-23.777788650239746,-4.659908572217517,7.624624388013335
7.3712499,9.160735718308949,-4.550322525983327,1.5978342186183243,-34.10848919976807,-4.941532266033002,2.679759744946945
7.3812499,9.297802338355838,-4.898875560740626,1.8332319056537862,-38.96606497632573,-3.7624286476430457,-1.5251586204345544
7.391249900000001,9.41741459929783,-5.166456451981936,2.2163438668704396,-39.58519653940472,-1.8064362843235477,-5.185164765669957
7.401249900000001,9.346210109943216,-5.289995741733989,2.5025932252840195,-36.526541270660196,0.6482199759778882,-8.249630153349669
7.4112499,9.199971288377597,-5.473155197573218,2.6273024017785396,-30.18490478091033,3.6310957212661097,-10.424716055730304
7.4212499,8.998673439264808,-5.703623414244913,2.6980418551906165,-21.264177555862325,5.908922781844758,-11.320958777592203
7.4312499,8.770102301145313,-5.848292349050008,2.553333059187268,-11.768312245076975,7.048776248837554,-11.266283634271982
7.441249900000001,8.490168705561887,-5.777009013565346,2.3315458506017737,-3.709722536037046,7.044115765018757,-11.076612226643356
7.4512499,8.199927030716399,-5.530891318292148,2.2049904410290297,2.2855136547180375,5.91739920265339,-11.427519865019757
7.4612499,8.050442331243703,-5.244636173833295,2.0454148148946953,5.92342784800093,4.666377111318452,-12.297560205353669
7.4712499,7.969643511756687,-5.0729799689689425,1.9319549891239571,7.133739248837827,3.3184636977582618,-13.12575716181776
7.481249900000001,8.013039839150203,-4.971070694432097,2.0087275197487693,6.853056104421516,2.1756471278878307,-13.386300101314651
7.491249900000001,8.097822048016285,-4.887231089855347,2.1545451336338624,5.650256670369224,1.4690618737427532,-13.022402411983942
7.5012499,8.070278107598876,-4.817637201556937,2.113773023912853,3.442253919884229,0.8173978962746964,-11.989618866139757
7.5112499,7.923004278806283,-4.779595386446963,1.9098900302435229,0.1788865004800813,0.055111730255560945,-10.454294901526692
7.521249900000001,7.746231048303087,-4.824513091318574,1.7249943144974222,-3.343596520837724,-0.8916188290455854,-8.716290494818077
7.531249900000001,7.677571802101115,-4.8630273261288615,1.6168671829484682,-6.795336591043002,-2.050084519201686,-7.271614022847195
7.5412499,7.673986399718937,-4.892599514397808,1.5445452673891849,-9.966867374347137,-3.0090224207209997,-6.305135865323365
7.5512499,7.679956995670649,-5.0014546830136375,1.4771721425288418,-12.67982655916246,-3.700295792508068,-5.488522832586049
7.561249900000001,7.74774140021056,-5.130633262508788,1.453343042344598,-14.419790220693898,-4.374025374486296,-4.692116215244768
7.571249900000001,7.919284786165666,-5.2440041238113935,1.4924842189885785,-14.417993339613025,-4.547763854662973,-4.189968498573907
7.5812499,8.032967372847558,-5.397870304679115,1.4397008837791625,-12.715611871229028,-4.3591139593990995,-3.631807799824194
7.5912499,7.964465981571669,-5.591306400418689,1.2932638062021635,-9.24260454847728,-4.741648683844168,-2.2772590973869318
7.601249900000001,7.914254562251663,-5.725815788495842,1.291906531706541,-5.03848582379342,-5.330763737863528,-0.29549882096064994
7.611249900000001,7.9966721976214306,-5.643833353888112,1.2960192613584576,-1.8973552970669925,-5.081902011721223,1.7668774383844805
7.6212499,8.098853232063123,-5.35124374781868,1.1614094087288904,-0.02658530558634227,-4.575647714599291,3.1315103034845566
7.6312499,8.268502378311698,-5.11511687707011,1.1772465714564013,0.8741323056452905,-4.227608118138019,3.6771714787682916
7.641249900000001,8.500865503643105,-5.002881738199698,1.280794376116489,0.7304186228636603,-3.171731188200398,4.109233607007442
7.651249900000001,8.616829000364142,-4.927866784415441,1.2989727492134977,0.13018173419519813,-1.8977388896397425,4.527420728497952
7.6612499,8.691491341813537,-4.924286698703815,1.3732375537430508,-0.6656382541275534,-0.8954132036587907,4.974628165202673
7.6712499,8.75656656302555,-4.950190390711904,1.4652426737032225,-1.2704094537666075,0.09016662048147506,5.413380319191124
7.6812499,8.660183545471941,-4.9827990734776915,1.505372392902099,-0.8793530891827135,0.5497335904159303,5.661974339446122
7.691249900000001,8.511467541815723,-5.016669703192704,1.4533354838459274,0.473976325249313,0.32218554317769194,6.163211169700533
7.7012499,8.40740596489614,-5.028431016929928,1.336876627696719,1.9255020516052954,-0.1464776379231172,7.004785827331457
7.7112499,8.29077190236851,-5.013219374528921,1.2943684619912978,2.5466464055363,-1.0570393978764796,7.946131536955304
7.7212499,8.274065355519532,-5.00823850137614,1.399910400929194,1.676493309440275,-1.87524745230766,8.766862610934993
7.731249900000001,8.356844751599228,-5.051182097590397,1.5383269529451193,-0.5617993819730389,-2.246207183085065,8.755065257036
7.741249900000001,8.423805184258912,-5.210149412016689,1.6078382150185524,-2.323646972740329,-2.041776814931575,7.832648179197311
7.7512499,8.436933322870646,-5.410911950415938,1.6591966968253946,-3.2458863424744386,-1.6138239833478256,6.282634743540557
7.7612499,8.326223931866362,-5.51302267210371,1.662457424093824,-4.176559903792385,-1.8867797216223725,4.552298478231297
7.771249900000001,8.19291635689505,-5.714050280824442,1.603782685234541,-3.594544559840294,-2.357782779337414,3.0662774016319
7.781249900000001,8.036596635938247,-5.890515386731888,1.5696712293178068,-1.7142538871735653,-3.322187001930005,2.105829241903698
7.7912499,7.867029263765162,-5.838843333079754,1.555783353331872,0.13781804916147364,-4.615129377415287,1.4475835114977427
7.8012499,7.811293466281788,-5.776716808670142,1.4682893595188857,2.1472674040649986,-5.505438540522167,0.7210688598280539
7.811249900000001,7.843922051051236,-5.677184208377048,1.3384813443127115,3.5210772333112517,-6.3953096397830125,0.3322753815401895
7.821249900000001,7.931375543464374,-5.526275752288792,1.2978033923688357,3.710614890131272,-6.870677841571964,0.2847998556110187
7.8312499,7.997536882041757,-5.405932924124415,1.3455189266762069,3.0887324191999994,-6.447994936321173,0.4092248297353737
7.8412499,8.008340870262389,-5.256479010966426,1.394863211189231,1.6601545511118005,-5.814934883382849,0.5984163077955624
7.851249900000001,8.040108125567631,-5.154564365729575,1.3717731030104097,-0.029750244093873578,-4.913111296011292,0.7326034401912072
7.861249900000001,8.040209962258897,-5.210140283285443,1.2898188276127667,-1.2525856127231072,-3.9032751108844193,1.203720231751259
7.8712499,7.967967495447567,-5.319218892650608,1.249986196387726,-1.912682184956795,-3.157221552092262,2.124334794941153
7.8812499,7.88555201914175,-5.373897637359671,1.2856328633681442,-2.0286261689939753,-2.4034559057432876,3.048776008808257
7.891249900000001,7.819820405136532,-5.417257879588518,1.309428823327304,-1.6163876251994158,-1.6722570527855949,3.549108670737088
7.901249900000001,7.797395407402644,-5.497697730460481,1.297082536334846,-0.8230992947962832,-1.1040791873855578,3.983078270152721
7.9112499,7.824417774177689,-5.546665070271584,1.2749852883273096,0.5521475002165875,-0.6737696743969186,4.712601916878679
7.9212499,7.912827061141525,-5.582094677545205,1.323552270901022,2.3761249126473927,-0.05917486760869699,5.524774727360778
7.931249900000001,7.967251834803129,-5.628092388754405,1.440884531100809,4.246109164504704,0.7766853913475353,6.382379715079389
7.941249900000001,7.912462556578604,-5.555831322390769,1.4734161701263029,5.325114205826105,1.3326311975226106,7.346728574456432
7.9512499,7.856817961741126,-5.481779640224641,1.3917452964610366,5.530722155808844,1.6323853874844612,8.13252494863757
7.9612499,7.782272759195411,-5.45020815111163,1.2609059765796489,4.958736714534743,1.5472697364153016,8.621993345730989
7.9712499,7.77272332719844,-5.380641636585312,1.226150549916346,3.249544057209322,1.1142214635943808,8.788883976820994
7.981249900000001,7.9121349952430435,-5.389322877700988,1.355872312203172,1.27080902775587,0.8151152330004985,8.511228912391818
7.991249900000001,7.984272223075001,-5.502026026432413,1.5022151799533803,-0.13094759895027788,0.8451063534383296,8.133832894702646
8.0012499,7.938557202167322,-5.679769368543294,1.543688573239069,-0.5419309011246192,0.9639848625772719,8.133443784098711
8.0112499,7.8786439449534775,-5.828470504288425,1.50432724248981,-0.3725207057039531,0.8523372016330326,8.343608320264321
8.021249899999999,7.7862302830095285,-5.844467273904598,1.3995151143463027,-0.015950271192211398,0.33362508333023627,8.488743850727673
8.031249899999999,7.666857615180189,-5.819218232868182,1.2828714998137203,0.34993623784923245,-0.313027664474066,8.288617766371127
8.0412499,7.628675765388668,-5.772552766219489,1.257547426891152,-0.21096881916914745,-0.7388773388232815,7.942076528126694
8.0512499,7.760821188927464,-5.735413767834258,1.339365539598111,-1.2245118796239836,-0.7142071986435425,7.4504492891077385
8.0612499,7.930411998985263,-5.761883337850602,1.454907565738689,-1.8504643705977613,-0.06008778273145286,6.759904194316115
8.0712499,7.97726458681758,-5.817343393017163,1.5032732082532756,-2.135648490313767,0.8157880958091216,6.177298025266606
8.0812499,7.9770410516398895,-5.910053739930994,1.4611123844560123,-1.8407262355969287,1.8500552338785845,5.958892072404596
8.0912499,7.930776006685896,-5.943697310952048,1.3630817440354464,-1.2548805932668505,2.658992669115702,6.10363374080377
8.1012499,7.853766870200511,-5.89434327087952,1.2418560322380578,-0.6896903187142144,3.3601701065327467,6.110606639398464
8.111249899999999,7.784078237141893,-5.838805050982364,1.1698968831476992,-0.49644801740292144,3.534435374975754,5.825423749475253
8.1212499,7.838801862423565,-5.860663849920713,1.2363150741547158,-0.9007998898173439,4.136256925438543,5.615571260045315
8.1312499,8.023200435618623,-5.919343342885388,1.3455522068018753,-1.4303502664130947,5.44288102385937,5.345738911845025
8.1412499,8.053501865678884,-5.90313641015655,1.387776504523511,-2.150763002401651,6.297188414948168,4.928721828738527
8.1512499,7.970333638146336,-5.909569806322388,1.391125115099017,-2.857501464238571,7.229726182874115,4.607562911387983
8.1612499,7.960478170305007,-5.9725666110032165,1.4090943855696745,-3.1216085816272283,7.979092591557502,4.285588243274422
8.1712499,7.9309915961990995,-5.984522497928899,1.43377929602278,-3.158741274122065,7.981116745868671,3.703177272966167
8.1812499,7.838282433330778,-5.99514722164518,1.4472273275018548,-2.729756990845761,7.63173232866543,3.0935021018917257
8.191249899999999,7.763049674796969,-6.00863524416675,1.3988137671777108,-2.740922066533618,7.158688911267474,2.6057729054462135
8.201249899999999,7.662385986858128,-5.993195391238812,1.3363028764444147,-3.4196829276693577,6.308037779491984,2.2720090654748177
8.2112499,7.607939591138825,-5.9985764632118395,1.333495190174168,-4.245264053359525,5.293468449212073,2.2398945939078563
8.2212499,7.623597037493111,-5.97258677998612,1.3737501465578823,-5.289550304876405,4.481169307878946,2.1322234061035914
8.2312499,7.7261460920489435,-5.971270238924842,1.4871120502113806,-6.026444379657735,3.8808681818858033,1.9909011107897618
8.2412499,7.843140676401598,-6.014994306145106,1.6064005004186594,-6.032266136412648,3.468871811156769,2.147841996663152
8.2512499,7.892418147560528,-6.046566082475835,1.6479784994899978,-5.501186676066343,3.303914223018005,2.331632734643123
8.2612499,7.870523954094162,-5.9966869792003985,1.670494238476979,-4.708618288449848,3.0332546226824526,2.5016221240613303
8.271249899999999,7.812391881374592,-5.966012390252764,1.7092451076035433,-3.387740173961675,2.7778155299536627,2.7768146732003376
8.281249899999999,7.7068975769538755,-5.941266217176298,1.670234969624457,-2.0229535020778497,2.0757104915419475,2.983608361287843
8.2912499,7.656382850113496,-5.865552307430711,1.5601792146446327,-1.1445120799363955,1.1666678771114818,3.05917623697799
8.3012499,7.657268122615639,-5.787103198738259,1.5175826596979707,-0.8184528632870605,0.3885000627121974,3.3751719198821175
8.3112499,7.644128050878536,-5.668403441970848,1.5340098870393413,-1.4664166023019949,-0.271367008495974,3.6395742073941877
8.3212499,7.6693779345807975,-5.5703288457535525,1.5478493666938669,-2.2193942187715714,-0.49343081698398067,4.080237744320015
8.3312499,7.607365702113721,-5.519706931267092,1.52856457181576,-3.4161213000458757,-0.7279788613174841,4.943208682780499
8.3412499,7.511980590498343,-5.555283275614014,1.5065499098354305,-4.22694485126438,-1.0244819828723628,6.111370891210146
8.3512499,7.490306627128805,-5.639047257518689,1.4942295081404344,-3.3416308977559566,-1.0523322369534038,7.4964371279068756
8.361249899999999,7.321800594736027,-5.57053471471734,1.3930797754787065,-2.9157466090489383,-1.4739265465548879,9.180214047930239
8.3712499,7.202853186262172,-5.526846880987691,1.2656854160426092,-2.5212961163671066,-1.7497065964771839,11.001342087351784
8.3812499,7.176510993403463,-5.470766617471756,1.1876503875220952,-2.923692213155457,-1.2198677419674337,13.09858599373332
8.3912499,7.040319467675591,-5.357418764546108,1.1051639586004214,-4.3837865914893674,-0.6713858108666627,15.341081076698858
8.4012499,6.895279340240727,-5.353597461229115,1.053443365010365,-5.871310249450396,0.0674722551205975,17.7254666567391
8.4112499,6.736423666570721,-5.383378151452401,0.9786749804294995,-8.022335735040322,1.3270253576763607,21.105145400906967
8.4212499,6.519093948737487,-5.395827573812201,0.8535101318179844,-9.836675021362591,2.5791392211488433,24.35411447500131
8.4312499,6.2910561378967085,-5.458987706108397,0.6747272526279967,-11.108695357373954,3.5862504192185365,27.557462330376474
8.441249899999999,6.054136950080099,-5.472958505781438,0.42235588990142503,-13.041522257718688,4.621396507229671,31.135768294984263
8.451249899999999,5.760552868949521,-5.393719296155954,0.1470819585010325,-16.037900224699047,5.724329961510334,34.80663602432153
8.4612499,5.375280609672928,-5.3963200798716695,-0.1365354263212053,-19.572109345387005,6.468902191709552,39.0458999530167
8.4712499,5.048743295501699,-5.500450178220298,-0.413137445117649,-23.180590317743057,7.105991753768911,44.429952616900145
8.4812499,4.826393131740037,-5.529292619027174,-0.6326694009818662,-27.07110405214585,8.047570108873373,50.793550360083024
8.4912499,4.597684478711712,-5.437778569404223,-0.8307472348192714,-31.44771051868144,9.044318695374889,57.71209140942238
8.5012499,4.431494383008321,-5.27417873804226,-1.1149132541261015,-36.26963937517745,10.573838764028189,64.93898652765682
8.5112499,4.323103318388074,-5.118294876900026,-1.4658978335255477,-42.264337330642206,12.592926223294501,72.58841720055977
8.521249899999999,4.17114239559286,-5.028401151947788,-1.8131201948334097,-49.76007957405702,14.97321093380956,80.43918532140184
8.531249899999999,4.029656521858585,-5.126552510171933,-2.0972556984198336,-58.218026539899206,17.723382623017706,88.28885877358886
8.5412499,3.9449912467185215,-5.290443475081957,-2.365684062826367,-68.9839626842357,21.045997972398503,96.02048441233879
8.5512499,3.8661530360844636,-5.400805883629732,-2.7222622317293648,-81.6808600580322,24.913795934805503,103.26781924208791
8.5612499,3.771122528626947,-5.67077784533446,-2.988663693734013,-94.72428327700867,28.7853201662002,109.9338282558399
8.5712499,3.724604489104254,-6.156136451026479,-3.218550484008622,-107.35826286672052,33.29539368639277,116.09547757042559
8.5812499,3.5962107093173517,-6.8090686215958875,-3.4929013053905513,-118.19445605215809,37.99083088295048,122.26350911889554
8.5912499,3.386890598127832,-7.700688925701771,-3.6162421203098822,-125.61366503263051,42.51193652490701,129.15758159862753
8.6012499,3.2914719407460185,-8.620050806422183,-3.6838140907892125,-128.9104987177772,47.38680878457258,136.5401410298217
8.611249899999999,3.2786177877347153,-9.277756872071922,-3.871447400243226,-129.58046097741197,52.069731088758324,144.59432834322487
8.6212499,3.336103668950816,-9.80293799512653,-4.057564010761026,-127.86093261828081,56.96322155201188,153.9057148773582
8.6312499,3.533762151721953,-10.188981443754649,-4.139204467684047,-125.39253368285726,61.484665615896084,162.15226313316356
8.6412499,3.786873837195936,-10.49746064228991,-4.243591137736477,-123.35345990317975,65.214637371659,169.2723716387716
8.6512499,3.927215882973043,-10.79070687063691,-4.347868261800902,-122.82994062853696,68.7987369783097,176.21913014562813
8.6612499,4.085530734135692,-11.05077632164753,-4.475247421333355,-125.92906119941752,72.72536415334207,182.32604511659454
8.6712499,4.286911699072555,-11.273084793479628,-4.652386236253997,-132.78028317885497,75.96126588060268,186.95353017700938
8.6812499,4.391884149694311,-11.420855356984756,-4.733233296975981,-143.50421388821422,78.07583840022747,189.84199738568876
8.691249899999999,4.5152017958003645,-11.602030953413292,-4.780355855181743,-157.66497187271545,80.20302736517294,191.0547805476851
8.7012499,4.634653602034886,-12.326232002489986,-4.652490230839942,-172.5767959743377,81.73209511276771,190.79678657424853
8.7112499,4.62601641651904,-13.473516659270812,-4.307574625538159,-185.4829842901318,82.3197338399948,189.25125541523914
8.7212499,4.448887106546391,-14.458170561098045,-4.117905872713052,-195.254372726516,81.64659650791005,186.44489921217013
8.7312499,4.308525063871668,-15.676968903609245,-3.818369393433004,-201.95789008607315,79.04384826728658,181.8568297638142
8.7412499,4.220282966175105,-17.01843887758623,-3.5671014548296993,-206.62491027833062,74.60371973294103,174.15676197633618
8.7512499,4.198236566782998,-18.016689889991422,-3.802715458454458,-209.23263927266845,68.39770980672321,162.85833835969675
8.7612499,4.70790945113445,-19.270832640367534,-3.760343933824661,-210.0119725289789,61.05045748042611,150.28867365661966
8.771249899999999,5.775156417149952,-20.993659581983916,-3.249057289528593,-209.19852017486784,54.35179843428382,138.1997987474923
8.781249899999999,6.92997466968694,-22.48678142573688,-2.9109630742327792,-206.49361249695838,48.141438099180505,126.06613010076981
8.7912499,8.15896366249794,-23.579780768967606,-2.576422358452579,-203.43983317556524,41.47518686134999,111.95766585032361
8.8012499,9.93515932497693,-24.59692946381584,-2.198121243289261,-201.37881037958823,35.52297667806309,92.90267147086688
8.8112499,12.189357419898716,-25.60969198862962,-2.1268276959144528,-199.0615732384813,30.745413928686737,68.07858866431977
8.8212499,15.036203744625084,-26.3159262537848,-1.6949551066517057,-199.2626225544513,25.863821980023804,33.521700627634075
8.8312499,18.882947806666245,-26.575481144952086,0.39084415803822264,-202.2927812763828,20.213896659444142,-18.33383323913923
8.8412499,22.524408557345932,-26.725966633370486,4.331852805267183,-200.75315966623086,11.33707184889238,-76.05881429222121
8.8512499,25.81322724393658,-27.68990756388438,9.52486817494171,-189.04601565696714,-7.310409304315128,-137.9323155037086
8.861249899999999,27.447656050522045,-28.80641759650223,14.264483070802555,-165.50153053557042,-39.98848109800121,-207.57647303777316
8.8712499,25.51351840850755,-28.123923508543506,17.42600186336957,-145.33672997649813,-84.44595488926045,-280.91929529001624
8.8812499,21.96017446666041,-28.127844533834327,20.284402155966138,-138.95729258457328,-132.36384717089464,-350.1863308023853
8.8912499,18.22227258332425,-30.96790744671114,22.902224734537906,-132.59189761495003,-179.05106641343178,-411.2170004761247
8.9012499,13.08463588286192,-32.86054158797868,24.658480854741637,-123.22076751472855,-226.59384418171712,-468.976266278341
8.9112499,7.252014051831254,-32.432458062241295,26.09021508963134,-121.21039467089724,-275.34776683556277,-500.4151911817276
8.9212499,1.8626880197806743,-31.499345353326284,26.08389575465285,-129.22706693266466,-321.82800545406,-500.35785463044635
8.9312499,-3.053153787520846,-30.721621721442474,24.01066400298271,-143.19892801778437,-360.91472347003327,-499.4661138328576
8.941249899999999,-8.38923255761824,-29.56611557944241,21.15888963782137,-159.65717343558643,-389.6971559173911,-500.68078286600684
8.9512499,-15.751624232828261,-26.878511719620885,17.613273533924403,-171.14371050775364,-409.7301430144881,-498.7749201084702
8.9612499,-24.8704079315196,-22.477613583655742,13.758865370098354,-164.12189554876235,-419.19948509381487,-501.55481723310027
8.9712499,-35.57392069976386,-20.13474539693981,9.320817944900272,-112.62759879470582,-415.334027557199,-498.311914785338
8.9812499,-41.852300322274125,-17.369674183761532,0.6676801335975174,-33.02521133464024,-378.43066453881045,-428.72323855202217
8.9912499,-37.81477323539827,-7.116823935433741,-6.352793586610439,25.15218317866506,-306.11739931702414,-329.2637092838975
9.0012499,-30.67986795059649,6.114694919043767,-7.500579001606372,46.61002738925906,-221.16454854077145,-269.09244696797145
9.0112499,-25.863083144868963,13.196157169658337,-9.383342121777835,38.76207050337151,-131.9293209191685,-233.59903799307426
9.0212499,-24.331390775659465,13.956771597495086,-11.054911245871628,23.2779400675718,-44.701307026971485,-200.71968385717796
9.0312499,-24.633169750579206,11.299740478027982,-12.90313766034253,22.110392293720714,32.579935583538784,-158.0371946194633
9.0412499,-22.47594558411556,7.053219368638798,-15.124602682079615,39.66974851514726,96.02287497768359,-101.72803004915437
9.0512499,-19.998058318339567,3.5790605202469656,-14.412269753155535,67.61751965374927,132.69299625916128,-56.522329976867205
9.0612499,-18.67508267112303,0.4081108330422051,-12.66077103835917,97.12441853369549,149.05466455443812,-26.178894915458223
9.0712499,-17.46952912150067,-2.135156771562121,-12.260662184994064,120.34110913176005,153.96292954604377,-4.314014514573218
9.0812499,-16.12376304896184,-3.03948642967462,-12.85302983905547,133.37133780887643,148.28586582663766,7.561928962596868
9.0912499,-13.722439599475607,-3.6878680754913895,-12.958469644402868,139.70806461543438,135.98443212941578,12.773948089961788
9.1012499,-9.984212016703804,-4.591320823951845,-12.181753641172252,142.465186400806,122.8976314338898,16.941906598367776
9.1112499,-5.969305146603908,-4.952459189509734,-11.289744950796148,140.91435882497646,112.53144604325483,21.976667362008058
9.1212499,-2.2457750161550427,-4.936961341799137,-10.436443031748544,134.01636453799247,106.37488036590658,27.131173209260975
9.1312499,1.0061858480927288,-5.061292082326155,-9.49233438136111,122.63359086223421,103.90267104002046,31.44869640276972
9.1412499,3.3998451243821743,-5.313624939941517,-8.70909207191285,109.61622513194949,102.67315732487172,34.14535016420316
9.1512499,4.8921550628436625,-5.666761489492143,-8.234330866073451,98.06107140597673,100.80045498910168,35.32521954427359
9.1612499,5.689844708780826,-6.145345548288151,-8.01107590588975,89.79163547303574,98.00903822074791,35.54664867686452
9.1712499,5.971303186622488,-6.568029015691331,-7.938238515890594,84.05819945674236,94.49550853604376,35.45828147961994
9.1812499,5.966478159472439,-6.846621223927871,-7.891828931597765,79.98813582684146,90.36574623614831,34.835718316622824
9.1912499,5.981283443416435,-6.926329635525091,-7.878025614648347,77.30900579733378,85.91998522568146,32.674722903805666
9.2012499,5.9966961030964985,-6.7478246893935605,-7.851440703402043,74.47534858021193,81.46189087006098,28.747600537997926
9.2112499,5.8591524668014525,-6.269959996111282,-7.549674802586878,69.22204496214746,77.4001176885686,23.178088379927797
9.2212499,5.70838465150909,-5.730675893697217,-7.134388341621852,61.00485869088669,74.77668290947797,16.105052705025685
9.2312499,5.672008916004837,-5.491137536752227,-6.9274477184046495,51.97323993464334,73.10943863122198,8.614400762830542
9.2412499,5.642301851704493,-5.446775196520315,-6.714969154702165,42.783857736564904,70.60791791700426,1.1145530246943995
9.2512499,5.589567371601661,-5.0552522820131855,-6.318752636275753,29.4477469496781,67.94880489369942,-6.45914467274616
9.2612499,5.649320856997358,-5.153983033755766,-5.668098177003382,21.744031123512805,68.36127048733604,-10.72190517611941
9.2712499,5.505791322322931,-6.364806832657294,-5.094491035200879,25.428877490784927,69.91620231100013,-10.074406608520116
9.2812499,5.073815962677794,-6.680147379706978,-4.860537011363091,27.293639148729767,71.98141025695487,-6.8806815220749336
9.2912499,4.845501431766168,-6.315742822717206,-4.77975733340327,29.280065097465336,76.96831628434055,-3.508245663263887
9.3012499,4.471110805167453,-5.743885534356757,-4.8287069766169175,29.483786515524752,81.32366907460738,-2.44272972117633
9.3112499,4.2115900379424875,-5.323251390126382,-4.813081784872793,29.025178316646368,84.71665306655946,-3.357105404283101
9.3212499,4.35030841293397,-5.428508160339339,-4.621141290599665,29.417887149837888,87.4609299970874,-4.617193943674878
9.3312499,4.5063613117166375,-5.697882029921333,-4.454443577027747,31.95763130939779,87.93774022536637,-5.379331501538127
9.3412499,4.667721896843385,-5.7320392732064365,-4.437782019462346,35.36927383378248,87.3117403610662,-5.887446073408961
9.3512499,4.708613555330838,-5.232961443698934,-4.2242136866409625,36.16543627177601,86.57340927997164,-6.983510970478132
9.3612499,4.733950353891656,-4.577045692382902,-3.798541425142009,33.3548142421664,87.17441123786675,-9.140798029798574
9.3712499,5.0617716214953345,-4.348621329608277,-3.593836132121749,28.296033784839196,90.59481337762587,-11.44865480841323
9.3812499,5.581540801527881,-5.359375203033803,-3.633903144306566,29.826333430666526,95.44500562202373,-10.428087765025303
9.3912499,5.457587593173015,-6.406352464544116,-3.6489155912050464,32.149110193293524,98.57195858737515,-5.762729831648996
9.4012499,4.952089485035404,-5.967500614890977,-3.542533346843075,26.419593171385326,100.37095419827146,-1.9164871759927458
9.4112499,5.30786685554532,-5.690941711126369,-3.380836376357808,24.25344720620695,102.87140153780311,-1.861066877861306
9.4212499,6.134901165682681,-6.099970918204383,-3.332874752460631,27.870294903110565,104.47575783121908,-4.362955043441053
9.4312499,6.517940616264031,-6.402361763008838,-3.3499718433162924,32.08746737156893,104.37144499769508,-6.9488179392805725
9.4412499,6.579449247462916,-6.740247048879397,-3.3448275384650676,38.164053699579355,104.17214597532076,-9.243230851419105
9.4512499,6.494468855388555,-7.0405371133915295,-3.339744288520566,46.10195035594687,104.63540656736784,-11.431386278597783
9.4612499,6.526910814038961,-7.11330240624814,-3.3784182851071036,54.76953119917658,106.58669444016883,-14.36889762250608
9.4712499,6.807479357022977,-6.944432008037188,-3.3617108908541997,61.281236197613154,109.73604047657398,-17.37613414959356
9.4812499,7.091101136964621,-6.725917143794542,-3.123798307651857,65.60043773864818,113.36447623504613,-20.205923216172945
9.4912499,7.4372647810425345,-6.660673371071489,-2.8228828680397067,69.30542627866626,116.91421712221191,-22.738388825121476
9.5012499,7.878068079632949,-6.725972619694834,-2.723226897363729,73.60729263342648,119.60060616040373,-24.339488213391235
9.5112499,8.146813740630904,-6.855421051273741,-2.6975213378889205,79.61936888950103,120.55503732768922,-25.30320027825846
9.5212499,8.220470312969104,-6.868288876411946,-2.5545102009006597,86.09294073847416,120.74042320327779,-26.02403579149875
9.5312499,8.188016948508965,-6.713517630641741,-2.3831431278846686,92.07433215155832,121.08532341527143,-27.03716714945254
9.5412499,8.066692144814077,-6.458875948068599,-2.258043618239735,96.7969850875798,121.51138449535121,-28.808243702134966
9.5512499,7.906195673088161,-6.251965007876362,-2.0778802022192515,99.54835542482452,121.7375683390524,-30.703436011738546
9.5612499,7.904442544024544,-6.178578188206283,-1.8360597346557852,101.15225605027346,121.476346838231,-31.804543463394207
9.5712499,8.016174561247233,-6.174725439086328,-1.5337391752763188,102.26595974019783,120.50149380755975,-32.050760968698704
