# Time (seconds),Accel_X,Accel_Y,Accel_Z,Gyro_X,Gyro_Y,Gyro_Z
0.0012499,7.06528902053833,-4.90571928024292,2.9664158821105957,10.894775390625,-47.79052734375,-56.9305419921875
0.0037499,7.0317702293396,-4.620809078216553,2.9041666984558105,10.6353759765625,-48.2940673828125,-56.5338134765625
0.0062499,7.026981830596924,-4.3861775398254395,2.82515811920166,10.5438232421875,-48.4466552734375,-56.2896728515625
0.0087499,7.048529624938965,-4.194641590118408,2.7222073078155518,9.5672607421875,-48.675537109375,-55.8624267578125
0.0112499,7.084442615509033,-4.039018154144287,2.6240451335906982,8.36181640625,-48.858642578125,-55.0384521484375
0.0137499,7.113173484802246,-3.907337188720703,2.52109432220459,6.9580078125,-48.858642578125,-54.13818359375
0.016249899999999998,7.127538681030273,-3.797203779220581,2.434903144836426,5.18798828125,-49.1485595703125,-53.0548095703125
0.0187499,7.117961883544922,-3.6966474056243896,2.3726539611816406,2.8228759765625,-48.9959716796875,-52.032470703125
0.021249900000000002,7.086836814880371,-3.6176388263702393,2.319981336593628,0.79345703125,-49.3316650390625,-50.8270263671875
0.023749899999999997,7.046135425567627,-3.5482068061828613,2.276885747909546,-1.5106201171875,-49.591064453125,-49.530029296875
0.0262499,7.000645637512207,-3.4811692237854004,2.2146365642547607,-3.5400390625,-49.62158203125,-47.9736328125
0.028749900000000002,6.964732646942139,-3.40216064453125,2.1308395862579346,-5.5084228515625,-49.3011474609375,-46.722412109375
0.031249899999999997,6.92881965637207,-3.28963303565979,2.0231003761291504,-8.209228515625,-49.1180419921875,-45.2880859375
0.0337499,6.888118267059326,-3.1483752727508545,1.8962076902389526,-11.3525390625,-48.8739013671875,-44.036865234375
0.0362499,6.835445880889893,-2.9975404739379883,1.7693150043487549,-14.7247314453125,-48.5382080078125,-42.5872802734375
0.0387499,6.780379295349121,-2.87064790725708,1.656787633895874,-17.7459716796875,-48.7823486328125,-41.3055419921875
0.0412499,6.710947513580322,-2.80361008644104,1.5705963373184204,-21.0113525390625,-48.8128662109375,-40.130615234375
0.0437499,6.643909931182861,-2.801215887069702,1.5179238319396973,-24.0631103515625,-48.40087890625,-38.9556884765625
0.0462499,6.572083473205566,-2.8634653091430664,1.4891934394836426,-27.03857421875,-48.6907958984375,-37.506103515625
0.0487499,6.507440090179443,-2.96162748336792,1.4652514457702637,-29.7088623046875,-48.8739013671875,-35.980224609375
0.0512499,6.452373504638672,-3.066972494125366,1.4269442558288574,-31.951904296875,-48.6297607421875,-34.6832275390625
0.053749899999999996,6.411672115325928,-3.155557870864868,1.3670891523361206,-34.2559814453125,-48.5076904296875,-33.5693359375
0.0562499,6.387730121612549,-3.2106244564056396,1.278503656387329,-36.7279052734375,-48.2177734375,-32.1807861328125
0.0587499,6.368576526641846,-3.2321722507476807,1.1755530834197998,-39.215087890625,-48.126220703125,-31.005859375
0.061249899999999996,6.358999729156494,-3.2369606494903564,1.0654197931289673,-41.595458984375,-47.5616455078125,-29.8919677734375
0.0637499,6.354211330413818,-3.2585084438323975,0.9552865028381348,-43.88427734375,-47.5006103515625,-28.62548828125
0.0662499,6.3518171310424805,-3.3279404640197754,0.8595184087753296,-46.051025390625,-47.1649169921875,-27.3284912109375
0.0687499,6.370970726013184,-3.469198226928711,0.7781155705451965,-47.3480224609375,-46.7681884765625,-26.2603759765625
0.0712499,6.399701118469238,-3.689464807510376,0.7230489253997803,-47.9278564453125,-46.32568359375,-24.8260498046875
0.0737499,6.435614109039307,-3.9671921730041504,0.6847416758537292,-47.8668212890625,-45.5474853515625,-23.3001708984375
0.0762499,6.469132900238037,-4.266467571258545,0.667982280254364,-46.56982421875,-44.708251953125,-21.881103515625
0.0787499,6.485892295837402,-4.520252704620361,0.6512228846549988,-44.525146484375,-44.189453125,-20.538330078125
0.0812499,6.478709697723389,-4.704606533050537,0.6320692300796509,-43.060302734375,-43.701171875,-19.4244384765625
0.0837499,6.466738700866699,-4.867412090301514,0.5961562395095825,-42.1295166015625,-43.121337890625,-18.585205078125
0.0862499,6.390124320983887,-5.272032260894775,0.5937620401382446,-41.5802001953125,-42.8924560546875,-18.8446044921875
0.0887499,6.349422931671143,-5.669469833374023,0.5147533416748047,-38.02490234375,-42.29736328125,-18.707275390625
0.0912499,6.344634532928467,-5.9974751472473145,0.47884035110473633,-26.3519287109375,-41.7633056640625,-14.22119140625
0.0937499,6.380547523498535,-5.803544998168945,0.44771572947502136,-18.8446044921875,-41.168212890625,-13.18359375
0.0962499,6.509834289550781,-5.322310447692871,0.4812345504760742,-24.8260498046875,-41.046142578125,-12.8326416015625
0.0987499,6.624756336212158,-4.908113479614258,0.5578489899635315,-33.9508056640625,-41.015625,-10.772705078125
0.1012499,6.718130111694336,-4.903325080871582,0.6584054827690125,-29.571533203125,-39.3218994140625,-10.5743408203125
0.1037499,6.797138690948486,-5.398924827575684,0.7110779285430908,-17.059326171875,-39.24560546875,-8.697509765625
0.1062499,6.852205276489258,-6.00226354598999,0.7158663272857666,-8.4228515625,-38.63525390625,-6.683349609375
0.1087499,6.904877662658691,-6.3302693367004395,0.7015010714530945,-5.218505859375,-37.2314453125,-5.615234375
0.1112499,6.9455790519714355,-6.2847795486450195,0.6775590777397156,-3.204345703125,-36.3311767578125,-5.0506591796875
0.1137499,6.97430944442749,-5.975927352905273,0.6488286852836609,-0.579833984375,-35.8123779296875,-4.425048828125
0.1162499,7.005434036254883,-5.57370138168335,0.6057330369949341,1.03759765625,-35.4766845703125,-3.631591796875
0.1187499,7.0557122230529785,-5.233725070953369,0.5315127968788147,2.0904541015625,-35.0799560546875,-2.9296875
0.1212499,7.134721279144287,-5.032611846923828,0.42616790533065796,3.5400390625,-34.088134765625,-2.4566650390625
0.1237499,7.228095054626465,-4.975151062011719,0.2992752194404602,5.92041015625,-33.050537109375,-1.8463134765625
0.1262499,7.321468830108643,-5.006275653839111,0.18914192914962769,7.904052734375,-32.073974609375,-1.1444091796875
0.1287499,7.393294811248779,-5.0685248374938965,0.12928688526153564,9.1705322265625,-31.2957763671875,-0.48828125
0.1312499,7.433996200561523,-5.114014625549316,0.1364694982767105,9.552001953125,-31.1431884765625,-0.1373291015625
0.1337499,7.465120792388916,-5.128379821777344,0.19632454216480255,9.70458984375,-31.18896484375,0.4119873046875
0.1362499,7.503427982330322,-5.102043628692627,0.26815059781074524,9.490966796875,-31.2042236328125,0.7476806640625
0.1387499,7.572859764099121,-5.056553840637207,0.2992752194404602,9.09423828125,-30.609130859375,1.0223388671875
0.1412499,7.68538761138916,-4.989516258239746,0.26575639843940735,8.148193359375,-30.0750732421875,0.8392333984375
0.1437499,7.836222171783447,-5.011064052581787,0.1628057211637497,7.080078125,-29.632568359375,0.5340576171875
0.1462499,7.94635534286499,-5.12119722366333,0.014365210197865963,5.584716796875,-29.4189453125,-0.701904296875
0.1487499,8.066065788269043,-5.2480902671813965,-0.17717093229293823,7.2479248046875,-28.7628173828125,-0.3204345703125
0.1512499,8.133103370666504,-5.228936672210693,-0.3280056416988373,10.894775390625,-28.7017822265625,0.8544921875
0.1537499,8.190564155578613,-4.946420669555664,-0.4141969084739685,9.2315673828125,-28.533935546875,-0.2593994140625
0.1562499,8.255207061767578,-4.596867084503174,-0.4357447028160095,0.5645751953125,-29.5562744140625,-0.946044921875
0.1587499,8.310274124145508,-4.347870349884033,-0.3902548849582672,-6.4544677734375,-28.8848876953125,-1.3427734375
0.1612499,8.379706382751465,-4.3861775398254395,-0.3423708379268646,-5.767822265625,-28.228759765625,-2.7008056640625
0.1637499,8.449137687683105,-4.675876140594482,-0.31603461503982544,-3.0517578125,-28.4271240234375,-3.0670166015625
0.1662499,8.506598472595215,-4.991910457611084,-0.3016694188117981,-3.2501220703125,-28.045654296875,-3.5552978515625
0.1687499,8.537723541259766,-5.200206279754639,-0.27054479718208313,-5.1727294921875,-27.7862548828125,-4.5623779296875
0.1712499,8.53293514251709,-5.260061264038086,-0.22744916379451752,-7.0343017578125,-28.1219482421875,-5.8441162109375
0.1737499,8.516175270080566,-5.236119270324707,-0.16519992053508759,-8.758544921875,-28.4881591796875,-6.927490234375
0.17624990000000001,8.520963668823242,-5.185841083526611,-0.10773907601833344,-10.589599609375,-28.7628173828125,-7.9345703125
0.1787499,8.56645393371582,-5.161899089813232,-0.07900865375995636,-12.1002197265625,-29.052734375,-9.307861328125
0.1812499,8.640673637390137,-5.1810526847839355,-0.08140286058187485,-13.24462890625,-28.8543701171875,-10.31494140625
0.1837499,8.722076416015625,-5.231330871582031,-0.11013327538967133,-14.0838623046875,-28.86962890625,-11.41357421875
0.1862499,8.78193187713623,-5.293580055236816,-0.14844051003456116,-14.7705078125,-28.9459228515625,-12.6800537109375
0.1887499,8.813055992126465,-5.341464042663574,-0.181959331035614,-15.716552734375,-29.022216796875,-13.85498046875
0.1912499,8.832210540771484,-5.372588634490967,-0.19871874153614044,-16.5252685546875,-29.1900634765625,-15.1519775390625
0.1937499,8.841787338256836,-5.403713226318359,-0.19632454216480255,-17.3492431640625,-29.1900634765625,-16.4337158203125
0.1962499,8.858546257019043,-5.43723201751709,-0.1867477297782898,-18.1121826171875,-29.052734375,-17.8680419921875
0.1987499,8.880094528198242,-5.492298603057861,-0.16759411990642548,-18.8446044921875,-28.7933349609375,-19.0887451171875
0.2012499,8.904036521911621,-5.5545477867126465,-0.14604631066322327,-19.3023681640625,-28.533935546875,-20.263671875
0.2037499,8.935160636901855,-5.628767967224121,-0.13168109953403473,-19.5465087890625,-28.4423828125,-21.1181640625
0.2062499,8.978256225585938,-5.69580602645874,-0.12210428714752197,-19.4244384765625,-28.01513671875,-22.186279296875
0.20874990000000002,9.028534889221191,-5.75326681137085,-0.12689268589019775,-18.9971923828125,-27.557373046875,-23.2696533203125
0.2112499,9.090784072875977,-5.793968200683594,-0.14844051003456116,-18.646240234375,-27.0843505859375,-24.3377685546875
0.2137499,9.155426979064941,-5.822698593139648,-0.17238251864910126,-17.9443359375,-26.519775390625,-25.5279541015625
0.2162499,9.224859237670898,-5.849034786224365,-0.20350714027881622,-17.0745849609375,-25.9857177734375,-26.1077880859375
0.2187499,9.29189682006836,-5.8873419761657715,-0.22026655077934265,-16.4031982421875,-25.2685546875,-26.947021484375
0.2212499,9.346963882446289,-5.949591159820557,-0.2322375625371933,-15.3961181640625,-24.3988037109375,-27.40478515625
0.2237499,9.385271072387695,-6.0405707359313965,-0.22026655077934265,-14.129638671875,-23.6968994140625,-28.0609130859375
0.2262499,9.378087997436523,-6.160281181335449,-0.17717093229293823,-12.8021240234375,-22.8271484375,-28.594970703125
0.2287499,9.32541561126709,-6.296750545501709,-0.0933738648891449,-11.0931396484375,-21.9573974609375,-28.7933349609375
0.2312499,9.246406555175781,-6.428431510925293,0.021547814831137657,-8.819580078125,-21.8048095703125,-29.1290283203125
0.2337499,9.167398452758789,-6.524199485778809,0.12928688526153564,-6.3629150390625,-21.1334228515625,-29.205322265625
0.2362499,9.126696586608887,-6.576871871948242,0.22266076505184174,-4.1656494140625,-20.538330078125,-29.3426513671875
0.23874990000000001,9.14345645904541,-6.574477672576904,0.26096799969673157,-1.8463134765625,-19.5159912109375,-29.510498046875
0.2412499,9.20091724395752,-6.538564682006836,0.2561795711517334,0.4119873046875,-18.4173583984375,-29.6630859375
0.2437499,9.289502143859863,-6.478709697723389,0.21787235140800476,2.86865234375,-17.5323486328125,-29.9224853515625
0.2462499,9.375694274902344,-6.414066314697266,0.15562310814857483,5.340576171875,-16.7388916015625,-29.9835205078125
0.2487499,9.44752025604248,-6.356605529785156,0.0933738648891449,7.598876953125,-15.960693359375,-29.9835205078125
0.2512499,9.488221168518066,-6.308721542358398,0.047884032130241394,10.1318359375,-15.13671875,-29.998779296875
0.25374990000000003,9.493009567260742,-6.275202751159668,0.038307227194309235,12.5885009765625,-14.58740234375,-29.7393798828125
0.25624990000000003,9.459490776062012,-6.2416839599609375,0.08858546614646912,14.6331787109375,-14.1754150390625,-29.6783447265625
0.25874990000000003,9.3828763961792,-6.203376770019531,0.19871874153614044,17.1051025390625,-13.580322265625,-29.4342041015625
0.26124990000000003,9.296685218811035,-6.13633918762207,0.3471592366695404,19.1497802734375,-13.0767822265625,-28.99169921875
0.26374990000000004,9.210494041442871,-6.026205539703369,0.5051765441894531,21.1334228515625,-12.786865234375,-28.9154052734375
0.26624990000000004,9.150638580322266,-5.868188381195068,0.6200982332229614,22.9034423828125,-12.115478515625,-28.9764404296875
0.26874990000000004,9.117119789123535,-5.669469833374023,0.6775590777397156,23.9410400390625,-11.260986328125,-29.1900634765625
0.27124990000000004,9.074024200439453,-5.2480902671813965,0.6105214357376099,25.3143310546875,-10.101318359375,-29.4342041015625
0.27374990000000005,9.074024200439453,-5.2480902671813965,0.6105214357376099,25.3143310546875,-10.101318359375,-29.4342041015625
0.27624990000000005,8.96389102935791,-4.953603267669678,0.40940847992897034,25.421142578125,-9.9639892578125,-29.72412109375
0.27874990000000005,8.96389102935791,-4.953603267669678,0.40940847992897034,25.421142578125,-9.9639892578125,-29.72412109375
0.28124990000000005,8.786720275878906,-4.797980308532715,0.16998831927776337,25.0396728515625,-9.5977783203125,-29.7393798828125
0.28374990000000005,8.786720275878906,-4.797980308532715,0.16998831927776337,25.0396728515625,-9.5977783203125,-29.7393798828125
0.28624990000000006,8.588001251220703,-4.649539470672607,-0.05746084079146385,23.9105224609375,-9.918212890625,-29.4647216796875
0.28874990000000006,8.588001251220703,-4.649539470672607,-0.05746084079146385,23.9105224609375,-9.918212890625,-29.4647216796875
0.2912499,8.427590370178223,-4.438849925994873,-0.21787235140800476,21.636962890625,-10.589599609375,-29.2816162109375
0.2937499,8.427590370178223,-4.438849925994873,-0.21787235140800476,21.636962890625,-10.589599609375,-29.2816162109375
0.2962499,8.348581314086914,-4.2090067863464355,-0.30885201692581177,19.073486328125,-11.1846923828125,-29.11376953125
0.2987499,8.348581314086914,-4.2090067863464355,-0.30885201692581177,19.073486328125,-11.1846923828125,-29.11376953125
0.3012499,8.341399192810059,-4.0078935623168945,-0.3998316824436188,16.6015625,-11.871337890625,-28.9306640625
0.3037499,8.341399192810059,-4.0078935623168945,-0.3998316824436188,16.6015625,-11.871337890625,-28.9306640625
0.3062499,8.35097599029541,-3.861847400665283,-0.5027823448181152,12.664794921875,-12.1612548828125,-28.289794921875
0.3087499,8.35097599029541,-3.861847400665283,-0.5027823448181152,12.664794921875,-12.1612548828125,-28.289794921875
0.3112499,8.530540466308594,-3.6727054119110107,-0.2059013396501541,10.7574462890625,-14.1754150390625,-28.0914306640625
0.3137499,8.530540466308594,-3.6727054119110107,-0.2059013396501541,10.7574462890625,-14.1754150390625,-28.0914306640625
0.31624990000000003,8.846575736999512,-3.1914708614349365,-0.2801215946674347,5.8746337890625,-12.75634765625,-28.1524658203125
0.31874990000000003,8.846575736999512,-3.1914708614349365,-0.2801215946674347,5.8746337890625,-12.75634765625,-28.1524658203125
0.32124990000000003,8.501810073852539,-3.7684733867645264,-0.7876923680305481,-3.3111572265625,-9.796142578125,-23.651123046875
0.32374990000000003,8.501810073852539,-3.7684733867645264,-0.7876923680305481,-3.3111572265625,-9.796142578125,-23.651123046875
0.32624990000000004,8.121131896972656,-4.742913722991943,-0.36152446269989014,13.61083984375,-18.5699462890625,-24.566650390625
0.32874990000000004,8.121131896972656,-4.742913722991943,-0.36152446269989014,13.61083984375,-18.5699462890625,-24.566650390625
0.33124990000000004,8.374917984008789,-3.6535518169403076,0.0933738648891449,2.0294189453125,-14.1754150390625,-22.5982666015625
0.33374990000000004,8.374917984008789,-3.6535518169403076,0.0933738648891449,2.0294189453125,-14.1754150390625,-22.5982666015625
0.33624990000000005,8.47786808013916,-3.0095114707946777,-0.05985504388809204,-8.209228515625,-15.80810546875,-19.5159912109375
0.33874990000000005,8.47786808013916,-3.0095114707946777,-0.05985504388809204,-8.209228515625,-15.80810546875,-19.5159912109375
0.34124990000000005,8.573636054992676,-3.957615375518799,-0.26815059781074524,5.8746337890625,-16.9219970703125,-20.3399658203125
0.34374990000000005,8.573636054992676,-3.957615375518799,-0.26815059781074524,5.8746337890625,-16.9219970703125,-20.3399658203125
0.34624990000000005,8.686163902282715,-3.976768970489502,-0.36152446269989014,2.62451171875,-13.885498046875,-18.2342529296875
0.34874990000000006,8.686163902282715,-3.976768970489502,-0.36152446269989014,2.62451171875,-13.885498046875,-18.2342529296875
0.35124990000000006,8.549694061279297,-3.203441858291626,-0.19871874153614044,-1.03759765625,-14.8468017578125,-17.6849365234375
0.3537499,8.549694061279297,-3.203441858291626,-0.19871874153614044,-1.03759765625,-14.8468017578125,-17.6849365234375
0.3562499,8.470685958862305,-2.896984100341797,0.021547814831137657,-3.41796875,-13.5650634765625,-18.2342529296875
0.3587499,8.470685958862305,-2.896984100341797,0.021547814831137657,-3.41796875,-13.5650634765625,-18.2342529296875
0.3612499,8.578424453735352,-3.201047658920288,0.0694318488240242,-2.25830078125,-12.3443603515625,-18.12744140625
0.3637499,8.578424453735352,-3.201047658920288,0.0694318488240242,-2.25830078125,-12.3443603515625,-18.12744140625
0.3662499,8.671798706054688,-3.663128614425659,-0.05027823522686958,-1.40380859375,-11.65771484375,-17.1966552734375
0.3687499,8.671798706054688,-3.663128614425659,-0.05027823522686958,-1.40380859375,-11.65771484375,-17.1966552734375
0.3712499,8.611943244934082,-4.015076160430908,-0.21787235140800476,-0.152587890625,-10.8795166015625,-16.4947509765625
0.3737499,8.611943244934082,-4.015076160430908,-0.21787235140800476,-0.152587890625,-10.8795166015625,-16.4947509765625
0.3762499,8.53293514251709,-4.2760443687438965,-0.31364041566848755,3.570556640625,-10.6658935546875,-15.6402587890625
0.37874990000000003,8.53293514251709,-4.2760443687438965,-0.31364041566848755,3.570556640625,-10.6658935546875,-15.6402587890625
0.38124990000000003,8.597578048706055,-4.395754337310791,-0.33997663855552673,6.439208984375,-10.07080078125,-15.0604248046875
0.38374990000000003,8.681375503540039,-4.378994941711426,-0.31124621629714966,8.941650390625,-9.735107421875,-14.617919921875
0.38624990000000003,8.786720275878906,-4.321534156799316,-0.2561795711517334,11.2762451171875,-9.46044921875,-14.4500732421875
0.38874990000000004,8.884882926940918,-4.2329487800598145,-0.17956513166427612,12.8021240234375,-8.7738037109375,-14.2364501953125
0.39124990000000004,8.954314231872559,-4.125209331512451,-0.09816227108240128,13.5955810546875,-8.087158203125,-13.885498046875
0.39374990000000004,8.990227699279785,-4.031835556030273,-0.011971008032560349,14.007568359375,-7.720947265625,-13.73291015625
0.39624990000000004,8.98543930053711,-3.9839515686035156,0.08140286058187485,14.5721435546875,-7.049560546875,-13.6260986328125
0.39874990000000005,8.956708908081055,-3.976768970489502,0.17956513166427612,16.11328125,-6.8511962890625,-13.4429931640625
0.40124990000000005,8.920795440673828,-3.976768970489502,0.2753331959247589,17.7764892578125,-6.5765380859375,-13.24462890625
0.40374990000000005,8.887276649475098,-3.957615375518799,0.33279404044151306,19.0277099609375,-6.4544677734375,-12.6953125
0.40624990000000005,8.87051773071289,-3.8977603912353516,0.33518823981285095,18.890380859375,-6.3018798828125,-12.5579833984375
0.40874990000000005,8.865729331970215,-3.8091750144958496,0.27054479718208313,18.4173583984375,-5.67626953125,-12.603759765625
0.41124990000000006,8.87051773071289,-3.7205893993377686,0.14844051003456116,18.3868408203125,-5.096435546875,-12.451171875
0.41374990000000006,8.865729331970215,-3.6511576175689697,-0.019153613597154617,18.3868408203125,-5.06591796875,-12.2222900390625
0.41624990000000006,8.848969459533691,-3.6080620288848877,-0.19871874153614044,18.12744140625,-5.18798828125,-11.810302734375
0.4187499,8.820239067077637,-3.5960910320281982,-0.37828385829925537,17.5018310546875,-4.974365234375,-11.4593505859375
0.4212499,8.78432559967041,-3.6296098232269287,-0.5339069962501526,16.90673828125,-4.8828125,-11.322021484375
0.4237499,8.767566680908203,-3.6798880100250244,-0.6584054827690125,16.4642333984375,-4.5318603515625,-11.322021484375
0.4262499,8.767566680908203,-3.737348794937134,-0.7230489253997803,15.8538818359375,-4.7149658203125,-10.80322265625
0.4287499,8.793902397155762,-3.758896589279175,-0.7445967197418213,14.95361328125,-4.5928955078125,-10.31494140625
0.4312499,8.83939266204834,-3.713406801223755,-0.7086837291717529,13.7481689453125,-4.1961669921875,-10.0860595703125
0.4337499,8.889671325683594,-3.598485231399536,-0.6224924325942993,12.2833251953125,-4.1961669921875,-9.9029541015625
0.4362499,8.920795440673828,-3.4308910369873047,-0.5003881454467773,10.25390625,-3.7994384765625,-10.101318359375
0.4387499,8.920795440673828,-3.2585084438323975,-0.3256114423274994,9.0789794921875,-3.5247802734375,-9.8419189453125
0.44124990000000003,8.875306129455566,-3.117250680923462,-0.1173158809542656,7.8582763671875,-3.35693359375,-9.9639892578125
0.44374990000000003,8.796297073364258,-3.0358476638793945,0.1149216815829277,6.103515625,-3.753662109375,-10.2081298828125
0.44624990000000003,8.7268648147583,-3.0382418632507324,0.33997663855552673,4.57763671875,-3.7078857421875,-10.4827880859375
0.44874990000000003,8.69334602355957,-3.112462282180786,0.5291185975074768,3.509521484375,-3.7994384765625,-10.7879638671875
0.45124990000000004,8.724471092224121,-3.246537446975708,0.6368576288223267,2.899169921875,-4.0130615234375,-11.1846923828125
0.45374990000000004,8.822632789611816,-3.406949043273926,0.6607996821403503,2.8533935546875,-3.570556640625,-11.41357421875
0.45624990000000004,8.956708908081055,-3.576937437057495,0.6272808313369751,3.0670166015625,-2.8839111328125,-11.7645263671875
0.45874990000000004,9.107542991638184,-3.7229835987091064,0.5410895943641663,3.9215087890625,-2.6092529296875,-11.7340087890625
0.46124990000000005,9.224859237670898,-3.8594532012939453,0.44771572947502136,4.8828125,-1.9378662109375,-12.054443359375
0.46374990000000005,9.306262016296387,-3.995922565460205,0.35673606395721436,6.0577392578125,-1.3427734375,-12.39013671875
0.46624990000000005,9.327810287475586,-4.158728122711182,0.2801215946674347,7.32421875,-1.03759765625,-12.6953125
0.46874990000000005,9.296685218811035,-4.369418144226074,0.22266076505184174,8.1939697265625,-1.03759765625,-12.5274658203125
0.47124990000000005,9.23682975769043,-4.616020679473877,0.1843535304069519,10.4217529296875,-1.068115234375,-12.02392578125
0.47374990000000006,9.167398452758789,-4.876988887786865,0.1388636976480484,13.7939453125,-1.6326904296875,-11.7340087890625
0.47624990000000006,9.11233139038086,-5.109226226806641,0.06703764945268631,16.998291015625,-2.1209716796875,-11.4288330078125
0.47874990000000006,9.08838939666748,-5.264849662780762,-0.047884032130241394,20.172119140625,-2.5177001953125,-11.4593505859375
0.4812499,9.08838939666748,-5.322310447692871,-0.19632454216480255,22.5677490234375,-2.4871826171875,-10.8795166015625
0.4837499,9.11233139038086,-5.276820659637451,-0.3423708379268646,24.1241455078125,-2.50244140625,-10.6658935546875
0.4862499,9.14345645904541,-5.152322292327881,-0.4381389021873474,25.604248046875,-2.7313232421875,-10.31494140625
0.4887499,9.172186851501465,-4.965574264526367,-0.44771572947502136,26.85546875,-3.3721923828125,-9.765625
0.4912499,9.193734169006348,-4.745307922363281,-0.3734954595565796,27.9388427734375,-4.1656494140625,-9.2620849609375
0.4937499,9.205705642700195,-4.5154643058776855,-0.22505496442317963,28.8238525390625,-4.547119140625,-8.9874267578125
0.4962499,9.220070838928223,-4.314351558685303,-0.05746084079146385,29.47998046875,-4.608154296875,-8.697509765625
0.4987499,9.239224433898926,-4.1395745277404785,0.1149216815829277,30.029296875,-4.9896240234375,-8.7432861328125
0.5012499,9.279925346374512,-3.9911341667175293,0.2561795711517334,30.09033203125,-5.615234375,-8.7890625
0.5037499000000001,9.346963882446289,-3.8570590019226074,0.3471592366695404,29.8004150390625,-6.1492919921875,-8.5601806640625
0.5062499,9.41639518737793,-3.7158010005950928,0.38546648621559143,29.3426513671875,-6.103515625,-8.5296630859375
0.5087499000000001,9.481039047241211,-3.536235809326172,0.38307225704193115,29.083251953125,-5.67626953125,-8.7127685546875
0.5112499,9.512163162231445,-3.3255462646484375,0.3878606855869293,28.411865234375,-5.157470703125,-8.7432861328125
0.5137499,9.50498104095459,-3.0765492916107178,0.43095630407333374,27.008056640625,-5.096435546875,-8.9263916015625
0.5162499,9.457097053527832,-2.808398485183716,0.5315127968788147,25.5279541015625,-5.1422119140625,-9.490966796875
0.5187499,9.404424667358398,-2.5522189140319824,0.6631938815116882,23.8037109375,-5.462646484375,-10.0860595703125
0.5212499,9.349357604980469,-2.319981336593628,0.7805097699165344,21.6522216796875,-5.9051513671875,-10.833740234375
0.5237499,9.318233489990234,-2.142810583114624,0.849941611289978,18.98193359375,-6.0882568359375,-11.6729736328125
0.5262499,9.289502143859863,-2.0231003761291504,0.8690952062606812,16.1590576171875,-6.16455078125,-12.2528076171875
0.5287499,9.272743225097656,-2.006340980529785,0.8475474119186401,13.12255859375,-6.4697265625,-12.51220703125
0.5312499,9.260771751403809,-2.1092917919158936,0.8092401623725891,10.6658935546875,-6.7596435546875,-12.8173828125
0.5337499,9.258378028869629,-2.3247697353363037,0.7661445140838623,8.941650390625,-6.9580078125,-13.12255859375
0.5362499000000001,9.272743225097656,-2.63362193107605,0.7038952708244324,7.8582763671875,-7.14111328125,-13.0462646484375
0.5387499,9.320627212524414,-2.983175277709961,0.6129156351089478,6.988525390625,-7.0953369140625,-13.0615234375
0.5412499000000001,9.385271072387695,-3.3039982318878174,0.4692635238170624,6.3629150390625,-6.7291259765625,-13.1072998046875
0.5437499,9.47146224975586,-3.5386300086975098,0.2777273952960968,5.79833984375,-6.6375732421875,-13.0462646484375
0.5462499000000001,9.567230224609375,-3.6798880100250244,0.047884032130241394,5.2337646484375,-6.5155029296875,-12.8173828125
0.5487499,9.63187313079834,-3.7445313930511475,-0.181959331035614,4.669189453125,-5.859375,-12.6800537109375
0.5512499000000001,9.667786598205566,-3.758896589279175,-0.3758896589279175,4.669189453125,-5.2642822265625,-12.939453125
0.5537499,9.646238327026367,-3.7876269817352295,-0.4812345504760742,5.462646484375,-5.1422119140625,-13.0615234375
0.5562499000000001,9.583989143371582,-3.821146011352539,-0.5003881454467773,6.0272216796875,-5.18798828125,-12.7105712890625
0.5587499,9.502586364746094,-3.861847400665283,-0.42616790533065796,6.5765380859375,-5.3253173828125,-12.7716064453125
0.5612499000000001,9.425971984863281,-3.914519786834717,-0.31124621629714966,7.1563720703125,-5.7830810546875,-13.00048828125
0.5637499,9.366117477416992,-3.9600095748901367,-0.19871874153614044,7.5531005859375,-5.8441162109375,-12.7716064453125
0.5662499000000001,9.320627212524414,-3.9911341667175293,-0.10773907601833344,8.30078125,-5.0201416015625,-12.87841796875
0.5687499,9.301473617553711,-4.0294413566589355,-0.05985504388809204,8.575439453125,-4.7149658203125,-12.3291015625
0.5712499000000001,9.299078941345215,-4.05817174911499,-0.016759412363171577,9.124755859375,-5.18798828125,-11.8408203125
0.5737499,9.32541561126709,-4.086902141571045,0.031124621629714966,9.8724365234375,-4.9896240234375,-11.6424560546875
0.5762499000000001,9.35654067993164,-4.0964789390563965,0.090979665517807,10.7421875,-4.7607421875,-11.199951171875
0.5787499,9.387664794921875,-4.091690540313721,0.1388636976480484,11.3372802734375,-4.4097900390625,-10.528564453125
0.5812499,9.373299598693848,-4.060565948486328,0.1843535304069519,11.3677978515625,-3.84521484375,-9.9334716796875
0.5837499,9.342175483703613,-4.022258758544922,0.21308395266532898,11.199951171875,-3.8299560546875,-9.185791015625
0.5862499,9.306262016296387,-3.976768970489502,0.2346317619085312,11.29150390625,-4.2266845703125,-8.2855224609375
0.5887499,9.284713745117188,-3.883395195007324,0.22505496442317963,11.749267578125,-4.486083984375,-7.965087890625
0.5912499,9.277531623840332,-3.734954595565796,0.20111294090747833,11.3525390625,-3.5400390625,-8.0413818359375
0.5937499,9.255983352661133,-3.5194764137268066,0.16998831927776337,10.92529296875,-2.50244140625,-8.36181640625
0.5962499,9.196128845214844,-3.268085241317749,0.1604115068912506,10.3302001953125,-1.8768310546875,-8.1024169921875
0.5987499000000001,9.102754592895508,-3.028665065765381,0.1867477297782898,9.613037109375,-2.0751953125,-8.4381103515625
0.6012499,8.983044624328613,-2.827552318572998,0.23942017555236816,9.185791015625,-2.2430419921875,-9.3231201171875
0.6037499000000001,8.880094528198242,-2.6839001178741455,0.28969839215278625,9.27734375,-2.044677734375,-10.162353515625
0.6062499,8.820239067077637,-2.607285737991333,0.3208230137825012,9.2926025390625,-2.105712890625,-10.3607177734375
0.6087499000000001,8.815450668334961,-2.5785553455352783,0.33279404044151306,9.0789794921875,-2.0294189453125,-10.9710693359375
0.6112499,8.887276649475098,-2.604891538619995,0.3280056416988373,8.9263916015625,-1.556396484375,-11.71875
0.6137499000000001,9.011775016784668,-2.6671407222747803,0.304063618183136,9.0179443359375,-1.007080078125,-12.6800537109375
0.6162499,9.174580574035645,-2.765302896499634,0.2561795711517334,9.46044921875,-0.0152587890625,-13.5498046875
0.6187499000000001,9.32302188873291,-2.873042106628418,0.181959331035614,10.2691650390625,1.1138916015625,-14.434814453125
0.6212499,9.440337181091309,-2.9951462745666504,0.0933738648891449,10.8642578125,2.471923828125,-14.83154296875
0.6237499000000001,9.512163162231445,-3.1507694721221924,0.023942016065120697,10.986328125,3.2196044921875,-15.0604248046875
0.6262499,9.543288230895996,-3.3423056602478027,-0.014365210197865963,11.6424560546875,3.6163330078125,-14.9993896484375
0.6287499000000001,9.564835548400879,-3.5960910320281982,-0.021547814831137657,12.5885009765625,4.5013427734375,-15.167236328125
0.6312499,9.603142738342285,-3.907337188720703,-0.028730420395731926,13.763427734375,5.18798828125,-14.984130859375
0.6337499000000001,9.658209800720215,-4.228160381317139,-0.08379705995321274,15.838623046875,5.6304931640625,-14.6942138671875
0.6362499,9.730035781860352,-4.525041103363037,-0.20111294090747833,18.4173583984375,6.8511962890625,-14.1754150390625
0.6387499000000001,9.806650161743164,-4.7620673179626465,-0.38546648621559143,20.69091796875,8.056640625,-13.458251953125
0.6412499,9.852140426635742,-4.908113479614258,-0.5961562395095825,22.6593017578125,9.1552734375,-12.664794921875
0.6437499,9.852140426635742,-4.9799394607543945,-0.7876923680305481,24.3988037109375,10.5133056640625,-11.810302734375
0.6462499,9.797073364257812,-4.982333660125732,-0.9097966551780701,26.5960693359375,11.7034912109375,-11.0931396484375
0.6487499,9.701305389404297,-4.948814868927002,-0.9481038451194763,28.7628173828125,12.1917724609375,-10.1470947265625
0.6512499,9.581595420837402,-4.869806289672852,-0.8978256583213806,30.21240234375,12.5885009765625,-9.1094970703125
0.6537499,9.459490776062012,-4.742913722991943,-0.7709329724311829,31.7230224609375,13.3819580078125,-8.0718994140625
0.6562499,9.342175483703613,-4.546588897705078,-0.5817909836769104,33.02001953125,14.068603515625,-6.988525390625
0.6587499,9.224859237670898,-4.2760443687438965,-0.3256114423274994,33.50830078125,14.7247314453125,-6.0882568359375
0.6612499000000001,9.07641887664795,-3.928884983062744,-0.033518824726343155,33.1573486328125,15.3961181640625,-5.5694580078125
0.6637499,8.889671325683594,-3.5242648124694824,0.2849099934101105,32.2723388671875,15.838623046875,-5.157470703125
0.6662499000000001,8.683769226074219,-3.0885202884674072,0.586579442024231,30.45654296875,15.8233642578125,-4.69970703125
0.6687499,8.47786808013916,-2.652775526046753,0.8188169598579407,27.83203125,14.739990234375,-4.547119140625
0.6712499000000001,8.33182144165039,-2.250549554824829,0.9528923034667969,24.5819091796875,13.946533203125,-4.5318603515625
0.6737499,8.281543731689453,-1.9369091987609863,0.9648633003234863,20.6146240234375,13.0615234375,-4.5623779296875
0.6762499000000001,8.341399192810059,-1.742978811264038,0.8906430602073669,17.4407958984375,12.0391845703125,-4.5623779296875
0.6787499,8.513781547546387,-1.699883222579956,0.7733271718025208,14.9993896484375,11.566162109375,-4.57763671875
0.6812499000000001,8.755595207214355,-1.802833914756775,0.6751648783683777,12.7105712890625,11.3983154296875,-4.9591064453125
0.6837499,9.009381294250488,-1.9967641830444336,0.6200982332229614,10.8184814453125,11.932373046875,-5.4779052734375
0.6862499000000001,9.220070838928223,-2.229001760482788,0.6224924325942993,9.46044921875,12.5885009765625,-5.767822265625
0.6887499,9.349357604980469,-2.4372973442077637,0.6727706789970398,8.3160400390625,12.908935546875,-5.5694580078125
0.6912499000000001,9.394847869873047,-2.6001031398773193,0.7493851184844971,6.3934326171875,12.9852294921875,-5.2490234375
0.6937499,9.39245319366455,-2.7126305103302,0.8236053586006165,4.2266845703125,13.214111328125,-5.2337646484375
0.6962499000000001,9.35654067993164,-2.7988216876983643,0.8667010068893433,2.62451171875,13.1072998046875,-5.0811767578125
0.6987499,9.315838813781738,-2.87064790725708,0.8643068075180054,1.0986328125,13.3056640625,-4.7454833984375
0.7012499000000001,9.26795482635498,-2.9544448852539062,0.8236053586006165,-0.244140625,13.7786865234375,-4.2724609375
0.7037499,9.224859237670898,-3.0621838569641113,0.768538773059845,-1.40380859375,13.9007568359375,-4.0740966796875
0.7062499,9.17697525024414,-3.19865345954895,0.730231523513794,-1.190185546875,13.8092041015625,-3.8299560546875
0.7087499,9.136273384094238,-3.337517261505127,0.7445967197418213,-0.518798828125,13.885498046875,-3.5552978515625
0.7112499,9.100360870361328,-3.4596214294433594,0.828393816947937,-0.1373291015625,13.5498046875,-2.8228759765625
0.7137499,9.07641887664795,-3.5434184074401855,0.9720458984375,0.274658203125,13.4124755859375,-2.3651123046875
0.7162499,9.057265281677246,-3.5649664402008057,1.158793568611145,1.4190673828125,13.7176513671875,-2.349853515625
0.7187499,9.045293807983398,-3.5410242080688477,1.3479355573654175,2.349853515625,13.702392578125,-2.2125244140625
0.7212499,9.05487060546875,-3.4739866256713867,1.4987702369689941,2.7618408203125,13.4124755859375,-2.1209716796875
0.7237499000000001,9.071630477905273,-3.3854012489318848,1.5825673341751099,3.6773681640625,13.3514404296875,-2.3651123046875
0.7262499,9.124302864074707,-3.337517261505127,1.5729905366897583,4.5623779296875,13.458251953125,-2.6092529296875
0.7287499000000001,9.188945770263672,-3.359065055847168,1.4652514457702637,6.0882568359375,13.7786865234375,-2.899169921875
0.7312499,9.251194953918457,-3.4572272300720215,1.2880805730819702,8.1024169921875,14.2822265625,-3.0517578125
0.7337499000000001,9.29189682006836,-3.620033025741577,1.094150185585022,10.162353515625,14.8162841796875,-2.7923583984375
0.7362499,9.315838813781738,-3.8355112075805664,0.9169792532920837,12.0086669921875,14.556884765625,-2.197265625
0.7387499000000001,9.327810287475586,-4.046200752258301,0.7805097699165344,14.5721435546875,14.251708984375,-1.861572265625
0.7412499,9.349357604980469,-4.240131378173828,0.6823474764823914,17.5323486328125,14.6026611328125,-1.64794921875
0.7437499000000001,9.375694274902344,-4.395754337310791,0.6009446382522583,20.263671875,15.167236328125,-0.946044921875
0.7462499,9.394847869873047,-4.496310710906982,0.5434837937355042,23.1475830078125,15.960693359375,-0.335693359375
0.7487499000000001,9.397241592407227,-4.534617900848389,0.5099649429321289,25.69580078125,16.6015625,-0.030517578125
0.7512499,9.370905876159668,-4.501099109649658,0.48602294921875,28.350830078125,16.632080078125,0.640869140625
0.7537499000000001,9.339780807495117,-4.4077253341674805,0.4644751250743866,30.6854248046875,16.29638671875,1.129150390625
0.7562499,9.318233489990234,-4.24970817565918,0.40701428055763245,32.745361328125,16.2506103515625,1.190185546875
0.7587499000000001,9.32302188873291,-4.060565948486328,0.3232172429561615,34.0576171875,16.7694091796875,0.946044921875
0.7612499,9.346963882446289,-3.869029998779297,0.22266076505184174,35.2935791015625,16.8914794921875,1.1749267578125
0.7637499000000001,9.368511199951172,-3.687070608139038,0.15801730751991272,36.1175537109375,17.1966552734375,1.28173828125
0.7662499,9.38048267364502,-3.5434184074401855,0.15801730751991272,36.4837646484375,17.4102783203125,1.52587890625
0.7687499000000001,9.370905876159668,-3.4332852363586426,0.22744916379451752,36.651611328125,17.4560546875,1.678466796875
0.7712499,9.351752281188965,-3.35667085647583,0.3447650372982025,36.56005859375,17.425537109375,1.4495849609375
0.7737499,9.32541561126709,-3.3063924312591553,0.4812345504760742,36.43798828125,17.364501953125,1.617431640625
0.7762499,9.289502143859863,-3.2632968425750732,0.6009446382522583,36.07177734375,17.333984375,1.8310546875
0.7787499,9.251194953918457,-3.224989652633667,0.6847416758537292,35.003662109375,17.3797607421875,1.89208984375
0.7812499,9.21288776397705,-3.1938650608062744,0.7182605266571045,33.6761474609375,17.4713134765625,1.6937255859375
0.7837499,9.167398452758789,-3.1699230670928955,0.689530074596405,32.6385498046875,17.333984375,1.953125
0.7862499000000001,9.138668060302734,-3.1675288677215576,0.6153098344802856,31.55517578125,16.9677734375,1.953125
0.7887499,9.133879661560059,-3.1723172664642334,0.5051765441894531,30.2886962890625,16.6778564453125,1.8768310546875
0.7912499000000001,9.17936897277832,-3.1675288677215576,0.3902548849582672,29.0985107421875,16.1285400390625,1.8310546875
0.7937499,9.272743225097656,-3.1531636714935303,0.28969839215278625,27.6641845703125,15.9912109375,1.556396484375
0.7962499000000001,9.390059471130371,-3.1076738834381104,0.2346317619085312,26.0009765625,16.632080078125,1.373291015625
0.7987499,9.48343276977539,-3.0406360626220703,0.24181437492370605,24.200439453125,17.2576904296875,1.129150390625
0.8012499000000001,9.531316757202148,-2.96162748336792,0.3232172429561615,22.5982666015625,17.3492431640625,0.91552734375
0.8037499,9.516951560974121,-2.8826189041137695,0.4668693244457245,20.843505859375,16.90673828125,0.5035400390625
0.8062499000000001,9.457097053527832,-2.8131868839263916,0.646434485912323,18.8446044921875,16.6778564453125,0.030517578125
0.8087499,9.378087997436523,-2.762908697128296,0.8140285611152649,16.78466796875,16.3116455078125,-0.5950927734375
0.8112499000000001,9.306262016296387,-2.738966703414917,0.9481038451194763,14.3890380859375,16.082763671875,-1.03759765625
0.8137499,9.263166427612305,-2.741360902786255,1.0247182846069336,11.9476318359375,15.594482421875,-1.4495849609375
0.8162499000000001,9.253589630126953,-2.7700912952423096,1.048660397529602,9.918212890625,15.07568359375,-1.617431640625
0.8187499,9.277531623840332,-2.82515811920166,1.0319008827209473,8.0108642578125,14.7705078125,-1.6326904296875
0.8212499000000001,9.315838813781738,-2.9161376953125,0.9840168952941895,6.0272216796875,14.5416259765625,-1.77001953125
0.8237499,9.363722801208496,-3.0597896575927734,0.9265560507774353,4.486083984375,14.5111083984375,-2.0751953125
0.8262499000000001,9.41639518737793,-3.466804027557373,0.8834604024887085,3.6468505859375,13.519287109375,-2.227783203125
0.8287499,9.41639518737793,-3.466804027557373,0.8834604024887085,3.6468505859375,13.519287109375,-2.227783203125
0.8312499000000001,9.433155059814453,-3.8163576126098633,0.9672574996948242,3.5247802734375,12.786865234375,-1.9989013671875
0.8337499,9.433155059814453,-3.8163576126098633,0.9672574996948242,3.5247802734375,12.786865234375,-1.9989013671875
0.8362499,9.44991397857666,-3.9624037742614746,1.0199298858642578,4.119873046875,12.3138427734375,-1.7547607421875
0.8387499,9.44991397857666,-3.9624037742614746,1.0199298858642578,4.119873046875,12.3138427734375,-1.7547607421875
0.8412499,9.469067573547363,-4.036623954772949,0.9313444495201111,5.5084228515625,11.993408203125,-1.7242431640625
0.8437499,9.469067573547363,-4.036623954772949,0.9313444495201111,5.5084228515625,11.993408203125,-1.7242431640625
0.8462499,9.461885452270508,-4.132391929626465,0.8690952062606812,7.9803466796875,11.2457275390625,-1.312255859375
0.8487499000000001,9.461885452270508,-4.132391929626465,0.8690952062606812,7.9803466796875,11.2457275390625,-1.312255859375
0.8512499,9.469067573547363,-4.170699596405029,0.9672574996948242,10.7574462890625,10.1318359375,-0.885009765625
0.8537499000000001,9.469067573547363,-4.170699596405029,0.9672574996948242,10.7574462890625,10.1318359375,-0.885009765625
0.8562499,9.5624418258667,-4.07014274597168,1.0893617868423462,13.6566162109375,9.21630859375,-0.8544921875
0.8587499000000001,9.5624418258667,-4.07014274597168,1.0893617868423462,13.6566162109375,9.21630859375,-0.8544921875
0.8612499,9.725247383117676,-3.8331170082092285,1.1324573755264282,15.625,8.5906982421875,-0.54931640625
0.8637499000000001,9.725247383117676,-3.8331170082092285,1.1324573755264282,15.625,8.5906982421875,-0.54931640625
0.8662499,9.856928825378418,-3.536235809326172,1.1228805780410767,16.8914794921875,8.1634521484375,-0.274658203125
0.8687499000000001,9.856928825378418,-3.536235809326172,1.1228805780410767,16.8914794921875,8.1634521484375,-0.274658203125
0.8712499,9.895236015319824,-3.3039982318878174,1.0630255937576294,18.0816650390625,7.476806640625,-0.30517578125
0.8737499000000001,9.895236015319824,-3.3039982318878174,1.0630255937576294,18.0816650390625,7.476806640625,-0.30517578125
0.8762499,9.830592155456543,-3.141192674636841,1.0271124839782715,18.768310546875,6.8359375,-0.2899169921875
0.8787499000000001,9.830592155456543,-3.141192674636841,1.0271124839782715,18.768310546875,6.8359375,-0.2899169921875
0.8812499,9.708487510681152,-2.9089550971984863,1.0869675874710083,17.4560546875,6.256103515625,-0.213623046875
0.8837499000000001,9.708487510681152,-2.9089550971984863,1.0869675874710083,17.4560546875,6.256103515625,-0.213623046875
0.8862499,9.619902610778809,-2.561795711517334,1.1109095811843872,15.1824951171875,4.8828125,0.091552734375
0.8887499000000001,9.619902610778809,-2.561795711517334,1.1109095811843872,15.1824951171875,4.8828125,0.091552734375
0.8912499,9.646238327026367,-2.229001760482788,0.9552865028381348,11.4593505859375,3.8909912109375,0.152587890625
0.8937499000000001,9.646238327026367,-2.229001760482788,0.9552865028381348,11.4593505859375,3.8909912109375,0.152587890625
0.8962499,9.737217903137207,-2.051830768585205,0.7110779285430908,7.26318359375,3.41796875,0.244140625
0.8987499,9.737217903137207,-2.051830768585205,0.7110779285430908,7.26318359375,3.41796875,0.244140625
0.9012499,9.765948295593262,-2.0661959648132324,0.5315127968788147,3.631591796875,2.86865234375,0.5645751953125
0.9037499,9.765948295593262,-2.0661959648132324,0.5315127968788147,3.631591796875,2.86865234375,0.5645751953125
0.9062499,9.694122314453125,-2.183511972427368,0.4812345504760742,0.6866455078125,2.1514892578125,1.0223388671875
0.9087499,9.694122314453125,-2.183511972427368,0.4812345504760742,0.6866455078125,2.1514892578125,1.0223388671875
0.9112499000000001,9.567230224609375,-2.250549554824829,0.5363011956214905,-2.4566650390625,0.6103515625,1.6021728515625
0.9137499,9.567230224609375,-2.250549554824829,0.5363011956214905,-2.4566650390625,0.6103515625,1.6021728515625
0.9162499000000001,9.519346237182617,-2.2673089504241943,0.6200982332229614,-5.8441162109375,-0.2899169921875,2.288818359375
0.9187499,9.519346237182617,-2.2673089504241943,0.6200982332229614,-5.8441162109375,-0.2899169921875,2.288818359375
0.9212499000000001,9.543288230895996,-2.33913516998291,0.727837324142456,-7.8887939453125,-0.7781982421875,2.9296875
0.9237499,9.543288230895996,-2.33913516998291,0.727837324142456,-7.8887939453125,-0.7781982421875,2.9296875
0.9262499000000001,9.47146224975586,-2.470816135406494,0.9002198576927185,-9.6893310546875,-2.3040771484375,3.8909912109375
0.9287499,9.47146224975586,-2.470816135406494,0.9002198576927185,-9.6893310546875,-2.3040771484375,3.8909912109375
0.9312499000000001,9.35893440246582,-2.5785553455352783,1.0630255937576294,-10.2691650390625,-3.7841796875,4.364013671875
0.9337499,9.327810287475586,-2.580949544906616,1.0989385843276978,-10.3759765625,-4.21142578125,4.791259765625
0.9362499000000001,9.327810287475586,-2.5498247146606445,1.0965443849563599,-10.8489990234375,-4.7760009765625,4.8065185546875
0.9387499,9.346963882446289,-2.4827871322631836,1.0534487962722778,-11.199951171875,-5.035400390625,4.7149658203125
0.9412499000000001,9.390059471130371,-2.427720546722412,0.9792284965515137,-11.199951171875,-5.462646484375,4.8370361328125
0.9437499,9.418789863586426,-2.382230758666992,0.8882488012313843,-11.0626220703125,-5.706787109375,5.06591796875
0.9462499000000001,9.428366661071777,-2.382230758666992,0.8164227604866028,-11.4898681640625,-6.0272216796875,5.126953125
0.9487499,9.394847869873047,-2.43011474609375,0.7852981686592102,-11.71875,-6.439208984375,5.157470703125
0.9512499000000001,9.327810287475586,-2.518700122833252,0.8020575642585754,-11.29150390625,-6.7138671875,5.2490234375
0.9537499,9.239224433898926,-2.6384103298187256,0.8595184087753296,-10.5133056640625,-7.5225830078125,5.0048828125
0.9562499000000001,9.162610054016113,-2.760514497756958,0.9385270476341248,-9.82666015625,-8.453369140625,4.9591064453125
0.9587499,9.126696586608887,-2.8658595085144043,1.0055646896362305,-8.72802734375,-8.8043212890625,4.94384765625
0.9612499,9.141061782836914,-2.9496564865112305,1.048660397529602,-7.62939453125,-9.124755859375,5.1422119140625
0.9637499,9.198522567749023,-3.0142998695373535,1.0534487962722778,-6.134033203125,-9.2620849609375,5.1727294921875
0.9662499,9.26795482635498,-3.07415509223938,1.039083480834961,-4.913330078125,-9.246826171875,4.8828125
0.9687499,9.318233489990234,-3.136404275894165,1.0007762908935547,-3.173828125,-9.490966796875,4.7607421875
0.9712499,9.334992408752441,-3.205836057662964,0.9600749015808105,-1.5716552734375,-9.8114013671875,5.157470703125
0.9737499000000001,9.313444137573242,-3.268085241317749,0.9193734526634216,-0.091552734375,-10.284423828125,5.218505859375
0.9762499,9.279925346374512,-3.332728862762451,0.8810662031173706,1.3580322265625,-10.8184814453125,5.18798828125
0.9787499000000001,9.227252960205078,-3.383007049560547,0.8619126081466675,3.0059814453125,-11.3067626953125,5.4473876953125
0.9812499,9.188945770263672,-3.4308910369873047,0.8595184087753296,4.8828125,-11.4288330078125,5.615234375
0.9837499000000001,9.148244857788086,-3.4572272300720215,0.871489405632019,6.6986083984375,-11.566162109375,5.67626953125
0.9862499,9.119514465332031,-3.450044631958008,0.8978256583213806,8.575439453125,-12.0697021484375,5.7830810546875
0.9887499000000001,9.08838939666748,-3.383007049560547,0.9313444495201111,10.0860595703125,-12.39013671875,6.1187744140625
0.9912499,9.064447402954102,-3.2632968425750732,0.9672574996948242,11.0321044921875,-12.51220703125,6.195068359375
0.9937499000000001,9.040505409240723,-3.1052796840667725,0.9983820915222168,11.474609375,-12.725830078125,6.0882568359375
0.9962499,9.023746490478516,-2.935291290283203,1.0127472877502441,12.0697021484375,-12.9241943359375,5.8746337890625
0.9987499000000001,9.002198219299316,-2.784456491470337,1.0103530883789062,12.6953125,-12.8631591796875,5.6915283203125
1.0012499,8.983044624328613,-2.6623523235321045,0.9959878921508789,13.031005859375,-12.8936767578125,5.43212890625
1.0037498999999999,8.959102630615234,-2.583343744277954,0.9648633003234863,13.3056640625,-13.1683349609375,5.2490234375
1.0062499,8.93037223815918,-2.542642116546631,0.9313444495201111,13.275146484375,-13.0767822265625,5.1116943359375
1.0087499,8.89685344696045,-2.535459518432617,0.9097966551780701,13.0767822265625,-13.1378173828125,5.218505859375
1.0112499,8.856152534484863,-2.5498247146606445,0.8954314589500427,13.18359375,-13.4124755859375,5.0506591796875
1.0137498999999999,8.810662269592285,-2.583343744277954,0.8930372595787048,13.48876953125,-13.5955810546875,4.852294921875
1.0162499,8.767566680908203,-2.6192567348480225,0.9050082564353943,13.5040283203125,-13.702392578125,4.852294921875
1.0187499,8.734047889709473,-2.6431987285614014,0.9217676520347595,13.1988525390625,-13.85498046875,4.6844482421875
1.0212499,8.71728801727295,-2.655169725418091,0.9457096457481384,12.6953125,-13.7939453125,4.8065185546875
1.0237498999999999,8.712499618530273,-2.652775526046753,0.9744400978088379,11.8865966796875,-13.671875,4.7454833984375
1.0262498999999998,8.71489429473877,-2.652775526046753,1.0031704902648926,11.322021484375,-13.6871337890625,4.8828125
1.0287499,8.71728801727295,-2.6623523235321045,1.0247182846069336,10.9100341796875,-13.5345458984375,5.096435546875
1.0312499,8.71489429473877,-2.6862943172454834,1.039083480834961,10.8489990234375,-13.3209228515625,4.913330078125
1.0337498999999999,8.710105895996094,-2.719813108444214,1.0534487962722778,10.8489990234375,-13.336181640625,4.8980712890625
1.0362498999999998,8.700529098510742,-2.7437551021575928,1.072602391242981,10.711669921875,-13.1072998046875,4.8065185546875
1.0387499,8.681375503540039,-2.765302896499634,1.0989385843276978,10.6048583984375,-12.63427734375,4.638671875
1.0412499,8.65982723236084,-2.7748796939849854,1.1252747774124146,10.1318359375,-12.5885009765625,4.4403076171875
1.0437499,8.640673637390137,-2.7940332889556885,1.139639973640442,10.2996826171875,-12.4664306640625,4.0130615234375
1.0462498999999998,8.638279914855957,-2.82515811920166,1.1444283723831177,10.0250244140625,-12.3291015625,3.5247802734375
1.0487499,8.647856712341309,-2.889801502227783,1.1444283723831177,9.9945068359375,-12.237548828125,3.570556640625
1.0512499,8.669404029846191,-2.9759926795959473,1.1516109704971313,10.07080078125,-12.02392578125,3.3721923828125
1.0537499,8.688557624816895,-3.0765492916107178,1.173158884048462,10.650634765625,-11.8865966796875,3.3721923828125
1.0562498999999999,8.698134422302246,-3.1747114658355713,1.216254472732544,11.260986328125,-11.8560791015625,3.173828125
1.0587499,8.707711219787598,-3.246537446975708,1.2665326595306396,11.6119384765625,-11.7645263671875,2.74658203125
1.0612499,8.724471092224121,-3.2824504375457764,1.314416766166687,11.65771484375,-11.474609375,2.593994140625
1.0637499,8.760383605957031,-3.287238836288452,1.3455413579940796,11.7340087890625,-11.2152099609375,2.3956298828125
1.0662498999999999,8.815450668334961,-3.2752678394317627,1.338358759880066,11.7340087890625,-10.8795166015625,2.227783203125
1.0687499,8.877699851989746,-3.265691041946411,1.3048399686813354,11.90185546875,-10.4827880859375,1.9683837890625
1.0712499,8.937555313110352,-3.270479440689087,1.2545616626739502,12.20703125,-9.8724365234375,1.6937255859375
1.0737499,8.980650901794434,-3.2848446369171143,1.2018892765045166,12.26806640625,-9.765625,1.434326171875
1.0762498999999999,9.002198219299316,-3.3039982318878174,1.1755530834197998,12.5274658203125,-9.5367431640625,1.28173828125
1.0787499,9.011775016784668,-3.318363666534424,1.192312479019165,12.4359130859375,-9.185791015625,1.007080078125
1.0812499,9.009381294250488,-3.3303346633911133,1.237802267074585,11.962890625,-8.7738037109375,0.7476806640625
1.0837499,9.011775016784668,-3.3446998596191406,1.3239935636520386,11.6119384765625,-8.36181640625,0.5035400390625
1.0862498999999999,9.023746490478516,-3.3710360527038574,1.414973258972168,11.29150390625,-8.087158203125,0.335693359375
1.0887499,9.045293807983398,-3.404554843902588,1.501164436340332,11.260986328125,-7.5836181640625,0.2288818359375
1.0912499,9.081207275390625,-3.4356794357299805,1.5610195398330688,11.505126953125,-7.2784423828125,-0.1373291015625
1.0937499,9.119514465332031,-3.464409828186035,1.5945383310317993,11.3525390625,-6.6070556640625,-0.4425048828125
1.0962498999999999,9.14585018157959,-3.4811692237854004,1.6112977266311646,11.1083984375,-6.0577392578125,-0.91552734375
1.0987498999999998,9.160215377807617,-3.4835634231567383,1.6160861253738403,10.7269287109375,-5.584716796875,-1.2054443359375
1.1012499,9.165003776550293,-3.4811692237854004,1.6160861253738403,10.1165771484375,-5.0201416015625,-1.3275146484375
1.1037499,9.165003776550293,-3.4787750244140625,1.6089035272598267,9.918212890625,-4.608154296875,-1.708984375
1.1062499,9.169792175292969,-3.4811692237854004,1.5945383310317993,9.8114013671875,-4.1961669921875,-2.1820068359375
1.1087498999999998,9.17697525024414,-3.4979286193847656,1.5682021379470825,9.5367431640625,-3.6773681640625,-2.62451171875
1.1112499,9.196128845214844,-3.531447410583496,1.5442601442337036,9.613037109375,-3.2806396484375,-2.8839111328125
1.1137499,9.208099365234375,-3.581725835800171,1.5394717454910278,9.3536376953125,-2.655029296875,-3.326416015625
1.1162499,9.217676162719727,-3.648763418197632,1.5658079385757446,9.0789794921875,-2.2430419921875,-3.5247802734375
1.1187498999999999,9.215282440185547,-3.7205893993377686,1.6160861253738403,8.941650390625,-1.9989013671875,-3.5858154296875
1.1212499,9.215282440185547,-3.7876269817352295,1.6663644313812256,9.1094970703125,-1.6021728515625,-3.7689208984375
1.1237499,9.224859237670898,-3.8379054069519043,1.6974890232086182,8.758544921875,-1.2054443359375,-4.08935546875
1.1262499,9.263166427612305,-3.8786067962646484,1.6855180263519287,8.6212158203125,-0.67138671875,-4.2877197265625
1.1287498999999999,9.313444137573242,-3.914519786834717,1.6328455209732056,8.8043212890625,-0.1678466796875,-4.2572021484375
1.1312499,9.370905876159668,-3.9600095748901367,1.5490485429763794,8.7127685546875,0.3204345703125,-4.2724609375
1.1337499,9.418789863586426,-4.017470359802246,1.460463047027588,8.7127685546875,0.6866455078125,-4.21142578125
1.1362499,9.445125579833984,-4.079719543457031,1.3766659498214722,8.880615234375,1.251220703125,-4.1046142578125
1.1387498999999999,9.457097053527832,-4.137180328369141,1.3215993642807007,9.490966796875,1.5716552734375,-4.058837890625
1.1412499,9.457097053527832,-4.168305397033691,1.2832920551300049,10.101318359375,1.6326904296875,-4.0283203125
1.1437499,9.464279174804688,-4.170699596405029,1.256955862045288,10.589599609375,1.89208984375,-3.9520263671875
1.1462499,9.48343276977539,-4.141968727111816,1.2330138683319092,10.68115234375,2.25830078125,-3.875732421875
1.1487498999999999,9.516951560974121,-4.10366153717041,1.2090718746185303,10.955810546875,2.8228759765625,-3.7841796875
1.1512499,9.560047149658203,-4.079719543457031,1.2018892765045166,10.955810546875,3.23486328125,-3.7078857421875
1.1537499,9.588777542114258,-4.084507942199707,1.2090718746185303,11.3983154296875,3.570556640625,-3.6468505859375
1.1562499,9.615114212036133,-4.129997730255127,1.2282254695892334,12.2833251953125,3.692626953125,-3.2806396484375
1.1587498999999999,9.62947940826416,-4.201824188232422,1.2425906658172607,12.8631591796875,3.9520263671875,-2.9754638671875
1.1612498999999998,9.643844604492188,-4.278438568115234,1.237802267074585,13.5040283203125,4.1961669921875,-2.62451171875
1.1637499,9.653421401977539,-4.32871675491333,1.216254472732544,14.1143798828125,4.4708251953125,-2.105712890625
1.1662499,9.670180320739746,-4.345476150512695,1.1827356815338135,14.3585205078125,4.7607421875,-1.7242431640625
1.1687499,9.674968719482422,-4.3191399574279785,1.1516109704971313,14.7857666015625,4.8828125,-1.1444091796875
1.1712498999999998,9.68694019317627,-4.259284973144531,1.1276689767837524,14.984130859375,5.096435546875,-1.0528564453125
1.1737499,9.694122314453125,-4.180276393890381,1.113303780555725,14.678955078125,5.340576171875,-0.6561279296875
1.1762499,9.701305389404297,-4.091690540313721,1.0965443849563599,14.6484375,5.2490234375,-0.1068115234375
1.1787499,9.708487510681152,-4.01268196105957,1.0893617868423462,14.3585205078125,5.2490234375,0.1220703125
1.1812498999999999,9.715670585632324,-3.9432501792907715,1.072602391242981,13.916015625,5.5999755859375,0.2288818359375
1.1837499,9.725247383117676,-3.8953661918640137,1.0630255937576294,13.5650634765625,5.7830810546875,0.518798828125
1.1862499,9.734824180603027,-3.869029998779297,1.05105459690094,13.3209228515625,5.462646484375,0.732421875
1.1887499,9.739612579345703,-3.8570590019226074,1.036689281463623,12.5732421875,5.523681640625,1.007080078125
1.1912498999999999,9.732429504394531,-3.8570590019226074,1.015141487121582,11.962890625,5.6610107421875,1.1138916015625
1.1937499,9.725247383117676,-3.866635799407959,0.993593692779541,11.383056640625,5.6915283203125,1.2359619140625
1.1962499,9.710882186889648,-3.8786067962646484,0.9672574996948242,10.9710693359375,5.3558349609375,1.495361328125
1.1987499,9.696516990661621,-3.8977603912353516,0.9433154463768005,10.4217529296875,5.18798828125,1.8310546875
1.2012498999999999,9.682151794433594,-3.9264907836914062,0.9289502501487732,9.7808837890625,4.8828125,2.01416015625
1.2037499,9.66299819946289,-3.950432777404785,0.9265560507774353,9.5062255859375,4.730224609375,2.1209716796875
1.2062499,9.648633003234863,-3.9600095748901367,0.9385270476341248,9.4146728515625,4.6234130859375,2.25830078125
1.2087499,9.636661529541016,-3.957615375518799,0.9481038451194763,8.941650390625,4.3182373046875,2.3345947265625
1.2112498999999999,9.62947940826416,-3.93367338180542,0.950498104095459,8.23974609375,4.2266845703125,2.288818359375
1.2137499,9.622296333312988,-3.912125587463379,0.933738648891449,7.781982421875,4.1351318359375,2.2125244140625
1.2162499,9.617507934570312,-3.8977603912353516,0.9050082564353943,7.415771484375,3.9215087890625,2.25830078125
1.2187499,9.603142738342285,-3.9049429893493652,0.8619126081466675,6.500244140625,3.5247802734375,1.983642578125
1.2212498999999999,9.583989143371582,-3.931279182434082,0.8188169598579407,6.1492919921875,3.2501220703125,2.105712890625
1.2237498999999998,9.557653427124023,-3.9671921730041504,0.7829039692878723,6.103515625,2.838134765625,2.166748046875
1.2262499,9.524134635925293,-4.0078935623168945,0.7493851184844971,5.37109375,2.62451171875,1.9378662109375
1.2287499,9.488221168518066,-4.041412353515625,0.7350199222564697,5.06591796875,2.2125244140625,2.01416015625
1.2312499,9.452308654785156,-4.060565948486328,0.730231523513794,4.730224609375,1.3427734375,2.1820068359375
1.2337498999999998,9.418789863586426,-4.0749311447143555,0.7398083209991455,4.425048828125,1.007080078125,2.3651123046875
1.2362499,9.394847869873047,-4.077325344085693,0.7493851184844971,3.9520263671875,0.6103515625,2.5177001953125
1.2387499,9.378087997436523,-4.072536945343018,0.7709329724311829,3.72314453125,0.2899169921875,2.593994140625
1.2412499,9.301473617553711,-3.9839515686035156,0.8595184087753296,2.0904541015625,-1.190185546875,2.197265625
1.2437498999999999,9.301473617553711,-3.9839515686035156,0.8595184087753296,2.0904541015625,-1.190185546875,2.197265625
1.2462499,9.265560150146484,-3.9695863723754883,0.8882488012313843,1.6326904296875,-1.617431640625,2.3193359375
1.2487499,9.229647636413574,-3.971980571746826,0.9169792532920837,1.3885498046875,-2.1209716796875,2.4261474609375
1.2512499,9.198522567749023,-3.976768970489502,0.9552865028381348,1.52587890625,-2.4566650390625,1.9073486328125
1.2537498999999999,9.169792175292969,-3.97916316986084,1.0079588890075684,1.617431640625,-2.8839111328125,1.9378662109375
1.2562499,9.14585018157959,-3.9600095748901367,1.070208191871643,1.556396484375,-3.265380859375,1.64794921875
1.2587499,9.126696586608887,-3.9193081855773926,1.1348515748977661,1.7852783203125,-3.509521484375,1.190185546875
1.2612499,9.10993766784668,-3.8546648025512695,1.1851298809051514,1.64794921875,-3.6163330078125,0.8544921875
1.2637498999999999,9.095572471618652,-3.780444383621216,1.2018892765045166,1.3885498046875,-3.814697265625,0.6103515625
1.2662499,9.090784072875977,-3.711012601852417,1.173158884048462,1.220703125,-3.875732421875,-0.1068115234375
1.2687499,9.095572471618652,-3.665522813796997,1.0893617868423462,0.7781982421875,-3.997802734375,-0.54931640625
1.2712499,9.11233139038086,-3.663128614425659,0.9624691009521484,0.396728515625,-4.1351318359375,-0.579833984375
1.2737498999999999,9.129091262817383,-3.713406801223755,0.8092401623725891,0.1068115234375,-3.90625,-0.9918212890625
1.2762499,9.141061782836914,-3.8163576126098633,0.6631938815116882,0.0457763671875,-3.9520263671875,-0.946044921875
1.2787499,9.117119789123535,-3.9480385780334473,0.5602431893348694,0.5950927734375,-4.1046142578125,-0.9918212890625
1.2812499,9.066842079162598,-4.077325344085693,0.5219359993934631,0.9765625,-4.0435791015625,-0.6103515625
1.2837498999999999,8.995016098022461,-4.165910720825195,0.5602431893348694,1.3580322265625,-4.425048828125,-0.3814697265625
1.2862498999999998,8.913613319396973,-4.1874589920043945,0.6560112833976746,1.5716552734375,-5.035400390625,-0.1983642578125
1.2887499,8.853757858276367,-4.127603530883789,0.790086567401886,1.6326904296875,-5.4473876953125,0.1220703125
1.2912499,8.813055992126465,-4.000710964202881,0.9457096457481384,1.5716552734375,-5.9051513671875,0.030517578125
1.2937499,8.801085472106934,-3.8331170082092285,1.0965443849563599,0.8697509765625,-6.011962890625,0.2899169921875
1.2962498999999998,8.808267593383789,-3.6511576175689697,1.235408067703247,0.1373291015625,-6.4544677734375,0.213623046875
1.2987499,8.825027465820312,-3.4763808250427246,1.3551181554794312,-0.79345703125,-6.65283203125,0.091552734375
1.3012499,8.848969459533691,-3.3303346633911133,1.4413094520568848,-1.3885498046875,-6.7138671875,0.0457763671875
1.3037499,8.868123054504395,-3.2130186557769775,1.50355863571167,-2.1820068359375,-6.7596435546875,-0.06103515625
1.3062498999999999,8.877699851989746,-3.1292216777801514,1.53707754611969,-2.86865234375,-6.866455078125,-0.1220703125
1.3087499,8.875306129455566,-3.069366693496704,1.5490485429763794,-3.5552978515625,-6.805419921875,-0.42724609375
1.3112499,8.856152534484863,-3.0358476638793945,1.5538369417190552,-4.486083984375,-6.927490234375,-0.6256103515625
1.3137499,8.829815864562988,-3.021482467651367,1.5442601442337036,-5.2947998046875,-7.2479248046875,-0.8087158203125
1.3162498999999999,8.810662269592285,-3.0334534645080566,1.5275006294250488,-5.9814453125,-7.50732421875,-0.823974609375
1.3187499,8.803479194641113,-3.0621838569641113,1.4987702369689941,-6.591796875,-7.3394775390625,-1.129150390625
1.3212499,8.808267593383789,-3.1076738834381104,1.455674648284912,-7.2479248046875,-7.1258544921875,-1.2054443359375
1.3237499,8.825027465820312,-3.1507694721221924,1.4197616577148438,-7.7362060546875,-7.171630859375,-1.2359619140625
1.3262498999999999,8.834604263305664,-3.181894063949585,1.3862427473068237,-7.9498291015625,-7.38525390625,-1.3427734375
1.3287499,8.83699893951416,-3.1962592601776123,1.3670891523361206,-8.1939697265625,-7.1868896484375,-1.617431640625
1.3312499,8.83939266204834,-3.1962592601776123,1.3623007535934448,-8.4228515625,-7.1563720703125,-1.7852783203125
1.3337499,8.841787338256836,-3.1866824626922607,1.3623007535934448,-8.1787109375,-7.26318359375,-1.77001953125
1.3362498999999999,8.853757858276367,-3.181894063949585,1.3646949529647827,-8.3465576171875,-7.080078125,-1.9989013671875
1.3387499,8.87291145324707,-3.184288263320923,1.3551181554794312,-8.514404296875,-6.8359375,-2.1514892578125
1.3412499,8.899248123168945,-3.2130186557769775,1.335964560508728,-8.7127685546875,-6.6375732421875,-2.471923828125
1.3437499,8.913613319396973,-3.2585084438323975,1.3120225667953491,-8.6517333984375,-6.6680908203125,-2.8076171875
1.3462498999999999,8.916007041931152,-3.335123062133789,1.290474772453308,-8.392333984375,-6.77490234375,-2.6702880859375
1.3487498999999998,8.89445972442627,-3.426102638244629,1.2976573705673218,-8.1329345703125,-6.6680908203125,-2.777099609375
1.3512499,8.865729331970215,-3.531447410583496,1.3263877630233765,-7.568359375,-6.8511962890625,-2.62451171875
1.3537499,8.83699893951416,-3.624821424484253,1.3718775510787964,-7.293701171875,-7.01904296875,-2.471923828125
1.3562499,8.829815864562988,-3.6990416049957275,1.4077905416488647,-6.53076171875,-7.110595703125,-2.38037109375
1.3587498999999998,8.841787338256836,-3.7397429943084717,1.4293384552001953,-6.072998046875,-7.4005126953125,-2.25830078125
1.3612499,8.87051773071289,-3.7469255924224854,1.4293384552001953,-5.5999755859375,-7.32421875,-2.288818359375
1.3637499,8.913613319396973,-3.73016619682312,1.3934253454208374,-5.218505859375,-7.3089599609375,-2.0599365234375
1.3662499,8.949525833129883,-3.6846764087677,1.3455413579940796,-4.730224609375,-7.26318359375,-2.0904541015625
1.3687498999999999,8.980650901794434,-3.6391866207122803,1.2737152576446533,-4.302978515625,-7.3699951171875,-2.1820068359375
1.3712499,8.995016098022461,-3.536235809326172,1.1204863786697388,-3.6773681640625,-7.4005126953125,-2.0599365234375
1.3737499,8.995016098022461,-3.536235809326172,1.1204863786697388,-3.6773681640625,-7.4005126953125,-2.0599365234375
1.3762499,8.99740982055664,-3.464409828186035,0.993593692779541,-3.3111572265625,-7.4462890625,-2.044677734375
1.3787498999999999,8.99740982055664,-3.464409828186035,0.993593692779541,-3.3111572265625,-7.4462890625,-2.044677734375
1.3812499,9.014169692993164,-3.4404678344726562,0.9241618514060974,-3.0975341796875,-7.568359375,-1.8463134765625
1.3837499,9.014169692993164,-3.4404678344726562,0.9241618514060974,-3.0975341796875,-7.568359375,-1.8463134765625
1.3862499,9.030928611755371,-3.4524388313293457,0.8930372595787048,-3.021240234375,-7.7056884765625,-1.77001953125
1.3887498999999999,9.030928611755371,-3.4524388313293457,0.8930372595787048,-3.021240234375,-7.7056884765625,-1.77001953125
1.3912499,9.062053680419922,-3.4308910369873047,0.8547300100326538,-3.509521484375,-7.5225830078125,-1.9989013671875
1.3937499,9.062053680419922,-3.4308910369873047,0.8547300100326538,-3.509521484375,-7.5225830078125,-1.9989013671875
1.3962499,9.097966194152832,-3.375824451446533,0.7924807667732239,-3.326416015625,-7.6446533203125,-1.617431640625
1.3987498999999999,9.097966194152832,-3.375824451446533,0.7924807667732239,-3.326416015625,-7.6446533203125,-1.617431640625
1.4012499,9.131484985351562,-3.3255462646484375,0.7230489253997803,-3.9825439453125,-7.6141357421875,-1.8768310546875
1.4037499,9.131484985351562,-3.3255462646484375,0.7230489253997803,-3.9825439453125,-7.6141357421875,-1.8768310546875
1.4062499,9.174580574035645,-3.2968156337738037,0.6703764796257019,-4.6844482421875,-7.6751708984375,-1.617431640625
1.4087498999999999,9.174580574035645,-3.2968156337738037,0.6703764796257019,-4.6844482421875,-7.6751708984375,-1.617431640625
1.4112498999999998,9.215282440185547,-3.3207578659057617,0.667982280254364,-5.706787109375,-7.4005126953125,-1.40380859375
1.4137499,9.215282440185547,-3.3207578659057617,0.667982280254364,-5.706787109375,-7.4005126953125,-1.40380859375
1.4162499,9.260771751403809,-3.361459255218506,0.706289529800415,-5.92041015625,-7.537841796875,-1.2054443359375
1.4187499,9.260771751403809,-3.361459255218506,0.706289529800415,-5.92041015625,-7.537841796875,-1.2054443359375
1.4212498999999998,9.320627212524414,-3.359065055847168,0.7015010714530945,-6.378173828125,-7.1868896484375,-0.762939453125
1.4237499,9.320627212524414,-3.359065055847168,0.7015010714530945,-6.378173828125,-7.1868896484375,-0.762939453125
1.4262499,9.373299598693848,-3.3255462646484375,0.6344634294509888,-6.8511962890625,-6.65283203125,-0.79345703125
1.4287499,9.373299598693848,-3.3255462646484375,0.6344634294509888,-6.8511962890625,-6.65283203125,-0.79345703125
1.4312498999999999,9.39245319366455,-3.313575267791748,0.5602431893348694,-7.2021484375,-6.2713623046875,-0.732421875
1.4337499,9.39245319366455,-3.313575267791748,0.5602431893348694,-7.2021484375,-6.2713623046875,-0.732421875
1.4362499,9.399636268615723,-3.354276657104492,0.5315127968788147,-7.7972412109375,-6.2713623046875,-0.579833984375
1.4387499,9.399636268615723,-3.354276657104492,0.5315127968788147,-7.7972412109375,-6.2713623046875,-0.579833984375
1.4412498999999999,9.418789863586426,-3.442862033843994,0.5386953949928284,-7.9193115234375,-5.828857421875,-0.3509521484375
1.4437499,9.418789863586426,-3.442862033843994,0.5386953949928284,-7.9193115234375,-5.828857421875,-0.3509521484375
1.4462499,9.469067573547363,-3.5434184074401855,0.5363011956214905,-7.32421875,-5.4931640625,-0.3204345703125
1.4487499,9.469067573547363,-3.5434184074401855,0.5363011956214905,-7.32421875,-5.4931640625,-0.3204345703125
1.4512498999999999,9.512163162231445,-3.600879430770874,0.5410895943641663,-7.0037841796875,-5.2947998046875,0.091552734375
1.4537499,9.512163162231445,-3.600879430770874,0.5410895943641663,-7.0037841796875,-5.2947998046875,0.091552734375
1.4562499,9.502586364746094,-3.60566782951355,0.569819986820221,-6.378173828125,-4.7760009765625,0.2899169921875
1.4587499,9.502586364746094,-3.60566782951355,0.569819986820221,-6.378173828125,-4.7760009765625,0.2899169921875
1.4612498999999999,9.497797966003418,-3.706224203109741,0.629675030708313,-5.79833984375,-4.974365234375,0.244140625
1.4637499,9.497797966003418,-3.706224203109741,0.629675030708313,-5.79833984375,-4.974365234375,0.244140625
1.4662499,9.521739959716797,-3.799597978591919,0.5410895943641663,-1.6021728515625,-3.5858154296875,0.3662109375
1.4687499,9.521739959716797,-3.799597978591919,0.5410895943641663,-1.6021728515625,-3.5858154296875,0.3662109375
1.4712498999999999,9.545681953430176,-3.313575267791748,0.4572925269603729,-4.5928955078125,-4.2572021484375,0.1983642578125
1.4737498999999998,9.545681953430176,-3.313575267791748,0.4572925269603729,-4.5928955078125,-4.2572021484375,0.1983642578125
1.4762499,9.569623947143555,-3.136404275894165,0.5674257874488831,-8.8653564453125,-3.47900390625,-0.030517578125
1.4787499,9.569623947143555,-3.136404275894165,0.5674257874488831,-8.8653564453125,-3.47900390625,-0.030517578125
1.4812499,9.555258750915527,-3.6535518169403076,0.6536170840263367,-2.593994140625,-3.692626953125,0.6561279296875
1.4837498999999998,9.536105155944824,-3.77565598487854,0.6703764796257019,-3.326416015625,-3.47900390625,0.6866455078125
1.4862499,9.521739959716797,-3.737348794937134,0.667982280254364,-3.936767578125,-3.326416015625,0.54931640625
1.4887499,9.526528358459473,-3.6104562282562256,0.6631938815116882,-4.5013427734375,-3.082275390625,0.3814697265625
1.4912499,9.536105155944824,-3.485957622528076,0.646434485912323,-4.82177734375,-2.960205078125,0.6103515625
1.4937498999999999,9.555258750915527,-3.4117374420166016,0.6272808313369751,-4.730224609375,-2.777099609375,0.640869140625
1.4962499,9.564835548400879,-3.397372245788574,0.5937620401382446,-4.2266845703125,-2.5634765625,0.3509521484375
1.4987499,9.567230224609375,-3.423708438873291,0.5410895943641663,-3.7689208984375,-2.38037109375,0.30517578125
1.5012499,9.5624418258667,-3.469198226928711,0.47884035110473633,-3.6773681640625,-2.3651123046875,0.3509521484375
1.5037498999999999,9.5408935546875,-3.529053211212158,0.4165911078453064,-3.7078857421875,-2.0294189453125,0.42724609375
1.5062499,9.509769439697266,-3.5913026332855225,0.3758896589279175,-3.5858154296875,-2.0751953125,0.54931640625
1.5087499,9.473855972290039,-3.6535518169403076,0.35673606395721436,-3.1585693359375,-2.1209716796875,0.6561279296875
1.5112499,9.442731857299805,-3.6990416049957275,0.3519476354122162,-2.7008056640625,-2.105712890625,1.1138916015625
1.5137498999999999,9.418789863586426,-3.7229835987091064,0.35913026332855225,-2.6397705078125,-1.9989013671875,1.1444091796875
1.5162499,9.411606788635254,-3.73016619682312,0.363918662071228,-2.25830078125,-2.0904541015625,1.5716552734375
1.5187499,9.406818389892578,-3.7229835987091064,0.38307225704193115,-1.861572265625,-2.1820068359375,1.8768310546875
1.5212499,9.404424667358398,-3.708618402481079,0.3998316824436188,-1.8768310546875,-1.739501953125,2.044677734375
1.5237498999999999,9.39245319366455,-3.6846764087677,0.4213795065879822,-1.312255859375,-1.7852783203125,2.349853515625
1.5262499,9.368511199951172,-3.6535518169403076,0.4381389021873474,-0.9613037109375,-1.9073486328125,2.38037109375
1.5287499,9.339780807495117,-3.6176388263702393,0.44771572947502136,-1.0223388671875,-1.861572265625,2.3193359375
1.5312499,9.315838813781738,-3.581725835800171,0.45489832758903503,-0.91552734375,-2.0904541015625,2.3651123046875
1.5337498999999999,9.299078941345215,-3.5482068061828613,0.4620809257030487,-0.701904296875,-2.13623046875,2.5177001953125
1.5362499,9.294290542602539,-3.5266590118408203,0.4644751250743866,-0.823974609375,-2.2125244140625,2.5177001953125
1.5387499,9.299078941345215,-3.529053211212158,0.4620809257030487,-1.1444091796875,-2.349853515625,2.8228759765625
1.5412499,9.299078941345215,-3.5482068061828613,0.47405192255973816,-0.8544921875,-2.3040771484375,3.0670166015625
1.5437499,9.301473617553711,-3.579331636428833,0.4908113479614258,-0.4119873046875,-2.4261474609375,3.326416015625
1.5462498999999998,9.29189682006836,-3.620033025741577,0.5339069962501526,-0.5035400390625,-2.38037109375,3.6163330078125
1.5487499,9.277531623840332,-3.6343982219696045,0.5889736413955688,-0.091552734375,-2.5177001953125,3.9215087890625
1.5512499,9.263166427612305,-3.6320040225982666,0.6512228846549988,0.2593994140625,-2.74658203125,3.96728515625
1.5537499,9.23682975769043,-3.603273630142212,0.7134721279144287,0.518798828125,-2.899169921875,3.96728515625
1.5562498999999999,9.215282440185547,-3.555389642715454,0.7613561153411865,0.274658203125,-2.9449462890625,4.1656494140625
1.5587499,9.181763648986816,-3.5003228187561035,0.8068459630012512,0.3204345703125,-3.0059814453125,4.0283203125
1.5612499,9.160215377807617,-3.4548330307006836,0.8307880163192749,0.457763671875,-3.0975341796875,4.2266845703125
1.5637499,9.14585018157959,-3.421314239501953,0.8427590131759644,0.3204345703125,-3.3416748046875,4.3792724609375
1.5662498999999999,9.148244857788086,-3.4165258407592773,0.8451532125473022,0.213623046875,-3.448486328125,4.364013671875
1.5687499,9.167398452758789,-3.44765043258667,0.8164227604866028,0.18310546875,-3.326416015625,4.3487548828125
1.5712499,9.184157371520996,-3.5051112174987793,0.7757213711738586,0.030517578125,-3.570556640625,4.608154296875
1.5737499,9.193734169006348,-3.5889084339141846,0.7206547260284424,0.48828125,-3.4637451171875,4.791259765625
1.5762498999999999,9.184157371520996,-3.665522813796997,0.6751648783683777,0.9307861328125,-3.5858154296875,5.0811767578125
1.5787499,9.153033256530762,-3.7158010005950928,0.6584054827690125,1.2359619140625,-4.2266845703125,5.37109375
1.5812499,9.097966194152832,-3.7158010005950928,0.6751648783683777,1.708984375,-4.5623779296875,5.645751953125
1.5837499,9.038111686706543,-3.6607344150543213,0.7254431247711182,1.7547607421875,-5.126953125,5.79833984375
1.5862498999999999,8.980650901794434,-3.5410242080688477,0.8044517636299133,1.1749267578125,-5.55419921875,5.6915283203125
1.5887499,9.023746490478516,-3.3039982318878174,0.9888052940368652,1.0833740234375,-6.9732666015625,5.9051513671875
1.5912499,9.14345645904541,-2.9951462745666504,0.933738648891449,1.9073486328125,-9.429931640625,5.9967041015625
1.5937499,9.198522567749023,-2.782062292098999,0.9074024558067322,-2.6702880859375,-5.523681640625,4.058837890625
1.5962498999999999,9.196128845214844,-2.9041666984558105,0.7589619159698486,-8.0413818359375,-2.0751953125,4.150390625
1.5987499,9.062053680419922,-3.339911460876465,0.6368576288223267,-4.2724609375,-5.767822265625,5.55419921875
1.6012499,8.904036521911621,-3.7924153804779053,0.6703764796257019,5.4473876953125,-9.0789794921875,4.547119140625
1.6037499,8.884882926940918,-3.8522706031799316,0.7398083209991455,9.5672607421875,-9.6588134765625,4.2877197265625
1.6062499,8.959102630615234,-3.44765043258667,0.7733271718025208,3.9215087890625,-8.331298828125,4.638671875
1.6087498999999998,8.995016098022461,-2.913743495941162,0.7781155705451965,-6.9427490234375,-5.0201416015625,2.9296875
1.6112499,8.990227699279785,-2.7988216876983643,0.7613561153411865,-11.3067626953125,-5.67626953125,3.448486328125
1.6137499,8.911218643188477,-3.184288263320923,0.7254431247711182,-3.7994384765625,-9.002685546875,3.96728515625
1.6162499,8.89685344696045,-3.711012601852417,0.7206547260284424,5.67626953125,-10.3302001953125,3.41796875
1.6187498999999999,9.028534889221191,-3.892971992492676,0.6009446382522583,7.110595703125,-10.101318359375,3.8604736328125
1.6212499,9.165003776550293,-3.6367924213409424,0.4572925269603729,0.6561279296875,-8.0413818359375,3.9520263671875
1.6237499,9.208099365234375,-3.2776620388031006,0.3423708379268646,-7.965087890625,-4.8980712890625,3.021240234375
1.6262499,9.126696586608887,-3.2561142444610596,0.30885201692581177,-9.2926025390625,-6.2103271484375,3.9825439453125
1.6287498999999999,8.956708908081055,-3.5649664402008057,0.3687070608139038,-1.708984375,-9.3841552734375,3.9825439453125
1.6312499,8.87051773071289,-3.8762125968933105,0.5315127968788147,5.18798828125,-10.1318359375,3.41796875
1.6337499,8.966285705566406,-3.7924153804779053,0.5793967843055725,5.2490234375,-10.009765625,4.058837890625
1.6362499,9.105149269104004,-3.339911460876465,0.6153098344802856,-1.2969970703125,-7.9345703125,3.84521484375
1.6387498999999999,9.208099365234375,-2.920926094055176,0.6153098344802856,-9.185791015625,-5.0048828125,2.8533935546875
1.6412499,9.191340446472168,-2.9089550971984863,0.6607996821403503,-10.0555419921875,-6.3629150390625,3.997802734375
1.6437499,9.0859956741333,-3.2537200450897217,0.7422025203704834,-2.0599365234375,-8.7890625,3.84521484375
1.6462499,9.035717010498047,-3.581725835800171,0.8762778043746948,4.21142578125,-9.2620849609375,3.11279296875
1.6487498999999999,9.090784072875977,-3.5625722408294678,0.8738836050033569,3.0670166015625,-8.7432861328125,3.4942626953125
1.6512499,9.160215377807617,-3.2154128551483154,0.8667010068893433,-3.7689208984375,-6.4849853515625,2.685546875
1.6537499,9.21288776397705,-2.9161376953125,0.828393816947937,-9.9334716796875,-4.5623779296875,2.3193359375
1.6562499,9.17936897277832,-2.964021682739258,0.8092401623725891,-8.60595703125,-6.378173828125,3.0059814453125
1.6587498999999999,9.10993766784668,-3.294421434402466,0.8451532125473022,-2.1209716796875,-7.3089599609375,2.2735595703125
1.6612499,9.107542991638184,-3.598485231399536,0.8547300100326538,2.01416015625,-7.6446533203125,2.2430419921875
1.6637499,9.14585018157959,-3.665522813796997,0.7876923680305481,1.0986328125,-7.0037841796875,2.3651123046875
1.6662499,9.17697525024414,-3.529053211212158,0.7206547260284424,-3.4942626953125,-4.5166015625,1.068115234375
1.6687499,9.169792175292969,-3.4404678344726562,0.6775590777397156,-6.3629150390625,-4.33349609375,1.46484375
1.6712498999999998,9.10993766784668,-3.5194764137268066,0.6727706789970398,-3.11279296875,-6.16455078125,2.1209716796875
1.6737499,9.059659004211426,-3.6990416049957275,0.7086837291717529,1.6021728515625,-7.110595703125,1.4190673828125
1.6762499,9.074024200439453,-3.8163576126098633,0.7134721279144287,2.044677734375,-6.378173828125,1.2969970703125
1.6787499,9.136273384094238,-3.7684733867645264,0.6512228846549988,0.274658203125,-5.4931640625,1.52587890625
1.6812498999999999,9.224859237670898,-3.5649664402008057,0.5817909836769104,-1.2359619140625,-5.157470703125,1.434326171875
1.6837499,9.299078941345215,-3.399766445159912,0.4429273009300232,-1.434326171875,-5.55419921875,2.2430419921875
1.6862499,9.294290542602539,-3.3638534545898438,0.35434186458587646,-3.1585693359375,-4.3182373046875,1.5716552734375
1.6887499,9.251194953918457,-3.5434184074401855,0.272938996553421,-4.3487548828125,-3.8909912109375,1.5869140625
1.6912498999999999,9.167398452758789,-3.847482204437256,0.2106897532939911,-1.556396484375,-5.4168701171875,2.288818359375
1.6937499,9.100360870361328,-4.086902141571045,0.1867477297782898,2.3193359375,-5.767822265625,2.105712890625
1.6962499,9.090784072875977,-4.137180328369141,0.181959331035614,1.9073486328125,-5.0811767578125,2.4566650390625
1.6987499,9.107542991638184,-3.9671921730041504,0.1843535304069519,-0.9918212890625,-4.6844482421875,3.021240234375
1.7012498999999999,9.126696586608887,-3.711012601852417,0.2322375625371933,-3.41796875,-4.5013427734375,2.7923583984375
1.7037499,9.136273384094238,-3.5194764137268066,0.3064578175544739,-4.3487548828125,-4.8675537109375,2.8076171875
1.7062499,9.141061782836914,-3.445256233215332,0.3758896589279175,-4.2572021484375,-5.218505859375,2.9449462890625
1.7087499,9.162610054016113,-3.44765043258667,0.4165911078453064,-4.1046142578125,-5.096435546875,2.7008056640625
1.7112498999999999,9.20091724395752,-3.471592426300049,0.4118026793003082,-4.302978515625,-4.913330078125,2.655029296875
1.7137499,9.246406555175781,-3.4739866256713867,0.38307225704193115,-4.8828125,-4.4708251953125,2.7923583984375
1.7162499,9.272743225097656,-3.4572272300720215,0.3495534360408783,-5.55419921875,-4.1046142578125,2.3651123046875
1.7187499,9.253589630126953,-3.4548330307006836,0.3423708379268646,-6.1492919921875,-3.90625,2.0294189453125
1.7212498999999999,9.205705642700195,-3.471592426300049,0.36152446269989014,-6.4544677734375,-4.1961669921875,1.8768310546875
1.7237499,9.129091262817383,-3.514688014984131,0.40940847992897034,-6.8359375,-4.3182373046875,1.64794921875
1.7262499,9.064447402954102,-3.579331636428833,0.4572925269603729,-7.32421875,-4.5166015625,1.40380859375
1.7287499,9.026140213012695,-3.6391866207122803,0.48602294921875,-7.50732421875,-4.9285888671875,1.2359619140625
1.7312499,9.014169692993164,-3.7014358043670654,0.49799394607543945,-7.720947265625,-5.18798828125,0.9918212890625
1.7337498999999998,9.033323287963867,-3.758896589279175,0.4884171485900879,-7.9498291015625,-5.126953125,1.0528564453125
1.7362499,9.071630477905273,-3.8163576126098633,0.47165772318840027,-7.87353515625,-5.340576171875,1.2054443359375
1.7387499,9.117119789123535,-3.866635799407959,0.45489832758903503,-7.4462890625,-5.615234375,1.1138916015625
1.7412499,9.157821655273438,-3.9001545906066895,0.4405331015586853,-7.1563720703125,-5.5084228515625,1.03759765625
1.7437498999999999,9.186552047729492,-3.907337188720703,0.4405331015586853,-7.0648193359375,-5.4473876953125,0.9307861328125
1.7462499,9.186552047729492,-3.892971992492676,0.45250412821769714,-6.866455078125,-5.2490234375,0.701904296875
1.7487499,9.169792175292969,-3.8594532012939453,0.4836287498474121,-6.439208984375,-5.340576171875,0.4119873046875
1.7512499,9.133879661560059,-3.821146011352539,0.524330198764801,-6.53076171875,-5.096435546875,0.30517578125
1.7537498999999999,9.095572471618652,-3.7876269817352295,0.5578489899635315,-6.28662109375,-5.3863525390625,-0.0457763671875
1.7562499,9.071630477905273,-3.7708675861358643,0.5746083855628967,-5.9661865234375,-5.523681640625,-0.4119873046875
1.7587499,9.057265281677246,-3.773261785507202,0.5626373887062073,-5.3558349609375,-5.523681640625,-0.640869140625
1.7612499,9.057265281677246,-3.8091750144958496,0.5219359993934631,-5.096435546875,-5.43212890625,-1.1138916015625
1.7637498999999999,9.05247688293457,-3.9001545906066895,0.4812345504760742,-4.5166015625,-5.3558349609375,-1.89208984375
1.7662499,9.045293807983398,-4.000710964202881,0.4596867263317108,-3.35693359375,-5.2032470703125,-2.38037109375
1.7687499,9.05247688293457,-4.062960147857666,0.4381389021873474,-0.8697509765625,-5.584716796875,-1.9989013671875
1.7712499,9.059659004211426,-4.005499362945557,0.4357447028160095,0.7476806640625,-5.7373046875,-2.50244140625
1.7737498999999999,9.07641887664795,-3.866635799407959,0.42856210470199585,-0.1678466796875,-4.974365234375,-3.143310546875
1.7762499,9.07641887664795,-3.713406801223755,0.42616790533065796,-1.6021728515625,-4.9896240234375,-3.47900390625
1.7787499,9.05487060546875,-3.6367924213409424,0.43095630407333374,-1.373291015625,-5.0201416015625,-3.814697265625
1.7812499,9.033323287963867,-3.6822822093963623,0.4405331015586853,0.1373291015625,-5.096435546875,-3.9520263671875
1.7837498999999999,9.028534889221191,-3.794809579849243,0.4357447028160095,1.5716552734375,-5.4473876953125,-3.96728515625
1.7862499,9.05247688293457,-3.9049429893493652,0.4189853072166443,2.471923828125,-5.0811767578125,-4.1046142578125
1.7887499,9.095572471618652,-3.974374771118164,0.38307225704193115,2.9144287109375,-4.7607421875,-4.058837890625
1.7912499,9.153033256530762,-4.010287761688232,0.33039984107017517,3.4027099609375,-4.2724609375,-3.6773681640625
1.7937499,9.2033109664917,-4.02465295791626,0.26575639843940735,3.60107421875,-4.119873046875,-3.2196044921875
1.7962498999999998,9.260771751403809,-4.027047157287598,0.17717093229293823,4.5623779296875,-4.119873046875,-3.0059814453125
1.7987499,9.318233489990234,-4.02465295791626,0.08140286058187485,5.0811767578125,-3.90625,-2.7008056640625
1.8012499,9.387664794921875,-3.97916316986084,-0.014365210197865963,5.523681640625,-3.265380859375,-1.9683837890625
1.8037499,9.44752025604248,-3.8762125968933105,-0.090979665517807,5.5999755859375,-2.4261474609375,-1.28173828125
1.8062498999999999,9.476250648498535,-3.689464807510376,-0.1412578970193863,4.9285888671875,-1.9378662109375,-0.6256103515625
1.8087499,9.452308654785156,-3.421314239501953,-0.17477671802043915,3.9215087890625,-1.708984375,-0.1220703125
1.8112499,9.370905876159668,-3.1028854846954346,-0.19632454216480255,2.62451171875,-1.495361328125,-0.06103515625
1.8137499,9.251194953918457,-2.765302896499634,-0.22505496442317963,0.18310546875,-1.4190673828125,-0.1983642578125
1.8162498999999999,9.129091262817383,-2.427720546722412,-0.24420857429504395,-3.387451171875,-1.46484375,-0.48828125
1.8187499,9.030928611755371,-2.099714994430542,-0.24660277366638184,-7.568359375,-1.5106201171875,-0.640869140625
1.8212499,8.971074104309082,-1.7549498081207275,-0.2059013396501541,-13.214111328125,-1.64794921875,-1.007080078125
1.8237499,8.944737434387207,-1.3886369466781616,-0.12449848651885986,-19.53125,-2.2430419921875,-1.0833740234375
1.8262498999999999,8.939949035644531,-0.9888052940368652,-0.014365210197865963,-26.5655517578125,-2.777099609375,-1.0528564453125
1.8287499,8.939949035644531,-0.5602431893348694,0.10295066982507706,-34.4390869140625,-3.23486328125,-1.3427734375
1.8312499,8.927978515625,-0.0933738648891449,0.19393034279346466,-43.88427734375,-3.6468505859375,-2.1209716796875
1.8337499,8.9064302444458,0.40940847992897034,0.24899697303771973,-55.0994873046875,-4.150390625,-2.8839111328125
1.8362498999999999,8.87291145324707,0.9528923034667969,0.26096799969673157,-67.8558349609375,-5.0201416015625,-4.2724609375
1.8387499,8.848969459533691,1.525106430053711,0.24181437492370605,-82.8704833984375,-5.7525634765625,-5.7220458984375
1.8412499,8.846575736999512,2.097320795059204,0.2082955539226532,-99.639892578125,-6.0577392578125,-7.4462890625
1.8437499,8.863334655761719,2.652775526046753,0.1604115068912506,-117.584228515625,-6.40869140625,-9.002685546875
1.8462498999999999,8.913613319396973,3.2082302570343018,0.10055647045373917,-136.5203857421875,-6.65283203125,-10.833740234375
1.8487499,8.99740982055664,3.7852327823638916,0.014365210197865963,-156.6009521484375,-6.77490234375,-12.63427734375
1.8512499,9.124302864074707,4.412513732910156,-0.12928688526153564,-178.4515380859375,-6.65283203125,-14.2059326171875
1.8537499,9.272743225097656,5.099649429321289,-0.3519476354122162,-202.178955078125,-6.2408447265625,-15.6707763671875
1.8562499,9.425971984863281,5.815515995025635,-0.6584054827690125,-228.0426025390625,-5.950927734375,-16.9525146484375
1.8587498999999998,9.550470352172852,6.509834289550781,-1.0462661981582642,-255.157470703125,-5.340576171875,-17.9290771484375
1.8612499,9.634267807006836,7.146692276000977,-1.4915876388549805,-283.5235595703125,-4.791259765625,-18.9208984375
1.8637499,9.68933391571045,7.680599212646484,-1.9776105880737305,-312.8509521484375,-4.180908203125,-19.83642578125
1.8662499,9.710882186889648,8.111555099487305,-2.499546527862549,-341.85791015625,-2.7313232421875,-20.538330078125
1.8687498999999999,9.708487510681152,8.422801971435547,-3.045424461364746,-371.795654296875,-1.0528564453125,-21.2249755859375
1.8712499,9.667786598205566,8.62391471862793,-3.6080620288848877,-401.6571044921875,0.762939453125,-21.9573974609375
1.8737499,9.586383819580078,8.688557624816895,-4.194641590118408,-430.8929443359375,2.3345947265625,-22.5067138671875
1.8762499,9.452308654785156,8.585607528686523,-4.786009311676025,-459.1217041015625,3.2501220703125,-23.223876953125
1.8787498999999999,9.284713745117188,8.303091049194336,-5.394136428833008,-485.5194091796875,4.2572021484375,-24.078369140625
1.8812499,9.083600997924805,7.860164165496826,-5.999869346618652,-500,5.2490234375,-24.59716796875
1.8837499,8.87051773071289,7.307103633880615,-6.607996463775635,-500,6.103515625,-24.871826171875
1.8862499,8.662221908569336,6.703764915466309,-7.184999465942383,-500,6.683349609375,-24.71923828125
1.8887498999999999,8.482656478881836,6.069301128387451,-7.704541206359863,-500,7.0343017578125,-24.3377685546875
1.8912499,8.29830265045166,5.456385612487793,-8.176198959350586,-500,7.598876953125,-24.3682861328125
1.8937499,8.161833763122559,4.867412090301514,-8.549694061279297,-500,7.9193115234375,-23.7274169921875
1.8962499,7.972691535949707,4.28322696685791,-8.89685344696045,-500,8.209228515625,-23.284912109375
1.8987498999999999,7.812280178070068,3.6104562282562256,-9.17697525024414,-500,6.89697265625,-23.1781005859375
1.9012499,7.661445617675781,2.717418909072876,-9.44991397857666,-500,5.9661865234375,-23.040771484375
1.9037499,7.594407558441162,1.4676456451416016,-9.674968719482422,-500,5.7220458984375,-22.552490234375
1.9062499,7.659051418304443,-0.17238251864910126,-9.821015357971191,-500,5.2490234375,-20.6756591796875
1.9087498999999999,7.824251174926758,-2.0685901641845703,-9.883264541625977,-500,4.9591064453125,-18.00537109375
1.9112499,8.087613105773926,-4.1180267333984375,-9.840168952941895,-500,3.7689208984375,-13.824462890625
1.9137499,8.372523307800293,-6.119579315185547,-9.682151794433594,-500,2.777099609375,-8.7127685546875
1.9162499,8.619126319885254,-7.951143741607666,-9.41400146484375,-500,2.2125244140625,-4.1961669921875
1.9187499,8.769960403442383,-9.557653427124023,-9.05247688293457,-500,1.4190673828125,0.9765625
1.9212498999999998,8.801085472106934,-10.919954299926758,-8.592789649963379,-500,-0.3509521484375,6.7291259765625
1.9237499,8.712499618530273,-12.071564674377441,-8.109161376953125,-500,-2.105712890625,12.847900390625
1.9262499,8.523358345031738,-14.171279907226562,-7.242460250854492,-473.541259765625,-4.9896240234375,24.8565673828125
1.9287499,8.523358345031738,-14.171279907226562,-7.242460250854492,-473.541259765625,-4.9896240234375,24.8565673828125
1.9312498999999999,8.7484130859375,-16.6612491607666,-6.5481414794921875,-407.0587158203125,-5.79833984375,36.92626953125
1.9337499,8.7484130859375,-16.6612491607666,-6.5481414794921875,-407.0587158203125,-5.79833984375,36.92626953125
1.9362499,9.41400146484375,-19.55344581604004,-5.808333396911621,-325.2716064453125,-6.103515625,53.3905029296875
1.9387499,9.41400146484375,-19.55344581604004,-5.808333396911621,-325.2716064453125,-6.103515625,53.3905029296875
1.9412498999999999,10.077195167541504,-21.957223892211914,-5.054159641265869,-234.649658203125,-5.0811767578125,71.1517333984375
1.9437499,10.077195167541504,-21.957223892211914,-5.054159641265869,-234.649658203125,-5.0811767578125,71.1517333984375
1.9462499,10.374075889587402,-23.535001754760742,-4.486733913421631,-139.1143798828125,-3.3721923828125,86.5936279296875
1.9487499,10.374075889587402,-23.535001754760742,-4.486733913421631,-139.1143798828125,-3.3721923828125,86.5936279296875
1.9512498999999999,10.450690269470215,-24.739286422729492,-4.163516521453857,-35.2020263671875,0.3204345703125,99.7467041015625
1.9537499,10.450690269470215,-24.739286422729492,-4.163516521453857,-35.2020263671875,0.3204345703125,99.7467041015625
1.9562499,10.627861022949219,-25.629928588867188,-4.146757125854492,74.6307373046875,6.744384765625,110.0921630859375
1.9587499,10.627861022949219,-25.629928588867188,-4.146757125854492,74.6307373046875,6.744384765625,110.0921630859375
1.9612498999999999,10.898406028747559,-25.89568519592285,-4.49870491027832,189.9566650390625,16.387939453125,116.2109375
1.9637499,10.898406028747559,-25.89568519592285,-4.49870491027832,189.9566650390625,16.387939453125,116.2109375
1.9662499,10.979808807373047,-25.479093551635742,-5.216965675354004,307.9986572265625,26.031494140625,120.4681396484375
1.9687499,10.979808807373047,-25.479093551635742,-5.216965675354004,307.9986572265625,26.031494140625,120.4681396484375
1.9712498999999999,10.66137981414795,-24.557327270507812,-6.315904140472412,419.73876953125,34.2254638671875,120.5596923828125
1.9737499,10.66137981414795,-24.557327270507812,-6.315904140472412,419.73876953125,34.2254638671875,120.5596923828125
1.9762499,10.299856185913086,-23.247697830200195,-7.757213592529297,499.9847412109375,39.459228515625,118.7591552734375
1.9787499,10.299856185913086,-23.247697830200195,-7.757213592529297,499.9847412109375,39.459228515625,118.7591552734375
1.9812499,10.505757331848145,-21.837512969970703,-9.378087997436523,499.9847412109375,48.6602783203125,115.17333984375
1.9837499,10.505757331848145,-21.837512969970703,-9.378087997436523,499.9847412109375,48.6602783203125,115.17333984375
1.9862499,11.168951034545898,-20.556615829467773,-11.085153579711914,499.9847412109375,57.0068359375,110.29052734375
1.9887499,11.168951034545898,-20.556615829467773,-11.085153579711914,499.9847412109375,57.0068359375,110.29052734375
1.9912499,11.801020622253418,-18.789695739746094,-12.770671844482422,499.9847412109375,69.0765380859375,103.790283203125
1.9937498999999999,11.801020622253418,-18.789695739746094,-12.770671844482422,499.9847412109375,69.0765380859375,103.790283203125
1.9962499,11.956643104553223,-16.10818862915039,-14.03720474243164,499.9847412109375,79.1168212890625,96.099853515625
1.9987499,11.956643104553223,-16.10818862915039,-14.03720474243164,499.9847412109375,79.1168212890625,96.099853515625
2.0012499,11.520898818969727,-12.983756065368652,-14.578293800354004,499.9847412109375,86.2274169921875,87.4176025390625
2.0037499,11.520898818969727,-12.983756065368652,-14.578293800354004,499.9847412109375,86.2274169921875,87.4176025390625
2.0062499,10.991780281066895,-9.607931137084961,-14.384364128112793,499.9847412109375,92.4224853515625,76.5380859375
2.0087498999999998,10.991780281066895,-9.607931137084961,-14.384364128112793,499.9847412109375,92.4224853515625,76.5380859375
2.0112499,10.682928085327148,-5.681440830230713,-13.639766693115234,499.9847412109375,98.876953125,62.774658203125
2.0137499,10.682928085327148,-5.681440830230713,-13.639766693115234,499.9847412109375,98.876953125,62.774658203125
2.0162499,9.909601211547852,-0.9576807022094727,-12.157755851745605,499.9847412109375,102.23388671875,44.8455810546875
2.0187499,9.909601211547852,-0.9576807022094727,-12.157755851745605,499.9847412109375,102.23388671875,44.8455810546875
2.0212499,8.99740982055664,4.170699596405029,-9.775525093078613,499.9847412109375,99.30419921875,27.34375
2.0237499,8.99740982055664,4.170699596405029,-9.775525093078613,499.9847412109375,99.30419921875,27.34375
2.0262499,8.506598472595215,9.730035781860352,-6.88332986831665,499.9847412109375,104.43115234375,1.8310546875
2.0287498999999998,8.506598472595215,9.730035781860352,-6.88332986831665,499.9847412109375,104.43115234375,1.8310546875
2.0312499,7.9176249504089355,14.065935134887695,-3.8091750144958496,499.9847412109375,101.50146484375,-14.678955078125
2.0337499,7.9176249504089355,14.065935134887695,-3.8091750144958496,499.9847412109375,101.50146484375,-14.678955078125
2.0362499,7.3669586181640625,15.969325065612793,-0.849941611289978,499.9847412109375,98.876953125,-28.9154052734375
2.0387499,7.082048416137695,16.749835968017578,0.49559974670410156,499.9847412109375,97.5799560546875,-34.698486328125
2.0412499,6.718130111694336,17.822437286376953,1.699883222579956,499.9847412109375,93.5821533203125,-39.1845703125
2.0437499,6.268020153045654,19.19910430908203,2.7748796939849854,490.753173828125,87.2344970703125,-43.1976318359375
2.0462499,5.758055210113525,20.810401916503906,3.620033025741577,429.38232421875,78.4759521484375,-46.3409423828125
2.0487499,5.272032260894775,22.4743709564209,4.182670593261719,360.9619140625,69.244384765625,-47.119140625
2.0512498999999997,4.948814868927002,24.071304321289062,4.486733913421631,285.675048828125,59.5550537109375,-47.1954345703125
2.0537499,4.800374507904053,25.603593826293945,4.517858505249023,209.1217041015625,50.3082275390625,-47.5921630859375
2.0562499,4.955997467041016,27.071239471435547,4.357447147369385,132.6141357421875,42.0074462890625,-47.210693359375
2.0587499,5.355829238891602,28.543672561645508,4.098873138427734,51.6204833984375,35.2630615234375,-45.2117919921875
2.0612499,5.940014362335205,30.01131820678711,3.754108190536499,-32.5927734375,30.609130859375,-42.9534912109375
2.0637499,6.574477672576904,31.330522537231445,3.3303346633911133,-118.0572509765625,27.7557373046875,-40.6341552734375
2.0662499,7.141903877258301,32.21158981323242,2.849100112915039,-205.596923828125,24.7650146484375,-37.6739501953125
2.0687499,7.503427982330322,32.43185806274414,2.252943754196167,-290.618896484375,22.6898193359375,-34.393310546875
2.0712498999999998,7.60637903213501,31.919496536254883,1.482010841369629,-368.46923828125,20.3094482421875,-31.5704345703125
2.0737499,7.489062786102295,30.796615600585938,0.5219359993934631,-440.155029296875,16.9830322265625,-30.5938720703125
2.0762499,7.2113356590271,29.328969955444336,-0.6536170840263367,-500,13.2598876953125,-29.4647216796875
2.0787499,6.892906665802002,27.732038497924805,-1.9847931861877441,-500,9.1705322265625,-27.5421142578125
2.0812499,6.641515731811523,26.092010498046875,-3.375824451446533,-500,4.1961669921875,-25.2685546875
2.0837499,6.536170482635498,24.351425170898438,-4.7405195236206055,-500,-0.4119873046875,-23.345947265625
2.0862499,6.629544734954834,22.467187881469727,-6.009446144104004,-500,-4.6539306640625,-22.247314453125
2.0887499,6.9240312576293945,20.381839752197266,-7.151480674743652,-500,-7.8582763671875,-21.514892578125
2.0912498999999998,7.204153060913086,18.143260955810547,-8.152256965637207,-500,-9.124755859375,-21.484375
2.0937499,7.465120792388916,15.8903169631958,-9.05487060546875,-500,-11.3677978515625,-22.705078125
2.0962499,7.556100368499756,13.623007774353027,-9.928754806518555,-500,-14.801025390625,-24.6734619140625
2.0987499,7.544129371643066,11.346121788024902,-10.8720703125,-500,-17.791748046875,-26.6265869140625
2.1012499,7.510610580444336,8.87051773071289,-11.858481407165527,-500,-20.3857421875,-29.96826171875
2.1037499,7.5201873779296875,5.918466567993164,-12.770671844482422,-500,-22.4151611328125,-33.416748046875
2.1062499,7.592013359069824,2.4827871322631836,-13.474567413330078,-500,-25.4669189453125,-35.5682373046875
2.1087499,7.7643961906433105,-1.2617442607879639,-13.826515197753906,-500,-28.2135009765625,-37.322998046875
2.1112499,8.11634349822998,-5.020640850067139,-13.87918758392334,-500,-31.158447265625,-38.970947265625
2.1137498999999997,8.683769226074219,-8.544905662536621,-13.737929344177246,-500,-32.8369140625,-40.8172607421875
2.1162499,9.488221168518066,-11.887211799621582,-13.512874603271484,-500,-31.7230224609375,-42.572021484375
2.1187499,10.407594680786133,-15.334861755371094,-13.273454666137695,-500,-29.3121337890625,-42.90771484375
2.1212499,9.126696586608887,-7.625532627105713,1.1540051698684692,54.412841796875,-0.244140625,-5.6915283203125
2.1237499,9.126696586608887,-7.625532627105713,1.1540051698684692,54.412841796875,-0.244140625,-5.6915283203125
2.1262499,9.232041358947754,-7.0126166343688965,1.0558429956436157,67.3370361328125,0.7781982421875,-3.875732421875
2.1287499,9.232041358947754,-7.0126166343688965,1.0558429956436157,67.3370361328125,0.7781982421875,-3.875732421875
2.1312499,9.275136947631836,-6.45476770401001,1.0103530883789062,79.254150390625,2.8076171875,-2.471923828125
2.1337498999999998,9.275136947631836,-6.45476770401001,1.0103530883789062,79.254150390625,2.8076171875,-2.471923828125
2.1362499,9.196128845214844,-5.880159378051758,1.0103530883789062,89.2486572265625,3.6468505859375,-0.9765625
2.1387499,9.196128845214844,-5.880159378051758,1.0103530883789062,89.2486572265625,3.6468505859375,-0.9765625
2.1412499,9.050082206726074,-5.154716491699219,0.9696516990661621,94.7265625,4.5013427734375,-0.3662109375
2.1437499,9.050082206726074,-5.154716491699219,0.9696516990661621,94.7265625,4.5013427734375,-0.3662109375
2.1462499,8.951920509338379,-4.314351558685303,0.849941611289978,95.5047607421875,3.8909912109375,-0.1983642578125
2.1487499,8.951920509338379,-4.314351558685303,0.849941611289978,95.5047607421875,3.8909912109375,-0.1983642578125
2.1512499,8.887276649475098,-3.466804027557373,0.7398083209991455,93.3837890625,4.119873046875,-0.2593994140625
2.1537498999999998,8.887276649475098,-3.466804027557373,0.7398083209991455,93.3837890625,4.119873046875,-0.2593994140625
2.1562499,8.60236644744873,-2.8802247047424316,0.8571242094039917,88.470458984375,3.3416748046875,0.30517578125
2.1587499,8.60236644744873,-2.8802247047424316,0.8571242094039917,88.470458984375,3.3416748046875,0.30517578125
2.1612499,8.324639320373535,-2.6216509342193604,1.1324573755264282,83.2061767578125,0.06103515625,-0.0457763671875
2.1637499,8.324639320373535,-2.6216509342193604,1.1324573755264282,83.2061767578125,0.06103515625,-0.0457763671875
2.1662499,8.487444877624512,-2.346317768096924,1.2234370708465576,75.6683349609375,0.2899169921875,-0.0457763671875
2.1687499,8.487444877624512,-2.346317768096924,1.2234370708465576,75.6683349609375,0.2899169921875,-0.0457763671875
2.1712499,8.755595207214355,-2.0422539710998535,1.2090718746185303,66.802978515625,0.9765625,-0.06103515625
2.1737499,8.755595207214355,-2.0422539710998535,1.2090718746185303,66.802978515625,0.9765625,-0.06103515625
2.1762499,8.753201484680176,-1.965639591217041,1.2737152576446533,57.2662353515625,-0.1678466796875,0.762939453125
2.1787499,8.753201484680176,-1.965639591217041,1.2737152576446533,57.2662353515625,-0.1678466796875,0.762939453125
2.1812499,8.695740699768066,-2.169146776199341,1.256955862045288,48.919677734375,-0.701904296875,1.5869140625
2.1837499,8.695740699768066,-2.169146776199341,1.256955862045288,48.919677734375,-0.701904296875,1.5869140625
2.1862499,8.722076416015625,-2.456450939178467,1.094150185585022,40.9088134765625,-0.8544921875,3.6163330078125
2.1887499,8.722076416015625,-2.456450939178467,1.094150185585022,40.9088134765625,-0.8544921875,3.6163330078125
2.1912499,8.7268648147583,-2.6623523235321045,0.933738648891449,33.14208984375,-1.5411376953125,5.43212890625
2.1937499,8.7268648147583,-2.6623523235321045,0.933738648891449,33.14208984375,-1.5411376953125,5.43212890625
2.1962498999999998,8.669404029846191,-2.7509377002716064,0.9289502501487732,26.275634765625,-3.204345703125,7.32421875
2.1987499,8.635885238647461,-2.7485435009002686,1.0103530883789062,22.796630859375,-3.8909912109375,8.1024169921875
2.2012499,8.604761123657227,-2.7054479122161865,1.1276689767837524,19.4549560546875,-4.9896240234375,8.97216796875
2.2037499,8.592789649963379,-2.6360161304473877,1.2641384601593018,16.3726806640625,-5.7830810546875,9.5672607421875
2.2062499,8.5903959274292,-2.5546131134033203,1.3910311460494995,13.3056640625,-6.4239501953125,9.918212890625
2.2087499,8.592789649963379,-2.47560453414917,1.4915876388549805,10.1470947265625,-6.8206787109375,9.9029541015625
2.2112499,8.588001251220703,-2.4181437492370605,1.577778935432434,7.62939453125,-7.6141357421875,9.9029541015625
2.2137499,8.580819129943848,-2.387019157409668,1.6759412288665771,5.3863525390625,-8.636474609375,9.613037109375
2.2162498999999998,8.583212852478027,-2.3702597618103027,1.800439715385437,3.7078857421875,-9.307861328125,9.2010498046875
2.2187499,8.614337921142578,-2.3511061668395996,1.9560627937316895,2.349853515625,-9.82666015625,8.8348388671875
2.2212499,8.683769226074219,-2.322375535964966,2.0829553604125977,0.762939453125,-9.735107421875,8.1634521484375
2.2237499,8.762778282165527,-2.2888567447662354,2.1380221843719482,-1.0223388671875,-8.941650390625,7.4615478515625
2.2262499,8.822632789611816,-2.2864625453948975,2.0685901641845703,-2.8533935546875,-8.36181640625,6.5155029296875
2.2287499,8.827422142028809,-2.365471363067627,1.900996208190918,-4.150390625,-8.11767578125,5.79833984375
2.2312499,8.767566680908203,-2.5498247146606445,1.678335428237915,-5.6304931640625,-8.48388671875,5.3253173828125
2.2337499,8.676587104797363,-2.849100112915039,1.45806884765625,-6.4239501953125,-9.307861328125,5.0506591796875
2.2362499,8.583212852478027,-3.222595453262329,1.2665326595306396,-6.2713623046875,-10.345458984375,5.2337646484375
2.2387499,8.542511940002441,-3.624821424484253,1.1228805780410767,-5.3863525390625,-11.16943359375,5.4168701171875
2.2412499,8.573636054992676,-3.993528366088867,1.0127472877502441,-4.2572021484375,-11.6729736328125,5.6915283203125
2.2437499,8.678980827331543,-4.292803764343262,0.9481038451194763,-3.4332275390625,-12.0849609375,6.072998046875
2.2462499,8.832210540771484,-4.4939165115356445,0.9097966551780701,-2.0599365234375,-12.14599609375,6.40869140625
2.2487499,8.978256225585938,-4.60165548324585,0.9169792532920837,-1.068115234375,-12.1917724609375,6.8511962890625
2.2512499,9.069235801696777,-4.632780075073242,0.9672574996948242,-0.2288818359375,-11.871337890625,7.5225830078125
2.2537499,9.071630477905273,-4.618414878845215,1.0558429956436157,0.6561279296875,-12.02392578125,8.11767578125
2.2562499,8.990227699279785,-4.587290287017822,1.1803414821624756,2.0294189453125,-12.7410888671875,8.48388671875
2.2587498999999998,8.851364135742188,-4.5394062995910645,1.3335703611373901,3.6163330078125,-13.153076171875,8.6517333984375
2.2612499,8.710105895996094,-4.4508209228515625,1.501164436340332,5.3253173828125,-13.6566162109375,8.6822509765625
2.2637499,8.619126319885254,-4.2975921630859375,1.6519991159439087,6.2408447265625,-14.09912109375,8.8043212890625
2.2662499,8.59997272491455,-4.07014274597168,1.7836803197860718,6.4239501953125,-14.58740234375,8.7890625
2.2687499,8.662221908569336,-3.7900211811065674,1.867477297782898,5.9051513671875,-14.8773193359375,8.4686279296875
2.2712499,8.774748802185059,-3.5194764137268066,1.9105730056762695,5.2032470703125,-15.19775390625,8.4228515625
2.2737499,8.904036521911621,-3.2992098331451416,1.9105730056762695,3.8909912109375,-15.31982421875,8.4991455078125
2.2762499,9.030928611755371,-3.1866824626922607,1.8818424940109253,3.4027099609375,-15.6402587890625,8.4075927734375
2.2787498999999998,9.133879661560059,-3.1747114658355713,1.8148049116134644,3.5247802734375,-15.2587890625,8.209228515625
2.2812499,9.215282440185547,-3.2585084438323975,1.7094600200653076,3.6163330078125,-15.2740478515625,8.148193359375
2.2837499,9.255983352661133,-3.397372245788574,1.599326729774475,3.47900390625,-15.472412109375,8.4381103515625
2.2862499,9.265560150146484,-3.557783842086792,1.4867992401123047,3.60107421875,-15.411376953125,8.36181640625
2.2887499,9.241618156433105,-3.711012601852417,1.41257905960083,4.241943359375,-15.533447265625,8.697509765625
2.2912499,9.210494041442871,-3.825934410095215,1.3694833517074585,4.3182373046875,-16.0980224609375,9.27734375
2.2937499,9.205705642700195,-3.890577793121338,1.3551181554794312,4.150390625,-16.6168212890625,9.918212890625
2.2962499,9.244012832641602,-3.9025487899780273,1.338358759880066,3.662109375,-16.9219970703125,10.4522705078125
2.2987499,9.320627212524414,-3.8762125968933105,1.3263877630233765,3.021240234375,-16.693115234375,10.7421875
2.3012499,9.406818389892578,-3.823540210723877,1.316810965538025,2.9754638671875,-16.4337158203125,11.16943359375
2.3037499,9.47146224975586,-3.780444383621216,1.3048399686813354,2.50244140625,-15.9454345703125,12.1002197265625
2.3062499,9.493009567260742,-3.751713991165161,1.3072341680526733,2.3193359375,-15.7623291015625,12.786865234375
2.3087499,9.485827445983887,-3.737348794937134,1.280897855758667,2.62451171875,-15.68603515625,13.2293701171875
2.3112499,9.47146224975586,-3.6942532062530518,1.2210428714752197,2.685546875,-15.167236328125,13.0157470703125
2.3137499,9.44991397857666,-3.576937437057495,1.1348515748977661,2.25830078125,-13.9617919921875,12.0849609375
2.3162499,9.437943458557129,-3.404554843902588,1.036689281463623,0.06103515625,-13.336181640625,12.481689453125
2.3187499,9.421183586120605,-3.2106244564056396,0.9409212470054626,-2.593994140625,-13.3514404296875,12.87841796875
2.3212498999999998,9.399636268615723,-3.1004912853240967,0.8547300100326538,-4.1046142578125,-13.3514404296875,12.8173828125
2.3237499,9.385271072387695,-3.1531636714935303,0.7565677165985107,-5.615234375,-12.939453125,12.9852294921875
2.3262499,9.370905876159668,-3.3710360527038574,0.6392518281936646,-6.134033203125,-12.7105712890625,13.580322265625
2.3287499,9.361329078674316,-3.7038300037384033,0.507570743560791,-5.9661865234375,-12.3138427734375,13.9007568359375
2.3312499,9.349357604980469,-4.062960147857666,0.37828385829925537,-5.1422119140625,-11.65771484375,14.129638671875
2.3337499,9.330204010009766,-4.345476150512695,0.2753331959247589,-4.0435791015625,-11.138916015625,14.404296875
2.3362499,9.294290542602539,-4.467580318450928,0.22266076505184174,-3.509521484375,-10.8489990234375,14.2059326171875
2.3387499,9.248801231384277,-4.4292731285095215,0.21787235140800476,-3.6468505859375,-10.5133056640625,14.068603515625
2.3412498999999998,9.196128845214844,-4.271255970001221,0.26336219906806946,-4.39453125,-10.2691650390625,13.6871337890625
2.3437499,9.153033256530762,-4.084507942199707,0.31603461503982544,-5.1727294921875,-9.8114013671875,13.0767822265625
2.3462499,9.126696586608887,-3.950432777404785,0.3663128614425659,-5.3863525390625,-9.4757080078125,12.298583984375
2.3487499,9.124302864074707,-3.9169139862060547,0.3926490843296051,-5.5084228515625,-8.7432861328125,11.6119384765625
2.3512499,9.14345645904541,-3.976768970489502,0.3878606855869293,-4.8828125,-8.36181640625,10.833740234375
2.3537499,9.17936897277832,-4.094084739685059,0.36152446269989014,-3.997802734375,-7.6446533203125,10.0860595703125
2.3562499,9.222464561462402,-4.223371982574463,0.3208230137825012,-3.143310546875,-6.866455078125,9.4146728515625
2.3587499,9.258378028869629,-4.335899353027344,0.2753331959247589,-2.716064453125,-6.011962890625,8.5601806640625
2.3612499,9.279925346374512,-4.436455726623535,0.24660277366638184,-2.3040771484375,-5.4779052734375,7.354736328125
2.3637499,9.282320022583008,-4.532223701477051,0.23702596127986908,-2.01416015625,-5.0048828125,6.6680908203125
2.3662499,9.26795482635498,-4.6471452713012695,0.26096799969673157,-1.0986328125,-4.5166015625,5.7525634765625
2.3687499,9.248801231384277,-4.778826713562012,0.31364041566848755,0.0152587890625,-4.241943359375,4.8828125
2.3712499,9.224859237670898,-4.929661273956299,0.3758896589279175,1.3427734375,-3.9215087890625,4.302978515625
2.3737499,9.208099365234375,-5.07570743560791,0.44532153010368347,2.6702880859375,-3.4027099609375,3.7841796875
2.3762499,9.193734169006348,-5.214571475982666,0.49799394607543945,4.425048828125,-2.9296875,2.7923583984375
2.3787499,9.17936897277832,-5.322310447692871,0.5267243981361389,6.1492919921875,-2.62451171875,2.1514892578125
2.3812499,9.172186851501465,-5.386953830718994,0.5363011956214905,7.75146484375,-2.471923828125,1.6021728515625
2.3837498999999998,9.153033256530762,-5.382165431976318,0.5315127968788147,9.46044921875,-2.38037109375,0.885009765625
2.3862499,9.14585018157959,-5.319916248321533,0.5171475410461426,10.92529296875,-2.410888671875,0.244140625
2.3887499,9.148244857788086,-5.20978307723999,0.4884171485900879,11.3525390625,-2.0904541015625,-0.2593994140625
2.3912499,9.172186851501465,-5.080495834350586,0.4596867263317108,11.810302734375,-1.77001953125,-0.9918212890625
2.3937499,9.205705642700195,-4.963180065155029,0.42856210470199585,12.14599609375,-1.40380859375,-1.6632080078125
2.3962499,9.232041358947754,-4.867412090301514,0.40701428055763245,12.1612548828125,-0.8392333984375,-1.861572265625
2.3987499,9.246406555175781,-4.800374507904053,0.40222588181495667,12.2222900390625,-0.4425048828125,-2.4261474609375
2.4012499,9.239224433898926,-4.745307922363281,0.3998316824436188,12.5732421875,-0.0762939453125,-2.9754638671875
2.4037498999999998,9.227252960205078,-4.680664539337158,0.3998316824436188,12.603759765625,0.1678466796875,-3.509521484375
2.4062499,9.215282440185547,-4.599261283874512,0.3926490843296051,12.26806640625,0.762939453125,-3.662109375
2.4087499,9.193734169006348,-4.486733913421631,0.3902548849582672,11.474609375,1.373291015625,-4.2724609375
2.4112499,9.162610054016113,-4.367023944854736,0.3902548849582672,10.7421875,1.678466796875,-4.8370361328125
2.4137499,9.105149269104004,-4.23773717880249,0.4141969084739685,9.8419189453125,2.0294189453125,-5.279541015625
2.4162499,9.02135181427002,-4.129997730255127,0.4620809257030487,8.880615234375,1.861572265625,-5.67626953125
2.4187499,8.923190116882324,-4.0294413566589355,0.5410895943641663,7.6751708984375,1.7852783203125,-6.1492919921875
2.4212499,8.829815864562988,-3.9432501792907715,0.6440402865409851,6.3323974609375,1.8768310546875,-6.378173828125
2.4237499,8.755595207214355,-3.869029998779297,0.7469909191131592,4.9285888671875,1.678466796875,-6.6986083984375
2.4262499,8.71489429473877,-3.801992416381836,0.8379706144332886,3.4332275390625,1.4190673828125,-6.9732666015625
2.4287499,8.710105895996094,-3.751713991165161,0.9002198576927185,2.0904541015625,1.4495849609375,-7.3089599609375
2.4312499,8.724471092224121,-3.706224203109741,0.933738648891449,0.3662109375,1.434326171875,-7.598876953125
2.4337499,8.75080680847168,-3.667917013168335,0.9481038451194763,-1.007080078125,1.6937255859375,-7.9193115234375
2.4362499,8.762778282165527,-3.622427225112915,0.9552865028381348,-2.38037109375,1.4801025390625,-8.026123046875
2.4387499,8.7484130859375,-3.579331636428833,0.9696516990661621,-4.2724609375,1.129150390625,-8.270263671875
2.4412499,8.710105895996094,-3.531447410583496,0.993593692779541,-5.889892578125,0.701904296875,-8.3160400390625
2.4437499,8.65743350982666,-3.485957622528076,1.0223240852355957,-7.9498291015625,0.1678466796875,-8.4228515625
2.4462498999999998,8.604761123657227,-3.4524388313293457,1.0534487962722778,-10.284423828125,-0.1373291015625,-8.453369140625
2.4487499,8.56645393371582,-3.4332852363586426,1.0797849893569946,-12.176513671875,-0.8392333984375,-8.514404296875
2.4512499,8.556877136230469,-3.4308910369873047,1.094150185585022,-14.068603515625,-1.251220703125,-8.4991455078125
2.4537499,8.56645393371582,-3.450044631958008,1.0989385843276978,-15.594482421875,-1.2969970703125,-8.544921875
2.4562499,8.597578048706055,-3.471592426300049,1.1037269830703735,-16.9525146484375,-1.556396484375,-8.148193359375
2.4587499,8.628703117370605,-3.490746021270752,1.115697979927063,-18.1121826171875,-1.5716552734375,-8.209228515625
2.4612499,8.647856712341309,-3.4979286193847656,1.139639973640442,-19.3023681640625,-1.312255859375,-8.4991455078125
2.4637499,8.635885238647461,-3.4955344200134277,1.1755530834197998,-20.3704833984375,-1.77001953125,-8.7127685546875
2.4662498999999998,8.604761123657227,-3.488351821899414,1.2186486721038818,-21.026611328125,-2.105712890625,-8.9569091796875
2.4687499,8.554482460021973,-3.488351821899414,1.2641384601593018,-21.6827392578125,-2.5482177734375,-9.1400146484375
2.4712499,8.508993148803711,-3.5027170181274414,1.2952631711959839,-22.6593017578125,-3.173828125,-9.2926025390625
2.4737499,8.47786808013916,-3.5482068061828613,1.3120225667953491,-23.2086181640625,-3.6773681640625,-9.521484375
2.4762499,8.480262756347656,-3.6320040225982666,1.3048399686813354,-23.895263671875,-4.0740966796875,-9.674072265625
2.4787499,8.506598472595215,-3.7612907886505127,1.2832920551300049,-23.895263671875,-4.3792724609375,-9.6893310546875
2.4812499,8.552088737487793,-3.9169139862060547,1.2497732639312744,-23.193359375,-4.1961669921875,-9.58251953125
2.4837499,8.597578048706055,-4.086902141571045,1.216254472732544,-22.3236083984375,-4.1351318359375,-9.613037109375
2.4862499,8.621520042419434,-4.235342979431152,1.1803414821624756,-21.331787109375,-4.241943359375,-9.796142578125
2.4887499,8.628703117370605,-4.350264549255371,1.1540051698684692,-20.5230712890625,-4.5928955078125,-9.5367431640625
2.4912499,8.614337921142578,-4.426878929138184,1.1348515748977661,-19.4244384765625,-5.1422119140625,-9.3536376953125
2.4937499,8.60236644744873,-4.46518611907959,1.1204863786697388,-18.3258056640625,-5.5084228515625,-9.33837890625
2.4962499,8.592789649963379,-4.481945514678955,1.1228805780410767,-17.608642578125,-5.9661865234375,-9.246826171875
2.4987499,8.604761123657227,-4.49870491027832,1.115697979927063,-16.632080078125,-6.2713623046875,-9.0789794921875
2.5012499,8.638279914855957,-4.5154643058776855,1.1276689767837524,-15.228271484375,-6.4849853515625,-9.0179443359375
2.5037499,8.69334602355957,-4.54419469833374,1.1516109704971313,-13.85498046875,-6.6070556640625,-8.8348388671875
2.5062499,8.75080680847168,-4.577713489532471,1.192312479019165,-12.8021240234375,-6.7596435546875,-8.4075927734375
2.5087498999999998,8.796297073364258,-4.613626480102539,1.2473790645599365,-11.71875,-6.6680908203125,-8.0718994140625
2.5112499,8.815450668334961,-4.639962673187256,1.3072341680526733,-10.101318359375,-6.4544677734375,-8.0413818359375
2.5137499,8.80587387084961,-4.649539470672607,1.338358759880066,-8.4686279296875,-6.5460205078125,-7.87353515625
2.5162499,8.78193187713623,-4.627991676330566,1.338358759880066,-7.049560546875,-6.3934326171875,-7.6904296875
2.5187499,8.7484130859375,-4.577713489532471,1.3048399686813354,-5.706787109375,-6.28662109375,-7.4615478515625
2.5212499,8.7268648147583,-4.491522312164307,1.2425906658172607,-4.9591064453125,-6.378173828125,-7.4462890625
2.5237499,8.7268648147583,-4.4077253341674805,1.158793568611145,-4.39453125,-6.4849853515625,-7.32421875
2.5262499,8.746018409729004,-4.32871675491333,1.0582371950149536,-3.7994384765625,-6.6986083984375,-7.32421875
2.5287498999999998,8.78193187713623,-4.271255970001221,0.9457096457481384,-3.3416748046875,-6.7291259765625,-7.080078125
2.5312499,8.832210540771484,-4.235342979431152,0.8307880163192749,-2.8076171875,-6.6680908203125,-6.89697265625
2.5337499,8.868123054504395,-4.213795185089111,0.7254431247711182,-2.7313232421875,-6.3323974609375,-6.866455078125
2.5362499,8.889671325683594,-4.189853191375732,0.646434485912323,-2.38037109375,-6.4697265625,-6.65283203125
2.5387499,8.889671325683594,-4.153939723968506,0.5985504388809204,-2.13623046875,-6.5765380859375,-6.4849853515625
2.5412499,8.882488250732422,-4.098873138427734,0.586579442024231,-2.410888671875,-6.77490234375,-6.2713623046875
2.5437499,8.875306129455566,-4.022258758544922,0.5985504388809204,-2.9449462890625,-6.6680908203125,-6.011962890625
2.5462499,8.868123054504395,-3.928884983062744,0.6392518281936646,-3.5400390625,-6.65283203125,-6.1492919921875
2.5487499,8.868123054504395,-3.825934410095215,0.6919242739677429,-4.0740966796875,-7.080078125,-5.9661865234375
2.5512499,8.87291145324707,-3.711012601852417,0.7422025203704834,-4.913330078125,-6.9427490234375,-6.103515625
2.5537499,8.884882926940918,-3.603273630142212,0.7733271718025208,-5.7373046875,-6.8511962890625,-6.378173828125
2.5562499,8.911218643188477,-3.512293815612793,0.7757213711738586,-6.5765380859375,-6.89697265625,-6.683349609375
2.5587499,8.939949035644531,-3.4524388313293457,0.751779317855835,-7.4615478515625,-6.561279296875,-7.2479248046875
2.5612499,8.966285705566406,-3.428496837615967,0.7110779285430908,-7.8582763671875,-6.500244140625,-7.4462890625
2.5637499,8.992621421813965,-3.4356794357299805,0.6775590777397156,-8.544921875,-6.622314453125,-7.75146484375
2.5662499,9.014169692993164,-3.4787750244140625,0.6536170840263367,-9.4451904296875,-6.6680908203125,-8.0718994140625
2.5687499,9.040505409240723,-3.557783842086792,0.6536170840263367,-10.2996826171875,-6.5155029296875,-8.11767578125
2.5712498999999998,9.069235801696777,-3.6607344150543213,0.6703764796257019,-11.04736328125,-6.2713623046875,-8.1024169921875
