# Time (seconds),Accel_X,Accel_Y,Accel_Z,Gyro_X,Gyro_Y,Gyro_Z
0.0012499,6.775652663915245,-6.792719574178186,2.174197805764413,2.288940807637011,-0.4445453944977082,-3.2984464225511503
0.0112499,6.776194577204286,-6.848469253420794,2.1856777350990058,3.5361254988821043,0.38713052961193867,-2.8731561988242804
0.0212499,6.846602547648995,-6.84972993456531,2.244190343299887,4.7607039259477535,1.1786545759872185,-1.9946351193849765
0.0312498999999999,6.876192894617721,-6.797699716869632,2.2630674891397713,5.6963013473247255,2.0826377144204278,-1.0879720068651877
0.0412499,6.854424906277686,-6.672557184451707,2.200230752952374,5.680749747437365,2.988291546530859,-0.21270431374130291
0.0512499,6.827288474082836,-6.59721841348035,2.1528447677289035,4.854588690966715,3.637116372000609,0.5467217488063787
0.0612498999999999,6.812272527421212,-6.5488663986329625,2.116298268148478,3.669256689520834,4.184188136507844,0.9367796858058707
0.0712499,6.8195557161507105,-6.484973216724395,2.0730903393928366,2.2822252829635286,4.407456150252202,1.32488293446601
0.0812499,6.854923814537743,-6.493751830950797,2.09380887248805,1.4041225833162878,4.325682509473281,1.8048376882042805
0.0912499,6.884864584675823,-6.5255904634843445,2.125733135240464,1.1098186893424373,4.463308322607003,2.275464955797732
0.1012499,6.901602498089935,-6.529491474234405,2.152296440961708,1.0009911127945623,4.7932693943458995,2.551002272047453
0.1112499,6.952476538702796,-6.529076216321933,2.1920469547002326,1.377184856033425,5.0812836795785445,2.6503064163800354
0.1212499,6.980340884954473,-6.53192302843654,2.2402614634470552,1.9821520404204886,5.2478391109535725,2.8218600745039693
0.1312499,6.9405253191500025,-6.525439264442286,2.304003811221508,2.5685351502623037,5.351778207235211,2.834604026339434
0.1412499,6.916880658346476,-6.505189077036646,2.320395576498642,2.77419964153287,5.5940130409583935,2.846077218297761
0.1512499,6.880188675819699,-6.468459844354473,2.3024364876946923,2.5415627479688996,5.8519199307877665,2.990371394200473
0.1612499,6.766401328707848,-6.401322224382264,2.287453720866226,1.7197370423724916,5.817521823181102,3.2481639407290905
0.1712499,6.629588765958284,-6.329418128767248,2.261697853702993,0.42200373496507604,5.534310732262282,3.7942389967165115
0.1812499,6.516013032602177,-6.3260108499342005,2.2534195356252624,-0.9135012019031803,5.396777398758095,4.781839465509539
0.1912499,6.342658526546658,-6.388214201333956,2.265313403126873,-2.527771318488557,5.019070425773513,6.255689156627558
0.2012499,6.140153363270019,-6.455298806715862,2.2334020281625646,-3.8088473736641166,4.709168830662402,7.903251717981401
0.2112499,5.906724308004239,-6.470996801772086,2.154609869469241,-4.919483606537563,4.003430626114295,9.846015539567953
0.2212499,5.6682701688170125,-6.467634346279312,2.081277629748713,-6.322046679188579,2.695969339743067,12.483956929516955
0.2312499,5.438367453439855,-6.4367198363003695,2.0157151584115405,-7.73744802318381,1.6082620768106675,15.642786141334588
0.2412499,5.178025107554058,-6.370568107252361,1.902213957445775,-9.702392681339258,0.5050940876293932,19.272995643762332
0.2512499,4.9319469867309325,-6.267948295350039,1.7198297880091773,-12.26273354135457,-0.7608330391314775,23.198543905289473
0.2612499,4.798089361367554,-6.117418396143543,1.5607703818909782,-15.288015130802533,-1.868395633558583,27.403690479023602
0.2712499,4.898327193257987,-5.981952189692254,1.4938937261887166,-19.043530623889232,-2.221330322836962,31.94810115512196
0.2812499,5.175010805692797,-5.921179723959697,1.4975303713724433,-23.355797538259452,-1.3610173260926057,36.875118927234624
0.2912499,5.4248543898115456,-5.949300657544172,1.5827386049515506,-27.421300371871578,0.45443281567617244,42.29806285260472
0.3012499,5.5645182440087915,-6.00526154039151,1.6713738873942612,-30.953051991999974,3.4332429515528977,47.737964084956324
0.3112499,5.640414977661817,-6.12710660216633,1.6749494865101475,-34.00236090832182,6.929501916114329,52.85544332097972
0.3212499,5.684836946036022,-6.314984988266521,1.6185785815880498,-36.402585545538926,9.936093637063156,57.38877546483267
0.3312499,5.703712412803225,-6.417795069458001,1.5621201829996434,-38.442570978565456,12.543363688890267,60.75796450764681
0.3412499,5.7408669268873105,-6.5625898688508455,1.5027339374336717,-40.12149231823144,14.754963632679852,62.87675263202163
0.3512499,5.781116917751792,-6.852584696771715,1.4936711848455588,-41.4757611805453,16.37786611190879,64.5829699552611
0.3612499,5.833195197989257,-7.13521417728426,1.5923697055814325,-42.47591712555071,18.08988408887942,65.88764412129018
0.3712499,5.985227801181841,-7.438820673773049,1.7113225108694943,-43.01979214619057,20.75909863317883,66.46465272396952
0.3812499,6.189913331216989,-7.852590182044668,1.8777661131861805,-42.60297017916429,23.786814652079727,66.15983899270329
0.3912499,6.254518141349772,-8.248758669281667,2.0503704863732963,-41.077346984686976,26.073905076237683,64.7451276642237
0.4012499,6.216517119699206,-8.709808562261424,2.1756062749306175,-37.64947260779301,27.901764349197844,62.64599062460769
0.4112499,6.200901533726905,-9.163820431570914,2.2763168812208945,-32.31085740304134,29.50656753013801,59.70346262500179
0.4212499,6.196147387927469,-9.486352586850838,2.403193046289446,-25.836350524780254,30.60568250270345,55.81598235423116
0.4312499,6.181137250510382,-9.684580389390703,2.5296724626097746,-18.41021521288288,31.29843599817498,51.31165401597536
0.4412499,6.19371903533802,-9.740229361694617,2.6189245794328273,-10.692679284589996,31.720045012838852,46.58803978866606
0.4512499,6.2487664433535635,-9.672080989469187,2.7142539953476676,-3.887786596277519,31.872734940304547,42.09282945219118
0.4612499,6.307833522152889,-9.533507956131302,2.792803451471867,1.786417524209501,32.13861396497072,38.09196004644604
0.4712499,6.352446143816894,-9.288108650681355,2.8051604627862665,5.832565271130608,32.39401771781402,34.351398690709395
0.4812499,6.429552695417142,-9.025831961261332,2.8307890635826687,8.209110121565553,32.564931497163485,30.654053754585682
0.4912499,6.495613461536835,-8.859480925654463,2.895668250657411,9.565856239815876,32.62533446002264,27.259651528739195
0.5012499,6.4789205741708304,-8.701831811542556,2.961653505306463,9.910487108478419,32.28703611757143,24.044095292598854
0.5112499,6.395912295035371,-8.525770319485542,2.986789084864864,9.320089767812417,31.657340732795557,20.894923735637317
0.5212499,6.235810099856634,-8.3656379763026,2.985301271888512,7.558513031395443,30.509095800638807,17.701636592272102
0.5312499,6.070364998643026,-8.24669181107608,2.9514016621274632,4.869070877814547,28.78738275639793,14.628986231092439
0.5412499000000001,5.988222904024071,-8.168912821065534,2.9264201208980323,1.5618512246690561,26.91116756575932,11.639645697839008
0.5512499000000001,5.889282716086971,-8.163802305953089,3.0074533511174724,-1.7479749078974975,24.771743505819625,8.714461925042471
0.5612499000000001,5.792782681492392,-8.21371179682237,3.081672774171719,-4.230024429565713,22.521679795643667,6.230639655499069
0.5712499000000001,5.729872422161166,-8.277998489309123,3.089209084415457,-5.970597202009117,20.398045745193812,4.114232619732173
0.5812499,5.619987442472255,-8.356224710929917,3.110970064979791,-6.678677340700018,17.921824002002637,1.9895503119693234
0.5912499,5.52407267948531,-8.41996594398641,3.134076744746836,-5.929630327909503,15.313397512357822,0.100459467348175
0.6012499,5.468461300209988,-8.46051498642105,3.1679822386424186,-4.1047609384492505,13.107607571129156,-0.9547397875971112
0.6112499,5.3864033613682745,-8.472803539487275,3.1922951032164537,-1.7911058544777256,11.100782685521551,-1.474378311727088
0.6212499,5.293661644089608,-8.422481636524282,3.157730427632541,0.33548170772659996,9.234707459568318,-1.8103578608476072
0.6312499,5.234438252931311,-8.327373537159053,3.1274062112090073,1.832872152612995,7.312400906981539,-2.0666058599834174
0.6412499,5.166010356004538,-8.215575808336684,3.127107473143491,2.5810419827881264,5.518947781656083,-2.35415279455721
0.6512499,5.090231178841085,-8.149127131934272,3.0745612805281666,2.369721561837429,3.9870605907385084,-2.6908156116540516
0.6612499000000001,5.024943033981707,-8.067124910333828,2.9826321914057887,1.1062747301271736,2.703345395964438,-3.0893459373174674
0.6712499000000001,4.981813379804581,-7.975147404939037,2.910470721096707,-0.5868408368748946,1.6470631078490554,-3.4590147307004777
0.6812499000000001,4.958957670361319,-7.993624316873537,2.9060128212290137,-2.212570217704619,0.8082531173706659,-3.9292392996450993
0.6912499000000001,4.95042350080748,-8.094998813624752,2.892177592514667,-3.041212329216215,0.20595841949581856,-4.13849624110946
0.7012499000000001,4.931148496175042,-8.189022642283618,2.8458199581968713,-2.8184906769665377,-0.3160063992354143,-4.051263771049652
0.7112499,4.911154733244515,-8.269702984811655,2.8453458748074536,-1.6380880391415131,-0.7025968023124113,-3.9717490438273586
0.7212499,4.903027331267546,-8.312639464539451,2.861826964461947,0.34092932952950394,-0.9046878638587875,-3.600457540983131
0.7312499,4.863709704430486,-8.31042976537154,2.813962542656198,2.3564458832518373,-0.9682004540092634,-3.0826890524295494
0.7412499,4.844468334302944,-8.2974437565724,2.7320535241925636,4.093043070903166,-1.1373010244834287,-2.879349469102687
0.7512499,4.882724192387885,-8.241413611870561,2.690673783919777,5.413957412594257,-1.3841491800768935,-2.7635332181226024
0.7612499,4.916222031363478,-8.158845684402397,2.6849750759228406,6.153795236102519,-1.5055241405340614,-2.739556420814133
0.7712499,4.951538586118356,-8.108083634889056,2.6350835980741034,6.456760132966701,-1.5975579172452834,-2.5286396689616093
0.7812499,5.005836583863999,-8.070139461378641,2.5682910200138864,6.214591824876345,-1.6692534198700477,-2.1770237826606165
0.7912499000000001,5.029714557272667,-7.987856378198281,2.537029008242826,5.241643723867611,-1.874314489565958,-1.7294609167672281
0.8012499000000001,5.053155712766087,-7.917731991977629,2.51796193278653,4.007375159601466,-2.0880004929645497,-1.3406953294268689
0.8112499000000001,5.084615951715741,-7.9224645772186655,2.497566014035971,2.919134708685829,-2.0968493220857725,-1.2015364950193663
0.8212499000000001,5.1025617940625505,-8.018034602308926,2.4914235888678786,2.4896107557734863,-2.1195966834615487,-0.8813496364525456
0.8312499000000001,5.119774836001128,-8.112850168008192,2.5306322349153647,2.5186151631702995,-2.2026267326045543,-0.49422824134979365
0.8412499,5.146929206615969,-8.17829680703545,2.537102902897326,3.0206296547821583,-2.169718491186741,-0.30670615030309256
0.8512499,5.133847664000678,-8.192037087977559,2.541598745107137,3.37370948219006,-2.3397856164623962,-0.35306838919524586
0.8612499,5.114590145010118,-8.222165420715921,2.585973279822572,3.7683881977362415,-2.5083812615171706,-0.8429354928837087
0.8712499,5.113743023060969,-8.250968515103697,2.6084487710206132,4.117054926014482,-2.713665424818875,-1.4063107973606732
0.8812499,5.089972324572142,-8.256299863607818,2.609402156507414,4.354890556443767,-3.045944099961569,-1.9122541095564762
0.8912499,5.060801618316916,-8.275106659859294,2.624924172726642,4.4883212908546035,-3.346729458573564,-2.3025473065537376
0.9012499,5.055012106987514,-8.2635620220462,2.655310302533287,4.367715030871686,-3.585152155395512,-2.4328884437854637
0.9112499,5.049619977053603,-8.189240178883587,2.622389286166671,4.037699788206467,-3.766092817328214,-2.5017639678736403
0.9212499,5.06699383735103,-8.106074433729027,2.5923968020930332,3.48390861622376,-3.843839920302944,-2.4776685643649126
0.9312499,5.095767623703116,-8.070023053380392,2.60586461133619,2.7469978529717847,-3.6485454691451378,-2.4673678648808886
0.9412499,5.109570046059662,-8.052538285655231,2.5991598430452085,2.0586824748725783,-3.236783523741585,-2.5782446520040367
0.9512499,5.113069727218619,-8.04109812750056,2.5906009740039635,1.5489590869226766,-2.780032417452213,-2.6209168883620126
0.9612499,5.082446193642944,-8.073448445198625,2.617325688808667,1.2820050216455505,-2.4573874825830364,-2.837695792499336
0.9712499,5.058049567692506,-8.129199295329627,2.6639648618882084,1.7310953187933853,-2.2070244767256586,-2.9757823090479962
0.9812499,5.040188215205145,-8.173283947711248,2.6692309872537443,2.632467313322231,-1.9503033644351178,-3.0484293459714875
0.9912499,5.008751532659188,-8.159113887216478,2.660428102131604,3.590852061480273,-1.913404943502986,-3.2209917707461773
1.0012499,5.008246667875743,-8.118184008182133,2.694959171843896,4.527925833263431,-2.1428650223196555,-3.5154070572792864
1.0112499,5.024429879663476,-8.094701955341018,2.72359744962089,5.137496782212903,-2.372573791883794,-3.824336401661962
1.0212499,5.041375185948958,-8.084222535449182,2.7689164526937864,5.331111205642225,-2.7143357727959048,-3.9159717899109037
1.0312499,5.0763175372271725,-8.071639532580935,2.804351114300886,5.37911420092114,-3.048964145926944,-4.037837179421536
1.0412499,5.1175777105336895,-8.085539031407416,2.809953457582855,5.300392315745409,-3.4553794250061536,-4.20176544091921
1.0512499,5.167162669960205,-8.104317152825413,2.8334971825016004,5.18173468044765,-4.010467108169301,-4.334966863423925
1.0612499,5.230624700358392,-8.107830285688058,2.8452154471561215,5.146453339622808,-4.755379717851485,-4.537664538495928
1.0712499,5.310895041325112,-8.13989537163792,2.8803269101181117,5.00620787946698,-5.665552176788741,-4.907732201513018
1.0812499,5.421899870044379,-8.158734113878694,2.9021832034499035,4.830719911126597,-6.384639946928021,-5.44585024704107
1.0912499,5.503429813610984,-8.155609082156055,2.91665515909079,4.813436998747929,-7.218466854809761,-5.883260881432625
1.1012499,5.600700776918475,-8.179834262522226,2.948567154489822,5.083441885032077,-8.258217730896753,-6.283805909234766
1.1112499,5.710470862394898,-8.195181147424934,2.96607083108181,5.191026895664594,-9.311843830540473,-6.82852866138093
1.1212499,5.761053209907315,-8.221534460684888,2.983548702236558,5.257932759739689,-10.73404948305384,-7.529727848016211
1.1312499,5.822863250624716,-8.268658874048082,2.9957691054406084,5.498136762211226,-12.198819195908424,-8.646942450666199
1.1412499,5.943240692302793,-8.281086195757645,2.9916072657826653,5.602142827892624,-13.840072575137961,-10.266577124604146
1.1512499,6.084073448558298,-8.363796911178019,3.037405898488132,6.1676686270775045,-15.791864381198634,-12.047821280403804
1.1612498999999998,6.2079914214857554,-8.526829654453921,3.1446666092460513,7.5696334561031815,-17.529207505422864,-13.755475399464697
1.1712498999999998,6.351477730003248,-8.572382247871273,3.2000613646087586,9.160844700515565,-19.284001250338186,-15.98532466753469
1.1812499,6.528931194089895,-8.630580247982031,3.2485412156594116,11.210577245442863,-21.299720453653222,-19.009845755268245
1.1912499,6.63028290630575,-8.845331695997338,3.3325335520404575,14.633758585640702,-23.721054551736945,-22.26194269332178
1.2012499,6.7233213071348,-9.016884964614896,3.432944633011809,18.364195644537784,-26.15892819797327,-25.379020290250175
1.2112499,6.802386827265202,-9.03082805984528,3.5062314312054235,22.590178052411737,-28.770040756701547,-29.79184251501233
1.2212499,6.8140504476328125,-8.977297701725051,3.5188857958366926,26.54009062304479,-31.74435329034184,-34.696055828854284
1.2312499,6.838001043303214,-8.893307216606404,3.530550241339217,28.735729989522156,-34.48480079022321,-38.97325201059175
1.2412499,6.87563827005009,-8.81080757739599,3.5284137930121386,29.281720382473896,-36.93672457460886,-43.29089403045474
1.2512499,6.854750940263132,-8.699781421096713,3.5466173126110494,28.761364579918055,-39.33453968314779,-46.92950062079702
1.2612499,6.821986981758868,-8.493697625904016,3.5646261696368806,26.82652271176592,-41.160267097325736,-50.165213668336236
1.2712499,6.7611236551457745,-8.20370700189399,3.484000259883687,23.678869410286115,-42.491389878077456,-53.40688909962404
1.2812499,6.682416401439629,-7.914576523319619,3.3479279673826348,19.391995968645183,-44.22703201603441,-56.518923800129514
1.2912499,6.66793387367188,-7.813567141110338,3.2553471603007673,15.505840575549145,-45.72839462244542,-59.332454882708525
1.3012499,6.657548544986771,-7.7334609792406095,3.2085816417952926,12.123086481145728,-46.69598995938475,-61.84987165480201
1.3112499,6.5779721706082555,-7.700741741566168,3.1831089573071356,9.80213321084848,-47.45731084096542,-63.60493110889845
1.3212499,6.471881946475618,-7.62242859628182,3.1062781734670972,8.714494845809156,-47.779121978585664,-64.61598488814874
1.3312499,6.48146923507429,-7.395473500116847,2.967727168231065,7.827944347339371,-47.78313439623034,-65.24771207030652
1.3412499,6.506447276071975,-7.186225116089363,2.843433439265081,7.501959336838918,-47.85571841847498,-65.4770834269029
1.3512499,6.408087801714356,-7.063336399271992,2.752688461209774,8.087266827691547,-47.58510707345065,-65.43185896008085
1.3612499,6.280573331717285,-6.9150034779826095,2.6181175347007026,8.283187442874857,-47.05622995350078,-64.91485483453059
1.3712499,6.242100873608565,-6.7437818139561445,2.448730295271472,8.60042337384538,-46.38504288980561,-63.97545553445798
1.3812499,6.202380220345156,-6.49690176981467,2.2985916988612862,8.26810040146856,-45.55422397472094,-62.91233923198796
1.3912499,6.145054010338177,-6.324587504677063,2.1867374722618336,7.922445551089977,-44.52735995212959,-61.841365918239056
1.4012499,6.062674692663402,-6.199979591816388,2.1041300053072938,7.645685256450246,-43.5730984937089,-60.32396093989594
1.4112498999999998,5.9567940220093085,-6.0583186365792905,2.024345091034502,6.767885142045543,-42.176205596408856,-58.02595036386884
1.4212498999999998,5.946186081540881,-5.91771893986546,1.9579546086650947,5.597517458315621,-39.73753442212573,-54.81352565464278
1.4312499,6.033638661976004,-5.718721184887872,1.921147735200457,4.216488448432854,-36.839387797584806,-51.39031582202041
1.4412499,6.039770782716308,-5.529983148601803,1.9001158703164807,2.481490427116346,-33.899637933064135,-47.95895587423461
1.4512499,5.974127620133833,-5.422488663516759,1.8635398663677276,0.9184862778564228,-30.459471486659545,-44.18222075098242
1.4612499,5.874804475310466,-5.391128918421757,1.7996117057090524,-0.3079608071941282,-26.771595564811697,-39.615885510823645
1.4712499,5.73774986813162,-5.339528080993254,1.6893920861182061,-1.3441895596245435,-22.83597138327986,-34.47243567629766
1.4812499,5.571698128734231,-5.146165808793877,1.4886272499939481,-2.7194938999807814,-18.916538747444253,-29.46404664793843
1.4912499,5.4728946365202065,-4.956620376786243,1.3308264852790181,-4.840565774966593,-15.069167496827435,-24.365266281108394
1.5012499,5.406519109775078,-4.819621151047145,1.231323149440321,-7.581027009591031,-10.667835531310299,-19.03951422739976
1.5112499,5.25352882064595,-4.6567612954811155,1.0919619598024208,-10.883381312728185,-6.2018424781677055,-13.564038094826131
1.5212499,5.120667379327484,-4.5641953618704,0.9433815431895646,-14.17213692071001,-1.9744300509314787,-7.97976300089829
1.5312499,5.123585287024626,-4.663677873311438,0.8724687686021169,-16.35007464669467,2.268107116321629,-2.0000396464604924
1.5412499,5.157853374267279,-4.807224564466669,0.8299251891802845,-16.776139472478576,6.4084130358296,4.192154239569372
1.5512499,5.137508314088443,-4.920999958120785,0.7723373045910312,-15.819473631556274,9.932428833731224,10.352655324506074
1.5612499,5.143292728911972,-5.2635656017068175,0.78146021486536,-12.531419661805575,12.806202461841313,16.944978935455644
1.5712499,5.16701804308249,-5.587516753237901,0.8116017898561667,-8.11646815199639,15.269417149946879,23.612630007765272
1.5812499,5.137713003749073,-5.777261364407032,0.7078961966373408,-3.093463632268467,16.769037829985088,29.521828344750116
1.5912499,5.1071425882774815,-5.99479863818672,0.5773310551575,2.554273912413549,17.214050108745305,34.65358696763451
1.6012499,5.2199599492789375,-6.201863824421984,0.5302410626857053,7.700865428245055,16.8900924325049,38.704645423615794
1.6112499,5.490607013966871,-6.364205870969311,0.527601644650905,11.542474314457893,15.962535568660924,41.533625867743496
1.6212499,5.85175227075746,-6.561152192120321,0.5529602058839832,13.964996056763109,14.589973820396969,43.549519147283576
1.6312499,6.198564152319321,-6.869245701201187,0.6133052370477836,14.858907829946654,12.746878658157348,44.57809985505862
1.6412499,6.479035054082447,-7.205582517518756,0.5940000849074839,14.422476227436535,10.616918890483674,44.36307548162783
1.6512499,6.8274084364450545,-7.4626191277906475,0.5582101525080112,13.100398810506041,8.138129893486969,43.03160104362565
1.6612499,7.235062703987508,-7.695277425307082,0.6446789065551844,10.909271720650832,5.012645726633185,40.46497541555614
1.6712498999999998,7.699898275127114,-8.006578292133911,0.756089340556777,8.948602652915943,1.749477657975474,37.042072442972945
1.6812499,8.140965011735702,-8.28618575992155,0.8499994777689927,7.938842525691846,-1.750390417729692,33.09689232186775
1.6912499,8.55112835543376,-8.447400624376872,0.9024697432780528,7.607389582938042,-5.360562009238911,28.53642766687238
1.7012499,8.98546160432536,-8.600669866649376,0.9193884288335973,8.210876775837372,-8.81039420663746,23.476361919899432
1.7112499,9.334584764427921,-8.659960789433706,0.9613367165517348,9.076963788053732,-12.326526393815758,17.850055225696572
1.7212499,9.602594861083903,-8.722027918761501,1.018790981831719,10.831535834915535,-15.898944447029189,11.759137793183724
1.7312499,9.87632463648951,-8.775505870742888,1.0411266710583267,13.428212042645349,-19.381380570839646,5.6424062946335045
1.7412499,10.15698795793653,-8.66691014199833,1.0700783794242468,15.773766107208694,-22.394894338554668,-0.35780078531808274
1.7512499,10.334711516317707,-8.455966466135648,1.1171696994184228,17.351768972589703,-24.75348427235325,-6.567963332967799
1.7612499,10.350648448921413,-8.267137938171011,1.2130290179235417,18.474578931128292,-26.639242160484528,-12.977443600639704
1.7712499,10.244701387319644,-8.089790044955901,1.311325452843365,19.73885070877441,-28.359551464595707,-19.081777511844944
1.7812499,10.06127364182039,-7.856522506657669,1.3320250669898794,20.452261223831492,-30.1968542147136,-24.671674995488274
1.7912499,9.834725493600365,-7.728449265234213,1.3885409342837223,21.12867015829041,-31.998389142102347,-29.49588376654138
1.8012499,9.582346927688056,-7.607562225772597,1.5143114171314893,21.833763627373436,-33.378631039328425,-33.16888782360459
1.8112499,9.363178899381234,-7.38962533322947,1.6616475658277425,22.49734340587894,-34.281780910546765,-36.18514812145823
1.8212499,9.138033244472952,-7.1350611084769415,1.7591266674143688,22.89911949246771,-34.89647394978149,-38.64527535225627
1.8312499,8.788387617471487,-6.850920165715093,1.7987675060161412,22.90408363494324,-35.35474912896002,-40.79291432241773
1.8412499,8.418850113696084,-6.488973168231129,1.8504151307334447,22.509228195123182,-35.76988323536237,-43.408746686476384
1.8512499,8.183407317214149,-6.184615382718252,1.958117706672963,22.29948117870442,-35.79464224834957,-45.75316606346276
1.8612499,7.972317243760279,-6.000336652895862,2.1503244609485046,22.398420758227594,-34.97875269632519,-47.14023674157076
1.8712499,7.762017325099493,-5.785700291675034,2.3833600145158127,22.421699393539086,-33.12150398721625,-48.0598929956648
1.8812499,7.556895378571493,-5.563427815217629,2.5929428554054814,22.139640488006116,-30.58047095870529,-48.38612615499014
1.8912499,7.26869575184925,-5.392979723027964,2.7412480670004364,21.66848008454589,-27.72064005586011,-48.048807643361606
1.9012499,6.958685600992336,-5.300898646773808,2.8743891327505984,21.365213267688844,-24.626151981086764,-47.14298473271363
1.9112499,6.68582553138192,-5.204274337634468,3.0203256812509056,21.120424120300097,-21.234994444957245,-45.553861289114316
1.9212499,6.395488116078409,-5.085011878344353,3.128597770975728,21.238354977017707,-17.851387213276144,-43.3883585863094
1.9312499,6.072014897756247,-4.996300354436643,3.1785797945042895,21.929492433296737,-14.704235885260989,-40.64841878998625
1.9412499,5.764390780309094,-4.901485318400303,3.1738605647970735,23.060731925793316,-11.773923214455069,-37.26534566048013
1.9512499,5.494962212515992,-4.7927467265985255,3.16439032287776,24.58701798178017,-9.258451932405327,-32.99702349315106
1.9612499,5.2796330462588505,-4.707318734096155,3.1533506399799975,26.508858482270824,-7.248874323177108,-27.729618972810933
1.9712499,5.107669752764758,-4.583040983060412,3.03782216772356,28.007121592128104,-5.608350019813312,-22.081109116337558
1.9812499,5.017830449439481,-4.401634700174534,2.8485808044782304,28.682604036707016,-4.639979399081767,-16.581220507294255
1.9912499,5.086489642542234,-4.208401156054342,2.7465328572236842,28.182293056203985,-3.8509447586695558,-11.267830235178575
2.0012499,5.108441868574687,-4.048082498949602,2.6451174777320343,26.130613834388065,-2.862480386003922,-6.122905454980675
2.0112499,5.201079514742636,-3.9571429984080004,2.5041482893653937,22.627604143050895,-2.1182628816787687,-1.4090784808818129
2.0212499,5.510334721242211,-3.9432528901419026,2.4333525311769906,17.757006820572276,-0.8803055404878093,3.025422735248036
2.0312499,5.711169723258114,-4.003008520045778,2.3544940630351388,12.476870960108611,1.1109892842436297,7.142991948094379
2.0412499,5.808423726746679,-4.1350439568227255,2.2329442404501165,7.340277663489175,3.281383756434757,11.153429509853023
2.0512499,5.918316652425881,-4.32602411107832,2.128381167948811,2.124420296670184,5.507239589835804,15.678532038421121
2.0612499,5.9237039300176155,-4.5322461019269324,1.9933946123753399,-1.800788927877387,7.483900455663753,19.705265610983776
2.0712499,5.830034312171108,-4.743349227240553,1.7893249541083627,-4.24862039374686,9.029845777432154,23.429685240161145
2.0812499,5.788433673292281,-4.909470191663278,1.612863864843437,-6.690582874285434,10.639510447824268,27.409782923460625
2.0912499,5.731688546500294,-5.047270508030057,1.5207541635123403,-8.86417175306066,12.293557770468697,31.590634843478774
2.1012499,5.660332979537757,-5.115337916088073,1.4125980211923004,-10.250608596111375,14.3650603113607,35.94850567728635
2.1112499,5.77804581738627,-5.14425724369185,1.3769537480426788,-11.363385940194746,16.630098428607607,40.550435518744784
2.1212499,5.985923390863276,-5.267573896070507,1.4829941271303009,-10.85184048283959,19.205131221273586,45.66571546515578
2.1312499,6.003556374552237,-5.314769793742034,1.569097056423851,-9.354851089226058,22.380138456273567,51.56730121983997
2.1412499,5.9254164900694075,-5.328396686526046,1.5287576918375256,-7.825350461720218,25.771159274094394,58.1058643981527
2.1512499,5.805543442379932,-5.311037907083501,1.4528746444665006,-6.474183976711893,29.21783283337679,65.00614790222846
2.1612499,5.478066136908676,-5.2197592484162625,1.3040028344443608,-6.070459725479288,31.978781923579817,72.59412314247537
2.1712499,5.042901297093594,-5.0904510224462705,0.9862972681686611,-7.727756198875937,33.920785206088404,80.46069495961805
2.1812499,4.530427866576563,-4.910549996912825,0.6344616927081759,-12.289671151225953,35.17753753010115,88.20189687612825
2.1912499,3.8898174078339465,-4.837211447522194,0.2925528657172933,-18.89231930866182,35.722581812034555,96.11283234827737
2.2012499,3.288821458412054,-4.8845120466559475,-0.041229765012494035,-26.707667826688166,35.36575081346204,104.40070219873611
2.2112499,2.7384795443877015,-5.0802130624523105,-0.44628288095605645,-34.14212692361013,34.13373676921142,113.5833196646828
2.2212499,2.2854837598586597,-5.458481916958963,-0.9598299517430009,-40.67575077309268,32.7851648275278,124.27251442142114
2.2312499,2.1832919409916265,-5.7714745923866495,-1.325317157897474,-47.387665196892165,31.915792049146138,136.09701039909223
2.2412499,2.191310609275086,-6.016474273923528,-1.5295636626967517,-54.64787642140719,31.745854606331132,148.3734774727174
2.2512499,2.14111571035241,-6.453139959518127,-1.8412049222635993,-62.422041209868425,33.05931838025726,161.38112908845588
2.2612499,2.3411566207866144,-6.965098729515579,-2.326098369549295,-72.95803533068626,36.6388496114408,176.81913309484156
2.2712499,2.585686015796033,-7.444871581791741,-2.9799087111928184,-84.93865476324022,41.41374962890612,191.38379485639524
2.2812499,2.721540222340583,-8.094559374635322,-3.7109881622490244,-97.12980878508083,47.32579902034415,203.0881904412191
2.2912499,3.02924509636498,-8.89848503092462,-4.200927790441147,-111.32668270530588,54.269149966315254,214.20913245575628
2.3012499,3.31859087859338,-9.90767791717513,-4.499668511500778,-126.12679187067258,61.83782620993156,223.83468995066931
2.3112499,3.606643530242362,-11.00682394718754,-4.917006815487907,-140.47333456876825,71.84767374005656,230.69542858828953
2.3212499,4.11376678008234,-12.039768342900532,-5.296798201395227,-155.52044069768837,82.18679883586717,235.02309604731948
2.3312499,4.63121724890607,-13.389030445199197,-5.609086731642498,-168.12461264963707,91.60237481162623,237.1216137807208
2.3412499,5.074703914387194,-14.975041228676144,-5.78049156247503,-176.84020823702747,101.74862367036151,238.47340308000736
2.3512499,5.564697754567703,-16.489631401934496,-5.637976807343018,-182.733369834438,112.14984009414917,239.7958827832503
2.3612499,5.925808997935694,-17.95598057586649,-5.39243040054863,-186.35038514935607,121.29742827199344,239.6755837569872
2.3712499,6.1231414273901095,-19.425308631430468,-4.96419914775502,-188.69711421094985,127.79603259472657,236.37230419115014
2.3812499,6.515540514124092,-20.780711381133266,-4.514165180448409,-191.32103551627006,132.6288523334077,227.97895584165101
2.3912499,6.917144723918207,-22.058708734321566,-3.9885622132446423,-194.40667246712323,135.00347089529242,213.70213981470187
2.4012499,7.452706951940942,-23.354401824278877,-3.1859653632533806,-196.61229843170958,134.53738219419307,193.73312894999913
2.4112499,8.461458180257994,-24.596403156474402,-2.2320932005615557,-198.2184984478678,131.91934086799426,168.2269335248756
2.4212499,9.731461555784229,-26.097805658900704,-0.8634907375705028,-198.6916104516872,126.11779086590938,139.11078578351376
2.4312499,11.275203662759326,-27.668230084261488,0.5803731675456778,-196.94929052156542,116.9726618272135,107.74005545789922
2.4412499,13.229380270054373,-28.17326627336919,1.7287633794210846,-197.3434519610962,105.15338185190045,70.90551616666183
2.4512499,15.676960820103158,-27.643200115505277,3.8692369852120976,-200.7544776589985,89.097233988232,27.641898123523163
2.4612499,18.341450541110145,-27.011512273709574,7.320887802367507,-204.35860933295962,67.103847458803,-19.860256578873575
2.4712499,21.064671729323894,-26.563260305007315,11.42202558676357,-204.75756253193188,33.219631845619695,-78.54760160766708
2.4812499,23.85752309247561,-26.238421486579586,16.122637232523132,-195.77420350293522,-13.995453943670414,-140.20405786275532
2.4912499,25.23536025383681,-25.770206005604592,20.928325677354767,-179.2136764302407,-70.8333946219909,-199.6295037339557
2.5012499,24.34017766921563,-24.881743396674842,25.496794437326802,-169.22482441120474,-133.83759134230633,-262.09016328205587
2.5112499,21.396374071171994,-23.574664986148562,29.468933055395777,-176.08495817444992,-198.03240849090136,-324.4130046085441
2.5212499,17.263091879589307,-22.63988035711088,31.753646876187464,-200.96117855803132,-257.06107995689445,-383.5893040493571
2.5312499,12.965157613759047,-23.415045357698226,32.17165620420571,-230.93548611914576,-310.1154081937998,-442.61412807625015
2.5412499,8.254854793005846,-26.282733735082005,31.841995463382915,-240.73179796494574,-360.37839895686204,-490.27147705677436
2.5512499,2.5858459543865,-29.163336907749454,29.996122515206956,-225.92193700396783,-406.0314915102816,-501.8368943924053
2.5612499,-3.628839247593506,-30.19662292105411,25.824390828077494,-200.77964740846923,-447.2392834964347,-499.5379849147794
2.5712499,-10.867657969821845,-29.46657661002792,20.618889528900024,-177.03185642079626,-483.53447336183484,-500.05473302049893
2.5812499,-19.276197716561718,-26.663655998941984,14.93995465040423,-163.8085427796696,-499.72932123019183,-499.0867168087798
2.5912499,-28.289852491667236,-20.702596822986987,9.810964972378839,-165.7602826574703,-501.31400561607626,-503.4437342905928
2.6012499,-37.30059200369416,-14.703815142901803,5.26043346468352,-172.21215745630033,-495.4279886553874,-480.2711589522596
2.6112499,-39.80672633773232,-11.202396710277277,-1.8018264949449918,-162.82226137649508,-450.47497761781585,-402.7856617678127
2.6212499,-35.38594915954195,-4.731873803306173,-6.160174684767987,-145.05100054223607,-371.68542588405705,-322.6036085062472
2.6312499,-33.80964460053765,4.029700647492365,-5.545938119245079,-136.10170389194792,-271.9389826082065,-255.144283192166
2.6412499,-32.69424446935709,7.272643382555426,-6.572911011250089,-110.31829834941371,-157.75158176686693,-194.77483240422433
2.6512499,-28.992104805157684,7.875876334122791,-7.128398013261373,-57.063678945464474,-51.797246278448824,-138.17062078751178
2.6612499,-26.273066690009248,7.936261831705611,-7.716528803421707,5.128802649115041,35.16388568566629,-81.93690342850476
2.6712499,-23.095362183887087,4.6018795754446185,-9.972114574524019,77.08329663946418,99.39935410524022,-25.498742711003704
2.6812499,-20.041961600529383,0.7677932665556131,-10.589094310571092,148.60002854360033,143.0525473917843,35.58089200629453
2.6912499,-19.91719891056594,-1.2686017418484152,-10.27300011807858,189.08533574959225,164.58342350322502,80.63537684442724
2.7012499,-19.74396313909419,-2.113306161868213,-10.503943954222786,198.62874424752164,169.32451858054392,97.91194457464135
2.7112499,-17.45857337331985,-3.030089882239842,-10.34280209290817,192.85867079766817,162.0541361146722,101.2831610407503
2.7212499,-13.878458707332005,-4.352924148861399,-9.541900058306442,175.62200996347602,145.5602852077611,101.52010178803425
2.7312499,-9.761524680083815,-5.839494323587029,-8.721665290515407,154.63456910298692,127.05927618969663,104.98936922068691
2.7412499,-5.331303447451493,-7.049571403011656,-8.30759841878652,136.0465623928546,112.25307577911147,111.18663549860925
2.7512499,-1.0566774439792446,-7.648353874971503,-8.030146754784349,120.44723718095169,102.67240833221861,115.78982715518502
2.7612499,2.372537416946152,-7.998498031767715,-7.538256125631529,107.53364057807246,98.75981098304555,115.81076743880905
2.7712499,4.6123416771779855,-8.73344836062586,-6.73411704720403,97.56725225805826,100.36276736921822,111.20607808037585
2.7812499,5.2647416386710075,-10.215483449972458,-5.742289814666315,93.96624154976041,103.93706513454005,103.39582166571765
2.7912499,4.905827413789165,-12.039237154630674,-5.238696212073566,99.13317459100551,106.52150029909127,94.36851735244844
2.8012499,4.810528151598053,-13.519594098546577,-5.078275181341266,109.31410272396957,107.38451153939525,85.22474496544861
2.8112499,5.10559018326874,-14.15429416392744,-4.635306164574044,121.28355013377195,106.99672373973233,74.96309863533925
2.8212499,5.294061779743401,-13.90546343501295,-4.221349370724187,133.11067611176054,105.6773055450845,62.82834533215716
2.8312499,5.353368812480107,-13.176234797353679,-4.090713363507951,142.3515880183988,103.38145451229667,49.17489906519701
2.8412499,5.607065824379213,-11.940079447279956,-4.212014089300698,145.67108342675078,101.26103942074886,34.676917824771685
2.8512499,6.163752272949246,-10.324329952873674,-4.302831224470355,139.9334902528564,99.5203447492404,19.679836960759108
2.8612499,6.738801788810432,-9.267785002445116,-3.833627335646935,129.48169355019147,98.40811779329486,5.095236056584125
2.8712499,7.087165228404531,-8.117556513508637,-3.303900529428448,111.56425708223203,99.86010681515332,-9.39306914345048
2.8812499,7.373744333238586,-7.311996170122228,-2.9204341434222196,91.35723993740568,103.993386741195,-23.539896769330102
2.8912499,7.657920019084178,-7.223360206010155,-2.358091848646677,69.48797011808213,110.9308768599923,-39.056888476969874
2.9012499,7.689467552442413,-7.111527995655715,-1.892503723312832,49.66764984744694,118.02922634910789,-52.29178058476844
2.9112499,7.641001914538791,-7.871192623800772,-1.6202831768307127,45.02775710577446,123.40963475251756,-61.03987066352786
2.9212499,7.537471299802337,-8.660110009674417,-1.4195139310072262,49.312462858716245,127.5504124473451,-67.31176738854259
2.9312499,7.395684215696706,-8.699240876499553,-1.3831371367970091,57.18085916657611,130.52613774374709,-71.43127375449515
2.9412499,7.279595544187738,-8.493581198416639,-1.411159904803332,68.89517297414925,132.10923485547616,-74.44441261442365
2.9512499,7.000006136322495,-8.130763551082595,-1.3905626115138996,83.50975990279727,131.90400414421805,-77.09317919018362
2.9612499,6.767173876975526,-7.460512821872706,-1.5821795542078005,97.79266440896754,130.86185846885095,-79.65987157725004
2.9712499,6.776870667403443,-6.4324087906324365,-1.8438499465447644,107.3494339456924,129.96524006653817,-82.21635575473618
2.9812499,6.847974306423431,-5.326903961790461,-1.8383204268059081,110.30981337003452,129.68388536916402,-84.26425569980182
2.9912499,6.823336220888716,-4.453667086920429,-1.6317131325012695,107.6216894369109,130.79017694591,-85.06113150501365
3.0012499,6.779248467800539,-3.631196949364079,-1.4953691498604063,97.66770450455668,132.62796274535518,-84.6830312684763
3.0112499,6.997109817083528,-3.227699183370042,-1.403735714357223,84.06208991146298,134.67187813746398,-82.72198252753144
3.0212499,7.371219886372447,-4.05658477494111,-1.2717039071272762,78.25554429182773,137.4875561471075,-77.22041277058045
3.0312499,7.149210244066723,-5.100575774835455,-1.4911338236684564,75.73300646860609,136.450248629783,-68.25929600567908
3.0412499,6.6073941801054215,-5.180331179055398,-1.7961506677553056,68.14043014491307,128.96429682911003,-59.05987638353834
3.0512499,6.78074649196222,-5.3478306088209475,-1.8229492700601795,65.40953859994275,122.00083853157915,-52.80126736716413
3.0612499,6.968621613419531,-5.690893694306718,-1.9509419424360466,68.19594595994111,116.0122353722847,-49.25800032385625
3.0712499,6.978987617860641,-5.774349302404307,-2.0094658980094837,70.88408280979505,108.17805433879569,-45.86052980047924
3.0812499,7.487390515389491,-6.149027112391154,-1.7965872540403982,75.20333770148466,101.40277962341386,-41.22412144919734
3.0912499,8.010724724573391,-6.441980473947868,-1.688939842733175,78.22311237069333,96.15381440300537,-34.5494759262069
3.1012499,8.363812517261094,-6.534752485992895,-1.8475437140783058,78.09439179053201,89.49503465539715,-25.097231094417314
3.1112499,8.716291727039525,-6.409602131022841,-2.1389874969839076,74.15322483683299,81.92787274879714,-16.692077229088344
3.1212499,8.878032659171044,-6.264389859027301,-2.465952434873901,67.29761152176832,73.52750288583572,-11.816475989344692
3.1312499,8.849745612233942,-6.48154938450102,-2.6444910919322373,58.67953522964939,63.95228130618721,-9.138071274065839
3.1412499,8.818209921211183,-6.738936788395546,-2.576325561585016,48.260052188749064,54.6453017249364,-8.42954646499776
3.1512499,8.973362070584972,-7.0641237780084145,-2.440639486290374,37.9770682230272,45.92559558690548,-9.521221615053127
3.1612499,9.269695695483321,-7.527057385189515,-2.255689635653636,27.826472951636987,37.70217166018365,-11.703727048656166
3.1712499,9.423548049664396,-8.02552003652991,-1.987431427138685,18.138117990059083,30.653193900185993,-14.133050897958546
3.1812499,9.469677159530287,-8.461129104302028,-1.7895473938657087,9.23200494766637,24.495455261393754,-16.488440091840502
3.1912499,9.61817535635447,-8.754238372758907,-1.729257223892268,0.6946692534122036,18.909575290654985,-19.20781320080873
3.2012499,9.691683779653596,-8.941871207040238,-1.6998361568467415,-6.763006153784704,13.912331656780669,-23.155034854274643
3.2112499,9.490003852361918,-9.07909982998124,-1.5706161156803617,-11.935511705193894,9.316943355981532,-28.023373577370176
3.2212499,9.17625092104743,-9.320777864245201,-1.3563625373541652,-13.532980689135467,5.256296210845925,-33.1672192144137
3.2312499,8.792737518048556,-9.59172710663913,-1.1329181184213808,-11.67254591037703,1.6542155927091382,-38.27203617763153
3.2412499,8.366879309557348,-9.685897196386538,-1.0657296701336443,-6.9431761469860005,-1.0242622103276133,-42.766717203188264
3.2512499,7.901408304882009,-9.61461557576809,-1.074724392819498,-0.8657693885939997,-3.4344658487941713,-46.6651588233757
3.2612499,7.497912656640412,-9.4108688429471,-0.9173115569007084,5.197873068797746,-5.441364696009442,-50.204363430674164
3.2712499,7.173565585204396,-9.061522230165439,-0.718080435739856,10.770290918892924,-6.531945759732332,-53.397108993211184
3.2812499,6.8595137248583695,-8.592843611807487,-0.6118164415098606,14.751190382805035,-7.105530626213167,-55.977592091397035
3.2912499,6.635110738087994,-8.088819941050813,-0.539967898283231,17.465731683724716,-7.539459155462048,-57.68022920852728
3.3012499,6.549465939686891,-7.569325263503227,-0.40379726672151334,19.76518804080719,-7.758882476675396,-58.37433003689273
3.3112499,6.400580865957961,-7.0025509568679425,-0.1852404744654665,21.966618786957316,-7.85180396430962,-57.57254690172485
3.3212499,6.165939997771702,-6.501612023470318,-0.07595920627380308,23.711691786022012,-8.268488889657272,-55.274585160690364
3.3312499,5.895405073687433,-6.065350134856254,-0.12716890416297896,24.521428793222384,-9.012424831345578,-51.84195238574076
3.3412499,5.617296978147175,-5.611875552270199,-0.2137212993024167,24.02345281177194,-9.718835503113441,-47.821138608022096
3.3512499,5.459564470092013,-5.090939623848835,-0.27376063114408067,22.04350903889682,-10.331843861271851,-43.67877074120194
3.3612499,5.481690524735217,-4.607151370165435,-0.30053852614496324,18.864103628091463,-11.036399823000636,-39.65199672891998
3.3712499,5.655109326860366,-4.250077623736459,-0.2831253578261361,14.825709556807809,-11.407173642315884,-36.23832906736621
3.3812499,5.908100553251728,-4.0799419811888455,-0.23577319056141174,10.997683248105627,-10.960665600831902,-32.892800631217035
3.3912499,6.156199317277525,-4.162630860023203,-0.10529891958899719,8.231411631458256,-10.044216213810842,-28.47379477597908
3.4012499,6.39407274770671,-4.389447550066485,0.10654789369683965,6.4257034331172544,-8.369403855894372,-22.713273066667366
3.4112499,6.623843933572502,-4.576933478311827,0.24963148409808997,5.723037703099681,-5.729837052885413,-15.821031262643997
3.4212499,6.796926616074414,-4.701408833399163,0.32459603819067534,5.642139973795754,-2.583242407270259,-8.860011109453795
3.4312499,6.852176454918454,-4.833937016659566,0.40469874059663086,6.169734723488527,0.10432026922553915,-2.3740135684853025
3.4412499,6.812742050772493,-4.962614582102064,0.3933591518627755,7.6684580760798235,2.063941728794554,3.0222325754505612
3.4512499,6.85303181340586,-5.060100401514671,0.3530004865977296,9.83166290972851,3.465332408062,6.598654263877968
3.4612499,6.97652820636765,-5.17549305128669,0.4058118985070468,12.498666743888572,4.3126663657112365,8.144455887943067
3.4712499,7.108586108972609,-5.369112786122106,0.47957562666591524,16.16460150942475,4.716502801354874,8.032710023495659
3.4812499,7.371063224490332,-5.554964119349289,0.5670056088399915,20.293628745787213,4.775993994192619,7.1738210311370905
3.4912499,7.791308852136056,-5.759672095279398,0.7408980919834328,24.86219533333531,4.9376784646855505,6.577732239460836
3.5012499,8.213289621981328,-5.9245317158795245,0.9179616245001142,29.40892656508448,5.6863599155973725,6.586192567387622
3.5112499,8.568089336113086,-5.904796400574647,1.0272273539592263,33.552304692225356,6.82046838044296,6.6470415116056545
3.5212499,8.877463879523358,-5.770112878222703,1.1262092523847411,36.90847484947554,7.571087280145074,6.321652417825219
3.5312499,9.064927327754777,-5.723058188967925,1.2340191772004767,38.74743527238734,7.703196918784413,5.773078908762801
3.5412499,9.10709104823562,-5.694250557261993,1.2384627101197254,39.56629579096577,7.36464252451761,4.902340683390492
3.5512499,9.067010318993365,-5.666633733044858,1.1650787298343808,39.62541506044986,5.949095459217945,3.9946142240073303
3.5612499,9.063860920687134,-5.69231379301067,1.1447839284783188,39.008474073818334,3.593688678907129,3.374973461785676
3.5712499,9.15616000351571,-5.694193755382897,1.1527892710992862,37.61455061781095,1.5329615085717365,2.513640279587283
3.5812499,9.213845386876885,-5.75529594267689,1.145124843701348,36.091572606491596,-1.3433508305657385,1.4118295900272797
3.5912499,9.298560750026397,-5.825011228715016,1.2444097759525536,34.21577599094125,-4.802201881629253,0.6637798405481198
3.6012499,9.340970286658452,-5.841606374824021,1.2954107684106426,31.65668016253537,-7.31053594212944,0.11248390764424446
3.6112499,9.177606885234233,-5.861923223651008,1.2708585528350755,28.294585629761404,-10.00505410768007,-0.3059990254771441
3.6212499,9.038954038842677,-5.848069606754329,1.3120397305812488,23.87064960074563,-12.481670315901688,-0.7739589693799291
3.6312499,8.873630110439734,-5.856592623980252,1.3707270706722492,18.887593988394034,-14.236617561561966,-1.4858027747997422
3.6412499,8.585089387588528,-5.92432035372459,1.4433597755802705,13.925904833922248,-15.662137194090409,-2.7185523117502073
3.6512499,8.30027127926264,-5.996308708215396,1.4870953009663295,9.239666079702316,-16.58681207415949,-4.686600840963624
3.6612499,8.065815029449132,-6.033838974940769,1.4597305661118194,5.311592954254671,-17.110673078937893,-7.021392854938865
3.6712499,7.882748736102488,-6.060475370315014,1.4395444626732794,1.957265672179395,-17.11429497848825,-9.635868652919646
3.6812499,7.742389863215944,-6.072151818515765,1.4618855036010983,-1.0412806939736932,-16.533720966872053,-12.463464246388892
3.6912499,7.658012349683962,-6.022902233160378,1.4136865045533489,-3.647825132338561,-15.577894400001803,-15.150863393390148
3.7012499,7.590274979859206,-5.91379801303523,1.2784066347314353,-6.2887022095278775,-14.043911447668217,-17.187558206927033
3.7112499,7.586943559618199,-5.739260879948026,1.1511059477893058,-9.295209269350334,-12.133022482122286,-18.726315450286382
3.7212499,7.6916763003829445,-5.604637255347036,1.1349953713095473,-12.755681979398497,-9.816119635091882,-19.56762070414587
3.7312499,7.796131524476002,-5.644813303401165,1.2474900937195916,-16.190356661788115,-6.552575600717045,-19.53837590495963
3.7412499,7.753134606881371,-5.6773308572326755,1.3918728029871914,-18.513179936414712,-2.720392748188154,-19.469133269075414
3.7512499,7.6255580205207965,-5.68090314440796,1.4991784166642472,-19.4371722497949,1.159862519114353,-19.522738841452888
3.7612499,7.529764581391037,-5.773696519114772,1.5346248697121347,-18.802269745652698,4.7892893055768875,-19.247807317408196
3.7712499,7.4332817541864395,-5.873691102866749,1.5546065908057407,-16.47396966934857,8.158476099655898,-18.203416014973282
3.7812499,7.347378090689974,-5.881093826386252,1.6054667051637375,-12.767632843040984,11.380709220206263,-16.25539026856253
3.7912499,7.263774815722778,-5.761467389163747,1.6054311567383868,-8.399207503444007,14.16212991749006,-13.581494662250972
3.8012499,7.179091334225481,-5.566753889992078,1.5396917743328096,-3.773569078548446,16.247411483989293,-10.304299302292087
3.8112499,7.1518075355046395,-5.310595018543108,1.4264897951646198,0.6297791334740249,17.583079241454858,-6.608855689627189
3.8212499,7.19773120396316,-5.014326478840158,1.3180210588266377,4.339832925696683,18.25409216672962,-2.4677281163290936
3.8312499,7.2089125628084885,-4.699058335388417,1.210387878201226,7.054294586507925,18.14724439988917,2.2093048422596477
3.8412499,7.146392865285354,-4.418245785135522,1.0905004097282747,8.662429093687205,17.16990896689469,6.889931334734646
3.8512499,7.159173631714014,-4.263112838922325,1.0463962295451024,10.087062884445638,15.923385486306668,11.460644495410751
3.8612499,7.180287094440441,-4.148814964412916,1.1044480024639693,11.628816854722716,14.231235515515445,16.435185906472526
3.8712499,7.089751950613267,-4.087849741806483,1.2141129055299238,13.820301677002728,11.817771567051112,21.71163812641003
3.8812499,7.017968738054834,-4.148713373649606,1.3513916783593167,17.34395094788544,9.367950983537547,27.29135741143449
3.8912499,6.913067821033463,-4.194978499038989,1.446006155574011,21.63624718670126,6.856916334452963,33.2873638076677
3.9012499,6.713730310740722,-4.180096430112968,1.44061519245925,25.83397853685441,4.217035951471004,39.846320105134375
3.9112499,6.515320587093353,-4.1532380512378175,1.4254594453725113,28.9457865414264,2.126695855767665,46.71929709693099
3.9212499,6.3478696297611705,-4.163813339133509,1.4248528647037764,30.928346596732453,0.7596966492384183,53.406891493390795
3.9312499,6.155870149979794,-4.147138521071165,1.3982291319157085,31.01011194492844,0.21637936834715546,60.02745055092133
3.9412499,5.924310712566887,-4.12260077797242,1.3368141392730786,29.609466307868356,0.9247537627342136,67.04489300173894
3.9512499,5.6791873828540025,-4.1870288177057535,1.2091816954710661,27.471811398716813,1.9584879799001318,73.03048506846301
3.9612499,5.428393992236203,-4.394837295545115,0.9421813828086916,24.114388189525908,3.234104198686749,78.11827519494544
3.9712499,5.167884977167308,-4.5692448515262605,0.552615552006765,18.591070507759042,5.792689742216253,82.40461033072731
3.9812499,4.824603172898904,-4.654555973061297,0.18291863233592626,11.150478716116986,8.728340732739321,85.63791669428646
3.9912499,4.409561843064806,-4.831674285301368,-0.13869134632972646,2.9919093652743998,11.371057223438713,88.60658171355885
4.0012499,4.07029637528188,-5.108098025545547,-0.4860674707052386,-5.073900864970718,14.631019286803694,92.59054149621211
4.0112499,3.78092073148854,-5.493216840897206,-0.972418588172745,-11.756664191952357,18.3241144758539,97.94652880356833
4.021249900000001,3.5225344384134214,-5.924023081753204,-1.4406744228547164,-16.944685706027006,21.791038896947775,104.9517894148933
4.031249900000001,3.3718608570086928,-6.411423173453926,-1.697657332750525,-21.382435320296903,25.9417017844986,113.77763970492032
4.0412499,3.1979370745347966,-6.860081317481319,-1.9391773149407747,-25.777924344538995,31.390462069777733,123.60181514983974
4.0512499,2.876576758985502,-7.174877380070348,-2.3514757096257393,-31.659777577514326,36.74730002880744,133.26385017341403
4.061249900000001,2.65801927057294,-7.46726704416686,-2.8066758150733127,-40.35932977049508,42.453578487026235,142.0207780399107
4.071249900000001,2.549947040050634,-7.655541640951354,-3.212345580951,-52.33453159611732,49.297986800525706,149.6302197089484
4.0812499,2.315925083546747,-7.882157372874864,-3.5805817756301908,-66.19519143050896,56.60574816440782,155.97111532592527
4.0912499,2.0753846596073102,-8.458042431912121,-3.9450558234573454,-80.37460427059764,63.35843746956901,161.76091487651865
4.1012499,2.0028667437841716,-9.19193057157908,-4.298895690136302,-94.69933903869256,70.19917900294473,167.6444103257418
4.111249900000001,2.0035544481473924,-9.845238266614304,-4.591115618375991,-109.1141983375688,77.9566249999729,173.81914344650903
4.1212499000000005,2.0435943127202556,-10.399537717276262,-4.8373246918907755,-124.67932708968812,85.148345745793,180.50411078825553
4.1312499,2.2331410871151305,-10.95807227563199,-5.255310938041763,-140.81879334394114,91.47921033781088,187.15921122878336
4.1412499,2.546371269413294,-11.552559181279863,-5.594562829157925,-158.71535870618322,97.76407032936993,193.72246490718413
4.151249900000001,2.924247253619701,-12.439462448700379,-5.5405187634116,-178.49521075214338,105.09662498769424,200.34129326563766
4.1612499000000005,3.1302094420538835,-13.546123370109264,-5.417548187984246,-193.11633729519147,111.36797148453743,205.1326368562791
4.1712499,3.308540978647361,-14.743522118828322,-5.111248734451898,-202.09769203355154,116.59973824077234,208.48498706125332
4.1812499,3.626112893831488,-16.008294326356484,-4.446415061187984,-205.55589598302532,121.953103892653,211.14546067399291
4.191249900000001,3.8717984166913157,-17.14160753668593,-3.750573816445219,-204.12366529491464,126.71972587635493,212.6676268240709
4.2012499000000005,4.010053436209839,-18.180319019095815,-3.106049844015868,-199.27881242624554,130.200200197964,212.38270119156473
4.2112499,4.243569961022086,-19.12859649060162,-2.7662553963115917,-191.52790335232777,132.47464740169062,209.18924839048995
4.2212499,4.77955900044133,-19.974883105262066,-2.8157157364771273,-183.2304023734876,132.4964061503148,202.65988561762947
4.231249900000001,5.67153089189061,-20.698001537896715,-2.837860145930774,-177.1199204056259,129.71178462892962,192.63256205966462
4.241249900000001,6.757163001276222,-21.093410126043043,-2.7610038047404855,-175.07985845177384,125.3553873574686,178.6971104622307
4.2512499,7.986098320702614,-21.14329831939245,-2.712934587036476,-178.2390913418856,118.81981088731467,161.46911684206714
4.2612499,9.653995196586514,-21.200154476644638,-2.594382247108186,-188.41424305529935,110.53038179738552,140.28690053565802
4.271249900000001,11.483720885375119,-21.516673449292227,-2.1229433082319846,-202.63638359631653,100.67539225473223,114.901302153142
4.281249900000001,13.191112208937723,-21.94210858875996,-1.4267531505744748,-216.68078771493293,89.45983789603645,84.8866767406271
4.2912499,14.823654736305992,-22.673492115354318,-0.2490297236498112,-228.90998405935326,77.95742697970907,49.38700568563885
4.3012499,16.340530406825476,-24.06877868341259,2.2449239149216735,-231.86378238394104,63.59917636568346,10.047982674803869
4.311249900000001,18.15626293742909,-25.91697384793005,5.684326462557975,-221.50068212272205,43.853766326073476,-32.05166220617691
4.321249900000001,20.560738337104276,-27.994586647075526,8.888439238558139,-200.3657305045022,14.240091277571937,-79.09974623203196
4.3312499,23.209214052231893,-29.94138893150419,12.116763538270968,-175.4902583075735,-28.917359179097588,-134.87875435808957
4.3412499,24.567400037188452,-31.006350346266196,15.742249733450256,-153.0999183963362,-81.173086349086,-199.8689407545952
4.351249900000001,23.15504156710736,-31.202313237293087,19.570200093987047,-148.224171798595,-139.47101278348075,-278.09817869794773
4.361249900000001,19.410008955824306,-31.380746252196456,24.34326359924996,-173.1531195658356,-198.91962220143648,-373.45262643672913
4.3712499000000005,14.93863254731685,-32.029867013333075,27.999897352736216,-206.86324382481354,-241.20975934268293,-459.2450673841311
4.3812499,10.091695064050699,-32.86000825049192,28.574774183550417,-231.37614092061494,-274.51307114352676,-500.13011739355585
4.3912499,3.9443599889943646,-33.57179142209654,27.024406797605728,-237.55353898333925,-310.5392103576261,-500.4462328796832
4.401249900000001,-3.5446463440011673,-33.53081696064528,24.3415824353744,-218.25849337404998,-349.781673335156,-499.49116750513446
4.4112499000000005,-11.187310907497713,-31.48975260013673,20.597155320175336,-188.92373303550505,-389.94692621023717,-500.5702740836523
4.4212499,-19.16281881087175,-26.376069327884583,16.263582880117816,-158.94437202150172,-427.2108219698534,-498.5905991768516
4.4312499,-27.560845396028146,-18.559321915968493,11.960267563363251,-137.09526393504476,-452.97866449995877,-503.07267111781334
4.441249900000001,-35.980758606416664,-10.97425366198879,6.348389969269411,-124.25231155496309,-463.58903095698423,-490.2967152004064
4.4512499000000005,-38.333639162605856,-3.637367491393546,-1.541360904264475,-119.00129933368838,-441.16414842586056,-412.37600649322945
4.4612499,-34.08234105316405,4.3409712821287645,-4.5254447603389725,-116.65987252724368,-369.4612763224975,-318.96543573380774
4.4712499,-32.36007290218076,9.919727875538934,-4.125915109843126,-104.54358025001717,-265.0649309482043,-243.27854591616182
4.481249900000001,-30.43328815373505,11.024523492822343,-6.048803004872788,-75.88199780836253,-150.8947837848386,-174.3072535638843
4.491249900000001,-25.855178554931822,10.766062790251471,-8.016354621193143,-27.59540229988714,-45.097502319897,-113.74700304254095
4.5012499,-21.931288791817405,8.016233389616561,-9.369480336168719,35.445477007301854,42.44962300191636,-57.006738040720634
4.5112499,-19.638983751966983,2.9533818426581075,-9.04319568641722,98.32240951980071,110.06752835440025,-0.7220217219691907
4.521249900000001,-19.02248885632824,-0.6917481624130777,-8.390613683121929,143.20910490509482,160.40664577822358,41.373328990551826
4.531249900000001,-19.455750591844666,-3.1654797471349636,-8.247422248932775,172.15045246581948,189.89067138746708,59.368353124135844
4.5412499,-19.217008435352735,-5.3421497295603535,-8.251281591727341,190.79592254463327,199.1915881327295,60.851825248388366
4.5512499,-17.287589898001887,-6.775867593517123,-9.019595933537051,200.92737656064241,194.65548903778745,56.21325098022286
4.561249900000001,-13.270127558469463,-6.978088779633191,-9.537193149388955,201.7760578933987,177.5582396779382,51.60734458541605
4.571249900000001,-7.241589409163267,-6.161213030066716,-8.685036092709584,190.24243291465166,153.7681922480132,53.1262391323857
4.5812499,-1.8078030364618685,-5.443215281447264,-7.869387908029344,171.98890705889897,137.52682474949555,59.7613981919893
4.5912499,2.2181285668320263,-5.436601766191944,-7.4608554101851166,152.00985307184618,128.8192177691742,66.01807794047977
4.601249900000001,4.878925136363148,-5.960380523012732,-6.868831149671828,132.22132754365023,123.61632700018659,68.38174062467432
4.611249900000001,5.531273088863852,-6.990713414461124,-6.43190726517091,116.0884379665744,120.7665170464485,65.55348064683237
4.6212499000000005,4.666743056711214,-8.962836212834723,-6.18641549411156,108.35653213826853,116.83871986091452,59.242599631841856
4.6312499,3.956271778112145,-11.253079062392437,-6.0425404599325105,110.70373105660049,111.17640807014001,52.1508969070121
4.6412499,4.273205456649524,-12.686337266291906,-6.051084073385809,119.28019000053534,105.0079879027956,44.685908538648135
4.651249900000001,4.8481122348567185,-13.035773995945824,-5.819516779863571,129.82132996970222,98.56003812878156,36.287195517041866
4.6612499000000005,5.118102322987,-12.466837967412689,-5.2311380531803024,138.77354729376725,93.02837478274108,27.102992162606522
4.6712499,5.183054894589581,-11.382681013168702,-4.5697584836610545,144.61865313881717,88.83524740955633,17.32694109377328
4.6812499,5.154648049809201,-10.248817705114067,-4.1549953593382085,145.25113782409403,85.95222543003243,7.710187091528325
4.691249900000001,5.0540194927311495,-9.08324953099305,-3.8658362104358597,138.70528195307733,84.3369539168293,-1.408209481012117
4.7012499000000005,4.996341673407195,-7.645427902646523,-3.6109744033745437,124.86793333441483,85.56200627369671,-10.682432421294047
4.7112499,5.025502325698568,-6.373306100426806,-3.4300788773780138,104.55760958359807,89.44605030094115,-20.4485114023785
4.7212499,5.198564104943554,-6.282934855960054,-3.0777441014138365,87.92629431150986,95.25813943067517,-29.031485646550124
4.731249900000001,5.282403329171507,-6.78633177576806,-2.71712692622614,78.05277846480296,102.5604621072626,-35.82758244767231
4.741249900000001,5.141343348274559,-6.515175830166569,-2.4212388895672077,64.77873116338353,110.38739720560295,-40.91563821841525
4.7512499,5.172066428498705,-6.890052342638488,-2.086118584430353,59.29748956073137,120.30917423582554,-44.81877511295711
4.7612499,5.341205116644945,-7.764593098469385,-1.7751768916233377,61.87757779425386,131.79596081422187,-48.00445004205396
4.771249900000001,5.51060551047432,-8.029021856816751,-1.3604570487611458,64.2794955188464,143.20411116880496,-50.084631850375615
4.781249900000001,6.202236120064296,-8.464225331421975,-1.2454399507979568,74.40602427598868,154.68490042078918,-51.80703539181004
4.7912499,6.773007375967588,-8.462831261672832,-1.6233705124921836,86.54439938207702,160.36616089140185,-53.73260063679516
4.8012499,7.027690453047555,-7.855846826955155,-1.9282589298880477,95.83460300448668,161.12142341363307,-56.07841875445151
4.811249900000001,7.361363842797046,-7.357175629460023,-1.8883674818970815,104.94755203833631,161.0105167143361,-58.985973913410795
4.821249900000001,7.568319020838778,-7.030582540444338,-1.549568825319674,113.67132404661814,160.59002766586357,-61.53666420884786
4.8312499,7.617529125116979,-6.7265766435353935,-1.2283059975510127,120.3137272576075,160.15450468283825,-63.10598184229662
4.8412499,7.790324127608657,-6.224844511819225,-1.27643863845226,121.76315765334316,159.75865174312506,-64.55429125094838
4.851249900000001,8.091806837169607,-5.657948379114557,-1.4685583747720306,118.22652123170438,157.99261422684216,-66.81328056883211
4.861249900000001,8.42849719168866,-5.303669750650659,-1.5692928220183269,112.53602511630224,154.12274080216162,-69.50778321347731
4.8712499000000005,8.777769868983302,-5.207792653928132,-1.6435975184133345,105.71593403568548,148.07024958198076,-71.53560933841312
4.8812499,9.146146458438194,-5.249915147755583,-1.6635830042522688,97.61343762858905,139.93697453145427,-72.14805309850128
4.8912499,9.530718883759533,-5.4983666705136125,-1.5945141222240162,90.5641696292115,130.2837494980295,-70.77039452883608
4.901249900000001,9.724678987189671,-5.805461955120866,-1.5896913856850845,84.51837337577386,119.16603073542217,-67.55764980782925
4.9112499000000005,9.71021123134841,-5.8649278078403295,-1.79589079294054,77.80087252424246,106.45455822655559,-62.95562998414536
4.9212499,9.785361845649577,-5.990640673785241,-2.1039787659265285,72.56497450045622,93.30138513486546,-57.042465668973044
4.9312499,9.768529067624145,-6.178414840212553,-2.1375795969325266,68.56742901886408,78.85319973894983,-50.05650836673617
4.941249900000001,9.582605423058247,-6.362354270529074,-1.9246427644522917,64.75185132425237,63.379576564201685,-42.3117710136922
4.9512499000000005,9.473602378287586,-6.737420418344925,-1.741709424417091,62.60831007815764,48.372175172848145,-34.073058941926874
4.9612499,9.39705842327658,-6.9372708997595085,-1.714917847807533,60.21138063472696,34.03749626122654,-25.858508053868842
4.9712499,9.148191932402423,-6.991257072618938,-1.6790517594310312,56.39366199982982,20.35632105497053,-18.860554003179416
4.981249900000001,8.832181007536846,-6.986775565865809,-1.4416514546000567,49.325846332401866,6.345758508499871,-13.852465269551825
4.991249900000001,8.740588048002728,-7.0340750993013526,-1.1399781182688422,38.38964203158867,-7.507405519888636,-11.205612799459974
5.0012499,8.801428924872992,-7.146270750723061,-0.9186132297808961,27.528206819090148,-17.299964349045784,-11.057522207686462
5.0112499,8.762861084353805,-7.098863791581482,-0.5756528029840537,16.33903012490716,-24.35692821755592,-12.704093987658513
5.021249900000001,8.650744128720586,-7.0743081894734114,-0.27822074549207904,5.541715917523382,-29.736963725877068,-15.926531410055945
5.031249900000001,8.67436577599653,-7.1149848309623716,-0.13969145908990668,-2.5833099735364984,-32.44668241242123,-19.984490832272506
5.0412499,8.76013095627285,-7.008457565380725,-0.026650130612353953,-7.944847232954418,-33.15036178152948,-24.17547845843505
5.0512499,8.900067845082367,-6.9524355023343665,0.034416929257352326,-11.143382430116619,-32.24605948395298,-27.85020471445995
5.061249900000001,9.091189700695704,-7.18932798036024,0.2095159837518413,-11.94035569383673,-29.37437471584082,-30.418813327136384
5.071249900000001,9.073234362056025,-7.313775804151141,0.5272538849382767,-11.384251251567884,-24.5554188392293,-32.24106457513421
5.0812499,8.895564768524453,-7.207420489356194,0.7061690920829496,-9.549359752962353,-18.639420729167036,-34.55615974794613
5.0912499,8.59106667341928,-7.227464783407842,0.6887710223558058,-6.528671497393006,-12.40689737268061,-37.99333861338207
5.101249900000001,8.088085588920505,-7.286723575060212,0.5939258094208161,-2.9623018687109886,-6.129048678652658,-41.77782109220539
5.111249900000001,7.572405963297233,-6.9332064082353435,0.5402393656111519,0.9026167049825915,-0.707807512128926,-46.680933587475344
5.1212499000000005,7.162015130214107,-6.346499882523919,0.5023844361133865,4.533646639205077,3.346648599003766,-53.60642583541949
5.1312499,6.788752484617993,-6.399861846470365,0.3835774316483818,9.861636890875358,6.172380384261409,-60.34482531682026
5.1412499,6.613426413537824,-6.70009579413967,0.34440609411248724,16.92737531072698,9.253135947569431,-64.23227593606165
5.151249900000001,6.680152122613144,-6.541662670500695,0.370393197042904,23.575056427104418,13.765749952693579,-65.16177601529017
5.1612499000000005,6.73433614370374,-5.986832363058165,0.40297619358904774,28.17174333545461,19.1468649401088,-64.22594620857947
5.1712499,6.650689247134919,-5.168040459058387,0.5859235127890149,29.808178784993306,23.670147575646887,-62.79324382834095
5.1812499,6.551177439386572,-4.45010297508321,0.9786852171593275,28.885821412885456,26.401696263341545,-61.5691127805549
5.191249900000001,6.544720316421439,-3.987415382244683,1.3190036008732147,26.119981917246584,29.69640204283757,-59.971762645422935
5.2012499000000005,6.526209773431747,-3.6556340362322897,1.4445852182296441,21.71265201608779,33.41696548317628,-57.612150391913254
5.2112499,6.498667401604442,-3.422177506983623,1.525535511146068,17.1197620953284,34.77568606541998,-54.95494953750664
5.2212499,6.62153504400696,-3.1971338459800234,1.705608851028434,12.154086648887176,34.5234997635622,-51.77491028937089
5.231249900000001,6.783537214279209,-3.1452576860539136,1.8825698860535138,6.970986558144818,34.06782225833252,-47.75338525263746
5.241249900000001,6.929078817328033,-3.2606911682932935,1.928231659881982,2.4308978115746944,33.32731731913147,-42.2396546586972
5.2512499,7.2469973296222046,-3.403834611692339,1.9237309477206934,-1.2297097069209626,32.114373035154976,-35.45055388724097
5.2612499,7.626095663047995,-3.567670702773966,1.9949319552327753,-3.1523936461967086,30.327201656540684,-27.775125734537948
5.271249900000001,7.885539234131407,-3.840197518026423,2.0407030377402555,-2.739923776865761,28.119047077421417,-19.30028323602764
5.281249900000001,8.08155061561883,-4.089440167009789,1.970771405434619,-0.6037166295399261,25.888085210652196,-10.749104848892065
5.2912499,8.205848552809297,-4.194202869269995,1.7937506104692507,2.727866651983013,22.899471975736176,-3.2965254258548677
5.3012499,8.280015093863836,-4.369976563904747,1.653861270159933,7.2862028433461346,18.64356168232612,3.0440749245369005
5.311249900000001,8.480995422939307,-4.5708338919758,1.5992939697866535,12.328912253676066,14.130195926019729,8.418565351792793
5.321249900000001,8.810460673654362,-4.635954607590446,1.5889388535230065,16.68740052209407,10.324954199148642,12.324921256548201
5.3312499,9.104683369538682,-4.575997133201319,1.6014792194824574,19.977069927179762,7.069657856354776,14.49670455902713
5.3412499,9.323270305355182,-4.511766017053893,1.6372768177395238,21.82445443308681,4.198194177871641,15.416041255434433
5.351249900000001,9.483363094763446,-4.551537257755111,1.7449919864006393,22.17042707796441,2.120331422472299,15.35310104061076
5.361249900000001,9.550017287483756,-4.631425708576844,1.8445593506500084,22.149910338280222,1.0773258990913384,14.404934818484
5.3712499000000005,9.553844104212493,-4.655186595347213,1.8267127644990284,21.294666275777747,0.10287852633386729,12.815422611495512
5.3812499,9.501756528797797,-4.697292250535395,1.8566404979569386,19.241551026711612,-0.9346070012094589,10.701457825137913
5.3912499,9.36632952011554,-4.749363385799947,1.9610331731664974,16.569203169893793,-1.4664780688530101,7.8475236136517115
5.401249900000001,9.194909222569363,-4.791159149408429,1.9964890371109902,13.206711711761738,-1.7894723915657222,4.187942167457996
5.4112499000000005,9.139383432232139,-4.884419355397506,2.072171183439257,9.434551981403525,-1.9987015279801508,0.6320410976953007
5.4212499,9.164148281131844,-5.008016854013838,2.232315297998812,6.510168320337007,-1.9216579029337275,-2.2797981349186904
5.4312499,9.060686025457958,-5.126315119141085,2.3074787946670425,4.602275076997945,-1.9618748791711154,-4.841810522856433
5.441249900000001,8.875598497064546,-5.255160903028897,2.2575182980583772,3.7815338409375636,-2.5703367302175737,-6.561613550392019
5.4512499000000005,8.699552938572438,-5.34025184493748,2.1614134163884215,3.868916839214276,-3.4077316478473656,-7.543985393526846
5.4612499,8.51735888876846,-5.322918210579048,2.055487047836229,3.9632007630982815,-4.325486689752015,-8.182918453910952
5.4712499,8.36403419790765,-5.261953605393493,1.9485557996740694,4.211182274698215,-5.561562248200615,-8.220450244848468
5.481249900000001,8.327972734760293,-5.179058586044031,1.89463333246309,4.311460877707286,-6.650457871774152,-7.824556972090256
5.491249900000001,8.354664019292041,-5.063326569432291,1.8967344062078637,4.250052808220199,-7.219773063520522,-7.280641874246551
5.5012499,8.357724051197701,-4.9199876683151915,1.8795166940430355,4.596251734871393,-7.413720933647893,-6.82519484718084
5.5112499,8.366738812938335,-4.759571716443325,1.8235246895443413,4.724385328281198,-7.108197492431856,-6.372783571482155
5.521249900000001,8.33862931605418,-4.718195708161494,1.7787481110551024,4.758735026931074,-6.853794570002834,-5.756106043421124
5.531249900000001,8.29981971455127,-4.673991567928529,1.7613057545921695,4.641717081212008,-6.60989376854865,-4.9666508286122095
5.5412499,8.26057370089592,-4.618346506936878,1.6961600038798512,3.7633338849492,-6.310334504051867,-3.9893774903106456
5.5512499,8.187459919618213,-4.634212165963319,1.5711017183041376,2.5001923785493942,-6.154701924917565,-2.9174214607301767
5.561249900000001,8.126110544824302,-4.660603614968525,1.4398607177925191,1.1771963348006738,-6.138287706127245,-2.197382626689812
5.571249900000001,8.1048924953207,-4.695956983060669,1.3779367062568477,-0.1159333006488282,-6.392298814211213,-1.5688964103260414
5.5812499,8.128258862324804,-4.739311791328529,1.4661352611410758,-1.333015214401177,-6.642446198524167,-0.8713740071499166
5.5912499,8.123562375562324,-4.794149769522881,1.522723425193323,-2.077399898304316,-6.474096796691201,-0.355233010913358
5.601249900000001,8.051784711238824,-4.878726795948248,1.4283753795748992,-2.4075478735261555,-6.133993942928636,0.0719950477767224
5.611249900000001,8.007322239580693,-5.016739188040147,1.3114822189199409,-2.1773428145581484,-5.709712701533448,0.43660003856748025
5.6212499000000005,7.989163755577503,-5.163713529760396,1.2337403665945494,-0.8746906819004552,-5.075904405531943,1.0186157955548734
5.6312499,7.9895504624948455,-5.224339519983337,1.2268396485312871,0.9605165283572257,-4.146739033262058,1.9160280193463017
5.6412499,8.00356617349118,-5.197905578233498,1.250054641304762,2.9019866415568214,-2.967190540066714,2.8910413798844043
5.651249900000001,7.990549762422247,-5.142098570583558,1.2652401484696587,4.701045909031466,-1.5987612578234203,3.7613105873458688
5.6612499000000005,7.930968168786432,-5.07297911753719,1.272214202182896,5.450308254213025,-0.38631660246855026,4.984862989251014
5.6712499,7.851296726807261,-5.029298488655163,1.2082515727762073,5.385152232492417,0.9405078559664822,6.606038451926847
5.6812499,7.685538478282128,-4.974702589709206,1.100268469141602,4.45668879944676,2.021209292696863,8.295503083246478
5.691249900000001,7.473535379773712,-4.895674473703912,1.1084163088684809,2.44820099544579,2.5028070875606123,9.8740531871897
5.7012499000000005,7.283067618049489,-4.953039128855498,1.132443930044292,0.7933643263679332,3.0313017935240354,11.885345622693311
5.7112499,6.994404422005768,-5.0317431033814195,1.0376922750605828,-1.2227053347422592,3.03861519010979,14.848436481544077
5.7212499,6.726331025202002,-5.038563632321665,0.9203243368509012,-3.5789628432647147,2.5626586732706502,18.900973132734066
5.731249900000001,6.569897249455562,-5.012044574349913,0.868399243340988,-5.738494609135407,2.2964779344982182,23.94039723557487
5.741249900000001,6.3314917035729135,-4.8828796900191795,0.7865100852783283,-8.901372809027736,1.81685557739872,29.667457697756625
5.7512499,6.0616188341470485,-4.733463017472585,0.6550651486241315,-12.641095149908717,1.56240400032703,35.959126678489554
5.7612499,5.827564764158133,-4.658283666072359,0.5816507132323797,-16.338610483365105,1.7915747938761941,42.95726954477436
5.771249900000001,5.515617685988148,-4.576077517072212,0.5061308599922738,-20.138286685586795,2.2689594422207526,50.665732952796105
5.781249900000001,5.143925105215665,-4.519364451179055,0.36445283720039456,-23.32047535334865,3.0659309136300044,58.90162173600998
5.7912499,4.772683806382547,-4.620579065064445,0.21229652787715858,-25.18106113362621,3.6861807043708135,67.76118733963283
5.8012499,4.521474156742934,-4.728736818299914,0.17176555287306755,-25.878079753803654,4.991033437015247,77.20989997609422
5.811249900000001,4.344381395272186,-4.723176192118689,0.1521140771246312,-26.124136590098217,7.694055167697304,86.73550266743268
5.821249900000001,4.186922824124179,-4.711207520999724,-0.02373737472004949,-26.863947344231192,11.463811196060938,97.50131758096803
5.8312499,4.256361565136006,-4.615370935178446,-0.30890529673301204,-29.84840110594078,16.780593167592176,108.49040482339683
5.8412499,4.302535726285565,-4.425539664363728,-0.5811955007839208,-35.2909594423323,23.063278053250983,117.29376418873332
5.851249900000001,4.135304917493887,-4.309670309745126,-0.8514151047523263,-42.73190763024142,30.150031166187084,125.16520065017384
5.861249900000001,4.020294145233191,-4.344874679090444,-0.942489223806638,-51.275989828149314,38.11534586426005,132.2276553056809
5.8712499000000005,3.9371429401448563,-4.634782644390068,-1.016166363651626,-59.20947126451349,46.71691834819217,138.84333436837701
5.8812499,3.7340865566124655,-5.218010623794859,-1.221285623314097,-65.96917730370744,55.11024410226772,146.1420495107343
5.8912499,3.601940094967961,-5.824063714887847,-1.3839024292163205,-72.20330028995912,63.91488810458399,154.22927959078118
5.901249900000001,3.4562271103644795,-6.285290991778636,-1.5158706203386654,-78.38961955930066,72.9812909623817,162.08496397918134
5.9112499000000005,3.2383959624474956,-6.843734434874649,-1.5577439307642609,-83.94698066153856,81.57697998383719,169.0283362902055
5.9212499,3.054761062654359,-7.5438351292763,-1.515049151809273,-87.59113285817173,89.69980277040827,175.83965044303284
5.9312499,2.8603976940235074,-8.25791300083349,-1.5426440842237743,-89.77452298800421,96.86839854612309,182.5821576109721
5.941249900000001,2.7670879585233026,-8.934416551553179,-1.4737819065467805,-91.32401667669076,103.37606282168221,188.53081836237413
5.9512499000000005,2.7569809537084193,-9.459368741463685,-1.3957926844089237,-92.61006859894417,109.21016902280029,193.47309655717584
5.9612499,2.7185781751199203,-9.971826855678,-1.455149681101259,-94.21601009300805,113.75273801899452,197.58428838066993
5.9712499,2.793093855834328,-10.587035935910219,-1.4771567942397659,-96.17260116700308,116.76935114476495,201.2741935603059
5.981249900000001,2.9748879186092725,-11.227082649791967,-1.6264561444317884,-98.51747964340976,118.59043978704942,204.20915846951283
5.991249900000001,3.1762509192277646,-11.89261272159077,-1.6928968068913057,-101.60493357466171,119.12391750542066,206.10242270701616
6.0012499,3.53026172116735,-12.6657874779475,-1.4736753822852393,-105.30162473894437,119.20898845962445,206.86356145301198
6.0112499,3.945128276517142,-13.6592479369863,-1.2692296828556235,-109.17032657192371,118.79460889529143,206.13741909488806
6.021249900000001,4.38263287896643,-14.470287395211272,-1.1320632608648327,-114.08607986226266,117.53614579655277,203.3301228302122
6.031249900000001,4.978187457720748,-15.042010295714771,-1.170576689794178,-123.52948870592706,115.18038753211822,197.2256757983032
6.0412499,5.758095973803213,-15.90299305596958,-1.1976962335173513,-136.8082358127003,111.3120915804518,188.13416687955757
6.0512499,6.575507964382508,-17.07839334725595,-0.8525173499761352,-148.90054702423095,106.13739519501009,177.251919949708
6.061249900000001,7.2666434844787515,-18.384025766770595,-0.46866057649895876,-159.23657824204648,99.91518907523275,162.9700322636112
6.071249900000001,7.900289596446357,-19.688613724420023,-0.3086717194586101,-167.24283659223596,93.64020428695292,144.95843542277893
6.0812499,8.671446966112182,-20.872122356989955,-0.2327716476020977,-172.21137921538508,87.59440641921664,123.93626712930143
6.0912499,9.475744351984028,-21.872704967911687,0.027679925229814578,-173.4856281552351,80.32395714362936,100.67645732425007
6.101249900000001,10.177977426386958,-22.604826923760022,0.4681631235078197,-171.97993952245173,71.7033521256039,76.45767927567515
6.111249900000001,10.831132705883684,-22.77963679658133,0.763030084140218,-169.47242050124447,61.915513391350025,51.68402381348515
6.1212499000000005,11.581811364676769,-22.448940194062324,0.9626496231327707,-165.49219441868468,47.761060207561925,26.26927064697571
6.1312499,12.838829279231385,-21.885334424005713,1.1460264303050332,-162.1520006507078,26.545692997962686,1.6944575070186998
6.141249900000001,14.850846970776276,-21.116088292749694,1.517260861508531,-161.56571711794186,-2.937429291388265,-22.881393165796045
6.151249900000001,17.105524568045457,-20.24236686181629,2.6405765158951566,-162.56475380264447,-41.1259112223657,-48.786165936863966
6.1612499000000005,19.06995166133066,-19.541412762447884,4.556849404987981,-168.99177234090808,-87.57094696096704,-74.82216446640967
6.1712499,20.8164789376752,-19.03655272981362,6.997945864604134,-188.35820115505504,-137.805821323295,-100.71662389625357
6.1812499,22.641316521754483,-18.129771998634997,9.421465961718692,-235.032944992832,-182.04403782256676,-128.29946733541027
6.191249900000001,24.378085191333962,-17.82179518438739,12.000060024300389,-315.9772575625107,-212.05843698605776,-162.70034686834776
6.2012499000000005,25.559347480899508,-20.56553903343185,15.576671121388637,-408.3930356624422,-228.95636076893658,-211.4253160726069
6.2112499,25.169400519429807,-27.190839079248,19.26982873085353,-475.7416279176591,-239.4124081638699,-278.83487118102147
6.2212499,21.021351413425645,-35.79262749500544,21.490997321783784,-497.36880224175826,-253.85113519120017,-370.24913162144225
6.231249900000001,13.00230086150935,-44.11084632412166,21.654634850950465,-455.97924755754184,-282.40323301048323,-466.04455678912524
6.241249900000001,2.1880244894155227,-48.4083206793403,20.01013266575918,-345.25743702345585,-326.75097818548585,-503.4099582180468
6.2512499,-8.419623866654263,-44.15446135089504,17.20135692470895,-239.58656437968597,-371.4567753040663,-499.69977691896196
6.2612499,-16.80923604414021,-32.54679642521921,13.684631555504712,-190.54228789404394,-406.6455328280282,-499.00618507477736
6.271249900000001,-23.68686213779764,-17.931405025970097,9.961179396045736,-187.53283986537954,-428.0178253799028,-500.9940087188977
6.281249900000001,-29.68466879898326,-6.159856755954767,6.1873944300172035,-213.3326231853106,-423.5096234400552,-499.8986239709567
6.2912499,-31.689939420427923,0.5994655878201394,1.1969427129037022,-231.08658269037542,-380.8652012394513,-453.85746624168206
6.3012499,-28.224457741960748,6.128378364744912,-0.7325753827267518,-233.2947799897595,-303.20485888611654,-370.6739698473197
6.311249900000001,-26.524270407241797,10.169240681701238,1.4893460053463932,-216.59596586199564,-207.4092209009062,-287.871931030145
6.321249900000001,-26.94017104477575,10.873202303428327,1.475474102037566,-173.18728278622993,-110.1981849880056,-209.11534433640057
6.3312499,-24.745131806936747,9.063758463184755,0.09634353559203322,-104.63709849615884,-25.791321222722367,-136.10439154308943
6.3412499,-22.05083368609891,4.851431418309653,-1.1456872289929647,-22.388176420130982,41.670674728617335,-69.3368082809262
6.351249900000001,-21.146468507018,0.046832812861862756,-2.3034073035887905,59.050086300811735,90.55381114783621,-15.371684100205004
6.361249900000001,-20.476652521039956,-3.151101194565453,-3.221044626543527,125.07816413965239,123.1280337718839,17.015722796290156
6.3712499000000005,-18.944058035719916,-5.161482004495686,-4.082952800102161,171.57154058096205,143.82985610089176,28.233628403750245
6.3812499,-16.754335893589598,-6.008430056247903,-4.559262817376459,196.90498000378523,153.03371137701458,26.722849553535433
6.391249900000001,-13.848262677382056,-5.823113399025657,-4.657379807931849,200.94519335241569,151.25123657279647,21.943369023866108
6.401249900000001,-10.563844087061502,-5.466317547294844,-4.917792408832292,193.88724343088182,140.98466614847732,18.622880016766413
6.4112499000000005,-7.542430715132071,-4.929481682153779,-5.678241879440762,183.82618839550116,125.37553404974184,18.738237940834523
6.4212499,-4.472964642373884,-4.172474665905783,-6.968553011224296,170.77361095875364,108.01280360479875,23.177933348171905
6.4312499,-1.163842547925433,-3.7452952305637663,-8.205013208759775,157.26201587330974,92.1750670648012,29.907391677480966
6.441249900000001,1.6634179301912393,-3.739215533013244,-8.91024782904156,144.8241298055054,80.25375854145551,35.92508297583915
6.4512499000000005,3.386278017862278,-4.239802570096506,-9.299594702583923,131.57116527031155,71.70416668039019,40.57423652085507
6.4612499,4.09663770979294,-5.0883039167301725,-9.73084263329652,119.98733287911267,67.06237817186901,43.145151374153784
6.4712499,4.584989927859206,-5.890971975637797,-9.808728335637305,110.5300081120552,66.55986354439328,43.03917112436193
6.481249900000001,5.007254237397776,-6.539352647823163,-9.197472278620141,101.91885606260176,68.91439417080623,40.18864914253208
6.491249900000001,4.98859151511916,-7.235002130825602,-8.33691813480932,95.64780137557175,73.36206317622784,34.922280930424186
6.5012499,4.735153219817135,-8.105896596098415,-7.659176226351736,93.74529461513045,79.2811367148549,28.208835945280796
6.5112499,4.586402614869525,-8.757888751988647,-7.223231988227141,95.87223396659704,86.25147874856646,20.780159316138246
6.521249900000001,4.352380574761456,-9.03313885443193,-7.059083356791869,99.95189539254311,92.35323392796205,13.130071850918657
6.531249900000001,4.0736976365679025,-9.07025405964985,-7.1535267320003255,104.6314181863535,96.52456958885749,5.843559358355863
6.5412499,4.024706044916262,-8.884986015640273,-7.205556963710154,108.85790218408856,99.36594504747512,-0.9000725981130067
6.5512499,4.049244491579031,-8.54527785603552,-6.920158082890143,111.48271586774801,101.5992799122395,-7.419728297543255
6.561249900000001,3.9547828448351994,-8.309197520587974,-6.32306661417743,112.5447677046592,103.83769930364599,-13.972941158898205
6.571249900000001,3.759243113031788,-8.09014289799359,-5.762609921002405,113.03063876854092,107.40588493299676,-20.68387190895111
6.5812499,3.497376751295223,-7.639802751580821,-5.341516838020666,110.65053711040598,112.9091588731807,-27.55924280044666
6.5912499,3.5204158914048636,-7.447359679952158,-5.013793691560742,108.2205411245035,120.08586346028756,-34.383769481530365
6.601249900000001,3.8856482320911034,-7.315124379364115,-4.892161903157399,105.14805955371088,128.88781810898533,-41.33186178445846
6.611249900000001,4.1709457712653215,-6.774219864304195,-4.824077224870076,96.69012644698023,137.85747651194737,-48.72983681426852
6.6212499000000005,4.513820004757273,-6.510891202113747,-4.672001548190837,88.37190377757884,147.4454869216402,-56.06160461236439
6.6312499,5.072481384597361,-6.579451920795219,-4.476347535685822,83.37789472640988,157.77592544974004,-62.47268180738606
6.641249900000001,5.548110104615239,-6.7284662164455735,-4.231424980290696,79.85130805482738,166.8806559642524,-66.95201209939445
6.651249900000001,5.857736776662642,-6.989474830041927,-3.97811359944638,78.90933619427747,175.30478292413335,-69.26719867157307
6.6612499000000005,6.104769998462537,-7.307351998135959,-3.8704990071848613,83.47082964918485,183.96069843655258,-69.91711081253683
6.6712499,6.342156836266999,-7.423371385367474,-3.772601842536167,91.3822547826163,190.35449172809155,-69.56749377946838
6.6812499,6.492404968311812,-7.3677966542299105,-3.6287169570700115,100.19242438630464,193.70590155651283,-69.03117865353897
6.691249900000001,6.633758163231801,-7.268669372002694,-3.4796260796136753,109.27839734270545,195.31049923955698,-68.94192051124236
6.7012499000000005,6.9257757444832935,-7.04539042698678,-3.1924865596802983,116.65498642443156,195.02901732525012,-69.4051887303535
6.7112499,7.355908962849605,-6.859892844603746,-2.7994185147907453,122.81581522982538,193.17239826506858,-69.94697361455557
6.7212499,7.794463269776832,-6.6228125281574215,-2.3839889694938265,127.21896046473991,189.99898032242274,-69.8848722445726
6.731249900000001,7.56476611712702,-5.453337493491076,-1.9840527056103188,119.21165775798555,182.87455615133018,-71.04184000545875
6.741249900000001,7.2499964759900255,-3.5944552402369516,-1.6827371469432226,95.12396120250936,172.8677390668479,-73.62711270572176
6.7512499,9.082787557088626,-5.65694458654956,-1.2893397126445003,99.8584232415929,173.4093392433301,-70.8997995513942
6.7612499,9.838431159922967,-8.634983838328957,-1.1125585256009005,121.36014853382888,173.6859579035805,-61.880855947714544
6.771249900000001,7.633030663135858,-6.878595059931943,-1.3776016709987697,113.22935239643628,157.75985311140707,-49.88126095027248
6.781249900000001,7.360292237016405,-5.965280997657757,-1.4899463772501325,109.76381889136735,141.5897512927257,-40.82389383197991
6.7912499,8.295610534970258,-6.3065438126955975,-1.4620356872964995,118.57971552312179,127.07590386288146,-36.97414797464783
6.8012499,8.36261540465386,-5.517863757052589,-1.4007033823984578,120.61035421688689,108.52861902126222,-33.19295473420867
6.811249900000001,8.5706716155014,-5.268724305578142,-1.1027816718857555,119.16339424837511,89.70770442346938,-27.31800972481017
6.821249900000001,9.048695088208154,-5.408599794876733,-0.8777978909590768,116.99343311625074,72.81530451340363,-20.114621234603245
6.8312499,9.526404575408383,-5.086362578828575,-0.7275082926910097,109.78597026926455,57.529420179534775,-12.790642931198931
6.8412499,9.954483030625498,-4.924744578678289,-0.48261866154944266,99.63893969984927,43.68062428258985,-6.2329140780257575
6.851249900000001,10.259256302073377,-5.066966924726386,-0.26778933464238397,88.95670143582903,32.74382101652853,-1.187626124312946
6.861249900000001,9.985484015912867,-4.654807581923681,-0.008807625995407383,72.41634666882261,21.80820380942144,1.8626886413226464
6.8712499000000005,9.744786641290185,-4.47124845239124,0.33642900955337546,52.7394792547667,11.92780530752421,2.2574475256557918
6.8812499,9.59935577017553,-4.522736576735811,0.680824307415208,33.7877122609218,6.034507246849957,-0.02746140481347583
6.891249900000001,9.39199072728051,-4.512568063380237,1.1035452686328877,15.90944615593005,3.4824545228134096,-4.04402724746562
6.901249900000001,9.243040842323511,-4.750998076190436,1.5807786025128032,-0.009586091642354397,3.0255424618550215,-9.166542065004018
6.9112499000000005,8.97387712096747,-5.268078125226008,2.126864052576756,-12.08171431506103,3.4473535865009093,-14.181640583726834
6.9212499,8.635329614133717,-5.853860976598108,2.564884033608431,-18.599424082767722,5.015678635286061,-18.851690555187947
6.9312499,8.199381657650848,-6.370446304471942,2.8182433404569043,-18.68243366495248,6.664778551166256,-22.719884920646997
6.941249900000001,7.722577435715681,-6.808780412159346,2.8131978021850235,-13.304062169686958,7.25123357773415,-26.172122929267545
6.9512499000000005,7.332093016740846,-6.937083047025777,2.573271958498333,-5.70082967882535,7.188401873343189,-30.178364565749234
6.9612499,7.245474977862738,-6.785086631925771,2.3267642645319926,2.4019777289915587,7.280737505251026,-34.294233842442885
6.9712499,7.437271005531981,-6.533615966777597,2.0987726504943662,10.896623413499208,7.048673311721257,-37.721842372106856
6.981249900000001,7.702163181189766,-6.197386885872207,2.0069116812253522,18.288306536402036,6.477876126011064,-39.86603037176022
6.991249900000001,7.964593675063351,-5.843327748811191,2.0538315877343614,24.06400844103644,6.563537815894203,-40.39768818700039
7.0012499,8.138232811363894,-5.5180960681367335,2.0297056574227716,28.356429901050287,7.423082804273255,-39.50022538565838
7.0112499,8.174298916893571,-5.219284193860383,1.8133294118398797,30.276954926852394,8.336309813068691,-36.95649261743036
7.021249900000001,8.124203980962163,-5.027188912272686,1.4870525009185565,29.239443037109062,8.79111377085417,-32.375003639533894
7.031249900000001,8.116430976359467,-4.812861147625318,1.179519661238355,25.980955154796607,8.911138819459506,-26.72345306032986
7.0412499,8.252434942440825,-4.392858377085453,0.938100869334549,20.417165195246987,8.69460382140657,-21.21495961501899
7.0512499,8.375909192568017,-3.959662859751985,0.729802285746508,12.940829163574787,7.978248457866836,-15.98572518377312
7.061249900000001,8.530507424679165,-3.703157341898164,0.5771833381319571,5.053928023052724,7.086563643439096,-11.008676848349532
7.071249900000001,8.76890739615754,-3.719717515312466,0.6278947731290466,-2.0776604912580288,5.728921000570787,-6.0801716770159455
7.0812499,9.028813302105673,-3.744876269449906,0.9546287882965061,-10.004045852732167,3.2752596567776977,-0.7471577585783419
7.0912499,9.237650991607323,-3.866847699612869,1.3045614764791775,-16.484002403694163,0.5928085862435557,3.445981368045685
7.101249900000001,9.177950500753395,-4.3028418170652465,1.6833313599096187,-18.899488177603992,-2.302610394324639,5.539429381846183
7.111249900000001,9.11137543189724,-4.482935749493616,2.109035354279666,-20.19634793022575,-4.57361244079765,5.7967794695251005
7.1212499000000005,9.038370288150837,-4.560965719224467,2.2958948070446774,-20.468480097397368,-5.539234056283384,4.456302359088315
7.1312499,8.749544478399184,-5.005554247144067,2.426560561661318,-17.28869309096021,-6.957772993135736,1.940640055216717
7.141249900000001,8.58047662208406,-5.484075663756467,2.692574395384027,-10.804462417054449,-7.868286902520857,-1.3738248783274916
7.151249900000001,8.432016267412067,-5.68786209022008,2.8820596832253904,-2.1331605162274982,-7.464575769250791,-5.348796421678009
7.1612499000000005,8.106205586990248,-5.696954793665522,3.0428941245181957,7.497909626373065,-7.508533812819572,-10.173377984677092
7.1712499,7.874800578469469,-5.677767405268558,3.25350264786802,16.461584441323115,-7.770376790896745,-14.588326238654744
7.1812499,7.714620367114638,-5.652969151082954,3.325670138314188,23.966095143746635,-7.644101259148282,-17.63075733314835
7.191249900000001,7.563827840770595,-5.486711946647424,3.186125246122314,29.516456244079336,-7.1888041372551,-20.103010715525237
7.2012499000000005,7.54371595692565,-5.232988458585504,2.9885449509578765,32.96025352480132,-6.526831480577452,-22.175293580470147
7.2112499,7.549383754571445,-5.091404714475405,2.815284214977647,34.998577969419856,-5.782848875954037,-23.226390285372005
7.2212499,7.519446552769568,-5.016449293294163,2.5999223480508387,35.0741668206813,-4.8178260587649255,-23.0122286221234
7.231249900000001,7.478448734450797,-4.890416424555907,2.356007023084231,33.57176120238078,-4.080406878602694,-21.542837439837264
7.241249900000001,7.506357907044456,-4.742374405129712,2.2041621483908616,31.34496031826304,-3.9445932511629045,-19.296346885519846
7.2512499,7.586460189636102,-4.581350580533058,2.1270588477896633,28.605044414476662,-4.311122074545839,-16.476449308463877
7.2612499,7.618900358502411,-4.533286723198319,1.9873343451431686,25.236403712641017,-5.1350256241537355,-13.579390321811472
7.271249900000001,7.71351086528695,-4.676044636650359,1.7785626330366426,21.691581772145156,-5.684763217726195,-10.55627634105219
7.281249900000001,7.862791766527162,-4.796637909440719,1.4927765919625495,17.91350763537096,-6.1193496236948866,-7.187018117455621
7.2912499,8.045487772327546,-4.821150500067552,1.3037299312601336,13.446361724821077,-6.859691617025158,-3.7094251896278196
7.3012499,8.278394586966247,-4.831405308817222,1.2820592919151212,9.581865506824828,-7.181905452464884,-1.2836799228691609
7.311249900000001,8.470836241896194,-4.821522013313979,1.2288156185977417,5.862281908870024,-7.167224600382119,0.2935131590404331
7.321249900000001,8.62266890972816,-4.9382185988593905,1.1791632283511446,2.3039718731369287,-6.82903271543458,1.552500591265681
7.3312499,8.697434499267517,-5.131393093879219,1.2210832619385539,-0.450107482245176,-6.3369109732104,2.4084482905136086
7.3412499,8.63010388574416,-5.2546086379694055,1.2928580832998855,-2.1687170979126464,-5.906397770163868,2.8167601246038663
7.351249900000001,8.546912744054126,-5.376015907755567,1.3685638653525685,-2.813244107527559,-5.393250704961923,2.423362981026385
7.361249900000001,8.549561216735544,-5.5223028305727375,1.4362439985074336,-2.16813842098463,-4.681380403359818,1.5459513616942773
7.3712499,8.508279646486498,-5.61508913871289,1.5408590708831342,-0.22391661881210556,-4.112801873021049,0.40302196759061665
7.3812499,8.442697182700636,-5.659896518573664,1.7570313818674912,2.6676210549248354,-3.4656354904252065,-0.9263758831813824
7.391249900000001,8.443388758372988,-5.6529351508826124,1.9387471135129568,5.720215867974318,-1.7973011617787915,-2.1062351653619946
7.401249900000001,8.35140022330311,-5.515984985838582,1.961756852028558,7.482267468772485,-0.1475683845835627,-3.039875188177492
7.4112499,8.226093857444475,-5.352427634202237,1.9610130314214311,8.29023712465348,0.9118445703941717,-3.8933006910541597
7.4212499,8.18190472342606,-5.135856702429194,1.9979412628537254,7.504354405971481,1.7149371467064007,-4.649418809547141
7.4312499,8.20315915110696,-4.943194708134329,2.0364725679685334,5.6907686139185625,2.422971287495737,-5.15633083611571
7.441249900000001,8.160410381507996,-4.796612280037164,2.063122830154782,3.6569916258140407,2.8159355567384248,-5.398652870755935
7.4512499,8.081581789776315,-4.702453438157528,2.058026502264705,2.031186372256388,3.199495643716825,-5.1441643958029255
7.4612499,8.07111941252761,-4.706034635767807,2.0844738506616305,1.2027627192724677,3.3929568673654944,-4.2426554456856085
7.4712499,8.069305286184125,-4.759881901667061,2.1092810056831515,1.291442569942554,3.518898984232986,-2.5245576679896886
7.481249900000001,7.973199380213344,-4.782841033720643,2.122419026285936,2.052406565880872,3.537244815138211,-0.37001484367377063
7.491249900000001,7.8491243927309275,-4.822063424378992,2.0714635407975215,2.9086977772637663,3.6314114041776766,2.3690449680295282
7.5012499,7.721866461758022,-4.884788471208055,1.9810980046033937,3.100376628586031,3.708046350359672,5.616567215887105
7.5112499,7.611384222839592,-4.910879313988916,1.9695931528104997,2.6077775863113044,3.479742167374623,8.282767488733377
7.521249900000001,7.49360041375287,-4.917029806963084,1.941048775399046,1.514624855551287,3.3024206326618093,10.467232300078104
7.531249900000001,7.3632408461449135,-4.941867322005876,1.8913717177831013,0.10175312324779826,3.157530625958008,12.309920053213556
7.5412499,7.319661648339405,-4.984828881969384,1.8596424064432224,-1.6865114955689269,2.9100215052597838,14.210073575468156
7.5512499,7.402747617700621,-5.040824061589208,1.815678541654418,-3.4598527834411055,3.1007826709986612,15.723584873782583
7.561249900000001,7.507647731825919,-5.092895656327606,1.769177789478472,-5.412061606870899,3.942312659105207,16.808872108920394
7.571249900000001,7.582556265564142,-5.1466466933523725,1.7175151480123934,-7.6885239130719905,5.39546972730566,17.836816092305778
7.5812499,7.710346195861018,-5.105086460395836,1.6935920278797987,-10.438312032713903,7.346150827318668,18.48255863208597
7.5912499,7.849268620452435,-5.075295712602702,1.6698277162462232,-12.937489930922967,9.639340316651275,18.803451681204393
7.601249900000001,7.822897108385526,-5.110314923234538,1.6338171671017718,-15.344009251610233,11.458728982034922,19.095969063934472
7.611249900000001,7.806258658835546,-5.185954892691748,1.5694022005282215,-18.65335323922039,13.530522182300137,19.25226640443198
7.6212499,7.808965293411236,-5.254102599251937,1.5046332275633612,-22.892746286622234,15.460824700455795,18.809388191511093
7.6312499,7.806763541574762,-5.262552450701462,1.4948983472629207,-27.914325657593587,17.125715741773117,17.595501273970658
7.641249900000001,7.8515665500021115,-5.36355343808432,1.5513952561532884,-32.52447894228879,18.795937070336187,15.42467400903251
7.651249900000001,7.948714494404109,-5.569447077292628,1.6243581742460915,-35.13712391583523,20.17141055909636,12.547334075434511
7.6612499,8.05466127729843,-5.8654688371587,1.7108777982213694,-34.55146136894548,21.2867076477784,10.008198770480634
7.6712499,8.159549788628711,-6.227763128350676,1.8913497340851302,-30.409808720247586,22.620209902089872,8.268934240019655
7.6812499,8.181171626692409,-6.496760756169638,2.0092885175232746,-23.51924828011639,24.090147556475497,7.290627481665367
7.691249900000001,8.09702802670283,-6.578532731247058,1.955347153377029,-14.901421331176044,24.95326903846405,7.213366852804741
7.7012499,8.057056782644004,-6.433971443831059,1.856321519984479,-5.019889040682366,25.32384158160577,7.716744950550333
7.7112499,8.044446911169636,-6.086843899865802,1.7774743768965104,2.674191018242047,25.414615630017312,8.443736245173799
7.7212499,8.129527867445091,-5.745458703590191,1.7811794115313977,5.759103406638378,25.44979719958879,8.991865352385574
7.731249900000001,8.28944030954109,-5.499107585347738,1.9062111112271622,6.535704025775753,25.849229444862395,9.230837909282764
7.741249900000001,8.262833333680824,-5.336943959173194,2.033759257204819,5.823128897388714,26.67980582698255,9.26250535245546
7.7512499,8.04082162239828,-5.241457551120109,2.0646896703420277,4.110810720143716,27.28509042357139,9.626414510720792
7.7612499,7.759048379319556,-5.233098844518452,2.084383462208435,2.004370400656049,27.065029495152245,10.330358086537533
7.771249900000001,7.470066744180306,-5.268886543718398,2.097959052735424,-0.5113001789732528,26.45089453191602,11.094693432400016
7.781249900000001,7.174178406636612,-5.288773679645047,2.0521374801287897,-2.854916546427447,25.23502710975041,12.10146474078634
7.7912499,6.928843104810092,-5.305117672815423,1.9729373041889264,-4.902412459070631,23.453886140917195,13.417909811270482
7.8012499,6.771607771879132,-5.369085614755444,1.9423792144095506,-6.953348906685956,21.60595871223566,15.449791078399684
7.811249900000001,6.6565353659428,-5.359812444083901,1.9776381439921638,-9.081159564187578,20.236679840477578,17.899929909141814
7.821249900000001,6.508959360618137,-5.244577019887378,1.9222417155478608,-11.652661290003245,19.465599305848496,20.402072764463682
7.8312499,6.248811697042018,-5.199638728276271,1.798110424334392,-15.029049840043331,18.47242437659674,23.315045519344366
7.8412499,5.98567979905215,-5.1904944688305,1.6881855733783675,-18.77782268531883,17.72041054730065,26.60622446263295
7.851249900000001,5.744377191618115,-5.137727655018528,1.5438615428235136,-22.531496203944872,17.53751520747466,30.302027611666883
7.861249900000001,5.4437391636392025,-5.137428601589957,1.3580770426772324,-25.75759513721445,17.355149203789797,34.74879245441317
7.8712499,5.175938115228381,-5.135857602862675,1.179478995926304,-28.802818286310025,17.24900429928471,40.0750150238739
7.8812499,4.98549585447878,-5.087878170797048,1.0157416785850368,-31.96670546956879,17.747935149180908,46.40737103653268
7.891249900000001,4.811098421881098,-5.066372098436244,0.8563077873978271,-34.83642928372065,18.792356189780744,53.81135389335107
7.901249900000001,4.668241214666444,-5.000257693447969,0.7499670940479957,-38.18242172300124,20.391802163544565,61.94745109593023
7.9112499,4.495349594451087,-4.983244718514574,0.6531712838016599,-42.68172447500819,23.094083220031973,71.9251922818911
7.9212499,4.264566877049404,-5.076812330290614,0.5781680548961684,-47.91712584708307,26.50637411928511,82.41481946142186
7.931249900000001,4.056973902512517,-5.176737988774362,0.5373318239050126,-52.750023948695514,29.551083056891525,91.35371879918212
7.941249900000001,3.808031995067985,-5.360508581621799,0.36311055884745286,-57.592321123068956,31.840070977329177,100.69491944871827
7.9512499,3.5182011283004972,-5.623833684014726,0.021373420204243355,-63.3091919354501,33.38706828257774,111.42074399897828
7.9612499,3.3995416898611097,-5.7637661495153,-0.36857693136345154,-70.63264035142123,35.10956957949538,122.7856100821933
7.9712499,3.4447419072916543,-5.728396639432037,-0.6875794677640594,-80.40010296935166,37.11209813555843,133.58082660606996
7.981249900000001,3.386104433843304,-5.88707898024995,-0.9555263239938888,-92.31456930729705,38.609899939074374,143.39384721037993
7.991249900000001,3.2979655126850456,-6.415213569032112,-1.2595331914827514,-104.89988842968184,40.56631337139119,152.33888212552432
8.0012499,3.237154093405892,-6.997410222461129,-1.6712351227730087,-117.32504119867005,43.497972696137204,160.34785098663767
8.0112499,3.1613959882121967,-7.68617349528512,-1.9987640129483992,-128.13902822692836,45.63102131758154,166.99810064418213
8.021249899999999,3.1458500288153384,-8.589119215520578,-2.2481857176084046,-136.0864384949322,47.52064142802735,172.49475121848914
8.031249899999999,3.1751607497040357,-9.379728704207274,-2.705368553771849,-142.40388107091326,49.64014131261599,177.56496973401264
8.0412499,3.4554203973542466,-10.119407856904962,-3.0805242162738358,-148.0926415845335,51.69704083730496,182.43394203320238
8.0512499,3.992859066266149,-10.820180970818562,-3.241180972831804,-153.71454880855578,54.30322449108773,186.22968267702643
8.0612499,4.385644725582642,-11.371011015284854,-3.419694374467756,-159.26892524839198,57.653107310248224,188.71786059751238
8.0712499,4.755276509253731,-11.991944747524773,-3.463714697046256,-164.754429098181,61.2340401971404,190.31696676370257
8.0812499,5.286801660117855,-12.82733250641024,-3.372150954160765,-169.94722955547584,65.71330231895855,190.60901010646964
8.0912499,5.77049350404849,-13.737012287366781,-3.4308496732570815,-173.6614287567105,70.90941379188816,188.88909821224684
8.1012499,6.26360678359839,-14.657191873466244,-3.4989291744047213,-174.85485929386613,75.88134246346898,185.32313090775733
8.111249899999999,6.748983698168368,-15.56925194983801,-3.2569491059650986,-173.61602988705673,81.13784032771332,179.89961331892343
8.1212499,7.0056911987602755,-16.52575075123855,-2.648572830502532,-170.5133969418536,87.37635650181477,170.65562745369309
8.1312499,7.089929810308574,-17.401485977893735,-2.055811308978906,-165.79582864947534,93.54806820818621,158.29428547182994
8.1412499,7.214645758002734,-18.056434061868305,-1.630116842592048,-160.47469099038958,99.05182803989584,144.69286075829353
8.1512499,7.2692752279934965,-18.751709097405858,-0.9645170635383469,-154.11136290606404,102.66988443309062,129.90390827369166
8.1612499,7.179654822807163,-19.54407013884995,-0.1313098674610501,-145.8603957563427,103.36716129807087,113.88325598080249
8.1712499,6.987120463286103,-20.253249606994075,0.6457225161452987,-136.58019564969368,100.79496004226033,96.89647671274486
8.1812499,6.826659583426133,-20.592086555006706,1.1990666288076057,-127.31888286484765,95.21720319040239,78.46026422633885
8.191249899999999,6.939234751398026,-20.369415593598173,1.3986947745971967,-120.25089289099407,86.39697730038277,57.258874688940175
8.201249899999999,7.402831199158385,-20.05202393167101,2.0357885930820476,-118.20518825362086,73.35518111130006,33.68959038546647
8.2112499,7.723248362333728,-19.936455280039958,3.0365680135617747,-121.01178146081794,55.593343976116195,9.542836591587232
8.2212499,8.051020116594028,-19.163201944367575,3.0154752684594075,-132.72623411658586,34.57409887160041,-15.323108166629162
8.2312499,9.15238727536441,-17.60536955521481,2.463666259994764,-157.04775194525453,12.535061259972275,-42.09655562050849
8.2412499,10.650872723812894,-16.420992601116374,2.8684862388427614,-187.79052945394727,-11.560592090900963,-70.01944529631632
8.2512499,12.18395033527283,-16.318311461953222,3.4216459065695957,-215.0887886834913,-38.276071861950165,-97.67202433464763
8.2612499,14.348670707334007,-16.99708348386929,3.9757020916598793,-233.29519139601595,-66.4391821503044,-124.83586574078691
8.271249899999999,16.798308546102806,-18.438152241040818,6.350356932989701,-235.41168651536648,-98.25404261216448,-152.5229553988646
8.281249899999999,18.721420051918912,-20.80101659653824,9.740544904148395,-215.82185894443694,-137.13950150141767,-182.12746680027394
8.2912499,20.053571401329762,-22.792654865372597,12.583753396029733,-186.51488111358958,-182.05621994823392,-216.396878596002
8.3012499,19.864953598496015,-24.160312452585156,16.084796924484163,-162.1732794126555,-231.24623739104135,-260.8011654833722
8.3112499,17.23649199269951,-25.975815146594567,20.536189968917945,-149.7613386303251,-283.8208293864198,-312.70485738632215
8.3212499,12.996311714136668,-27.952434129504674,24.17962594242474,-159.94924105238547,-336.27813428967403,-366.5262160925152
8.3312499,6.0810054490144125,-29.881921415761123,25.70629376574082,-185.74765357043924,-393.16962770662286,-437.40715063542376
8.3412499,-1.4506576015172605,-30.8989303068079,23.338317077270396,-198.17909684594434,-448.48650115202435,-494.58608017235963
8.3512499,-6.761657906643905,-29.30835024695027,18.466029370668057,-197.54743223878052,-489.7389034782925,-502.19552198229474
8.361249899999999,-11.264280751019143,-25.050419056720617,14.091536248147586,-197.51283499812857,-501.86092434946147,-498.59859116560887
8.3712499,-16.13428331858726,-18.62107646013312,9.713760790827644,-194.89305414293688,-498.71997647884666,-499.9590241630832
8.3812499,-21.825108539487804,-10.307952364078822,4.8836792070620705,-197.2898704307084,-501.8867671963519,-503.06518713297476
8.3912499,-27.411273549424163,-2.7611705928771224,-0.022725246022842278,-204.69528790881267,-491.56107690231045,-462.04558152350927
8.4012499,-26.930450201816637,2.314150217450202,-5.497660166797785,-199.3200037411457,-425.9018657220553,-368.43241369692237
8.4112499,-21.253088986400794,6.9929318782969885,-6.6196525137462325,-183.5015350359222,-323.1617766911571,-277.25931305426104
8.4212499,-19.734902275256243,10.017822019546406,-4.995074144408108,-159.74395872822038,-214.72486391854537,-194.78586331960216
8.4312499,-20.56493484655843,9.239923915867308,-5.282485204294331,-116.29136100323184,-108.29510178399416,-118.91822542930052
8.441249899999999,-19.581548790584016,6.395605395658472,-6.074313157272168,-51.08253626782113,-17.96673905406042,-58.90543631929126
8.451249899999999,-18.726772712400813,1.751725891373147,-8.021743843873503,22.073442201175556,48.521106541103315,-18.401091824964656
8.4612499,-19.183392577959413,-2.7648831879471927,-9.7641420785378,82.71894293341175,95.20981942732662,5.008706996833087
8.4712499,-19.015923924224253,-5.018751187715638,-9.996137069377163,118.8802238148553,130.57765017520228,10.363257822904696
8.4812499,-17.61248394746257,-5.6618655437770276,-8.762073003997381,129.58151395719702,155.06161786435086,2.389667645261828
8.4912499,-15.998703616168491,-6.055122364239624,-6.872954876710026,124.46483766247057,167.14776754765435,-7.593258670563806
8.5012499,-14.598654991849195,-6.333274146764798,-6.483115713004564,116.53664825378829,167.68872588787733,-11.897129630183068
8.5112499,-12.437844709363825,-5.965842989577008,-7.547162845392609,111.1170701189087,157.636783748987,-10.120843483524922
8.521249899999999,-9.141352969931594,-4.937004006861048,-8.26794860041536,107.37418484587234,141.49367867808817,-4.773355031991265
8.531249899999999,-5.5514507009687035,-3.8605531943821125,-8.192487830598695,104.75415877818325,124.66429674764349,2.440977592580471
8.5412499,-2.1970008107575696,-3.3842052442888777,-7.640362174119182,103.56544700116056,109.44819475661009,12.557143410348342
8.5512499,0.048261773187141414,-3.406416412817844,-7.068962026901829,103.21503916657383,99.85355196122153,22.40414095621968
8.5612499,1.2242535789822278,-3.600866674007268,-6.698387312917296,102.67946940393323,96.11652595208749,29.286279456199665
8.5712499,1.6399252407138882,-4.087287281972115,-6.375774549404294,103.35909123321086,93.41745401488004,34.290580142413305
8.5812499,1.3964812974847294,-4.704742174207509,-6.360531619063049,105.95734798070511,89.2249991945219,38.19899630646304
8.5912499,1.487814095995469,-5.143240083577231,-6.837912370510511,107.6054098172622,83.72777613923986,41.33421334897876
8.6012499,2.138299938011419,-5.31441990047934,-7.481209002467469,106.53328929901632,76.75339470701397,43.01076531674377
8.611249899999999,2.8898354510100464,-5.13004384342395,-7.950132054333602,101.40844045608746,68.66056547238516,42.94322878536453
8.6212499,3.484827973483473,-4.728802906876032,-7.8742455357017205,92.46856504107332,61.56702216481675,40.691974650281914
8.6312499,3.7993358878984327,-4.416912351743484,-7.252583355841768,81.20076243660853,57.11411405061003,36.68993392305194
8.6412499,3.858860064781697,-4.528203359006094,-6.495893425382221,70.14313647033936,55.6305989935794,32.085489621898624
8.6512499,3.880474147057521,-5.012178483023244,-5.842331062041974,61.44604389303908,57.87562969325313,27.065735279736433
8.6612499,3.7500440381605165,-5.5719630752096245,-5.17663953333738,55.670969558373585,63.40586737844843,21.737107054108915
8.6712499,3.240238904022707,-6.24250126288193,-4.468544466654956,55.266420020434595,69.72576255236316,17.281227390620323
8.6812499,2.738041374863809,-7.090799737991863,-4.058038738625026,61.94935903211082,75.95372307228953,14.622844486710559
8.691249899999999,2.433497980116035,-7.74914487211243,-3.9883003467294795,72.63331651414295,81.21861671963161,13.437847422103307
8.7012499,2.2785242953659526,-7.971627670749898,-4.164250113469891,83.87957771133767,84.4174522043696,12.582885812711881
8.7112499,2.258353037047239,-7.816565716888313,-4.362429483468744,93.13015267584373,85.85822273333402,11.17935388257845
8.7212499,2.3218297590832124,-7.561245253857387,-4.489508870035556,99.54671444841809,86.61373723181227,8.78782533471577
8.7312499,2.577946111279489,-7.283912148068156,-4.702462905838699,102.9982767834935,88.33330078010674,4.687419836482364
8.7412499,3.072529354143551,-6.749251295282079,-4.807763230927051,102.28772220223215,91.70056795005279,-2.064788465487489
8.7512499,3.6687894883883914,-6.2742048645536315,-4.621219841854415,97.4511139668733,96.29044579657473,-11.777760873467587
8.7612499,4.191585636982281,-6.222042593203085,-4.313649680373342,91.12303516005437,101.49618369757314,-20.762114343316625
8.771249899999999,4.7143093705227725,-6.4336993529109305,-4.063493570158737,85.02975192487351,108.27704566119097,-27.836681001266268
8.781249899999999,5.125571684503956,-6.886768503430171,-3.9248930599030047,81.09665707132191,116.49662778667765,-32.83167839027006
8.7912499,5.302396213885456,-7.553415230978715,-3.8256045851718365,81.11945680538612,124.80448335712718,-35.08375941845719
8.8012499,5.405917957979908,-8.02789653493288,-3.6635312804863367,83.56655001973388,133.20345055953862,-35.67209389933555
8.8112499,5.549695887786812,-8.149316417176903,-3.6590639581815703,87.14288174265762,142.51372731099724,-36.38881177698363
8.8212499,5.732354273818062,-8.107326256619933,-3.7702251981990966,91.25874187465367,152.03182721266236,-38.476359785444444
8.8312499,5.947681568127282,-8.073977944071245,-3.5902344223769784,94.22862319209273,160.51583939241186,-41.7934687963646
8.8412499,6.173859443372925,-8.298085339747004,-3.3183588186471886,97.70588532091273,168.26392341464344,-45.995496169110105
8.8512499,6.374290863263324,-8.535985091010122,-3.2422542927781484,102.50840091758562,174.9025647408932,-50.49179626505163
8.861249899999999,6.498267138307857,-8.681003334259133,-3.346553178777229,109.21233227366355,179.0220553638436,-54.52721693096642
8.8712499,6.5181462437304205,-8.76086157804227,-3.4259120916553085,116.69591367807631,180.31927401834128,-57.64621320459202
8.8812499,6.583454678672222,-8.649565145325884,-3.24671621838279,122.83012327493637,180.04036918648524,-59.64494914139365
8.8912499,6.771319469631352,-8.46913409515981,-3.067363635733556,127.84237013188128,179.13630271237193,-61.0623327409218
8.9012499,7.035970347624427,-8.23386953176898,-2.9753118262586717,130.98912310126306,177.5367414961033,-61.86047722293106
8.9112499,7.424946934640879,-7.947686105928171,-2.7918328226304205,131.39103133586855,175.22967122381354,-61.490844801436026
8.9212499,7.94230279611192,-7.567436886946781,-2.6769283723528448,129.6883378415849,172.1743692715397,-59.98289016399784
8.9312499,8.459479439257024,-7.103469781919773,-2.7089147012952224,126.32232183548386,166.8284735924815,-57.91438402699434
8.941249899999999,8.853434540763708,-6.719582476926879,-2.569182532207616,121.48564908239926,159.37663180077823,-55.67150207192796
8.9512499,9.235293576428331,-6.411468181153025,-2.350749197853457,116.01403023389418,151.0197722025431,-52.619113055994426
8.9612499,9.573046967870878,-6.239969692293978,-2.3081025471139944,110.40843975038182,139.47255606965294,-47.53441537945284
8.9712499,9.839535641810484,-6.241112095412665,-2.214795279678024,105.98315163806346,126.38301032425761,-41.21573696601502
8.9812499,10.184225677813872,-6.346176545387844,-2.019926781707296,102.72878007204254,113.30390449656349,-33.73148531880096
8.9912499,10.425412718190609,-6.460995123598462,-1.803990902786729,98.79506804704258,99.15451486689035,-25.108046639101396
9.0012499,10.503235996383681,-6.598911502890802,-1.5636732104806512,93.79884355236732,83.56067815112098,-16.01143700264866
9.0112499,10.556080745609346,-6.6087479589647815,-1.3899007355538333,87.5725078023979,66.78544953030618,-7.895593074996191
9.0212499,10.468664135550995,-6.51474590826002,-1.1351031604023258,78.54034522913409,49.027184728528624,-1.9585136845652205
9.0312499,10.384531642871538,-6.512245973751635,-0.6759129157592099,66.72922373812467,32.771052172709226,1.0131304204055278
9.0412499,10.27698553071857,-6.478936780620966,-0.16400867724533566,51.7478460847842,19.36672442611987,0.689359031091895
9.0512499,10.022993154863531,-6.50158513619322,0.44512249243662505,34.98423624800602,8.351360973303734,-2.716080452573552
9.0612499,9.750460055720655,-6.615045156459285,1.1785464043953284,18.17556689391484,0.1227062881939613,-9.186937620819581
9.0712499,9.493384443351545,-6.673116650761294,1.8781546854149322,2.0151757086545175,-5.005514717372395,-17.778067182064035
9.0812499,9.327867793147465,-6.763245858355271,2.415821372281588,-11.13566597310317,-7.631554955433545,-27.264818794845905
9.0912499,9.166316238677977,-6.91650070065042,2.7637125855188405,-20.17895981231558,-8.718893192257855,-36.686382540735856
9.1012499,8.919053236532143,-7.1006764016421,3.0041550320477635,-24.14746684111846,-8.622229977035692,-44.74477343783655
9.1112499,8.655852490531329,-7.221719321978234,3.157925210639009,-22.366443031115622,-7.568661370587596,-50.85678057512834
9.1212499,8.335858135890938,-7.152096065267384,3.233235523787976,-16.02453665066874,-6.234475384892618,-55.334274235594904
9.1312499,7.950352423365411,-6.8863758793330385,3.1667070402394173,-6.040831199159198,-4.832119531494697,-58.52229152380561
9.1412499,7.542502343154207,-6.509528917974944,2.9607463204778943,5.335126844835719,-3.8791880645080985,-60.48872393082533
9.1512499,7.210917589270833,-6.159718748086356,2.8242430813140507,16.04473973911926,-3.3374135248410206,-60.616312271033784
9.1612499,7.005458520947559,-5.736232185876901,2.747898268512046,25.85846300544385,-2.1801302947404424,-59.32769353635582
9.1712499,6.804652821399626,-5.222135301581969,2.603535816101114,33.74917360720873,-0.7522784020120741,-57.37916573465746
9.1812499,6.6800319275979145,-4.801304205011548,2.484053858141534,37.2377290727617,0.4016697640091938,-54.942677891554254
9.1912499,6.701062443990705,-4.429759988506956,2.4227796398696313,37.08789682511435,2.134915598862365,-52.18156762462607
9.2012499,6.744376335186735,-4.125433229141507,2.4338991334102293,35.185137164434686,4.160925214336765,-49.22955743699492
9.2112499,6.775006171206475,-3.8409025436005853,2.4852036995687388,31.79403543318162,6.307169512268456,-46.22056747345672
9.2212499,6.835506300746463,-3.7035819260420335,2.518459914505453,26.814532531030142,8.671193496212979,-42.69483658364481
9.2312499,6.855339819479091,-3.8285777384635518,2.610536683648794,21.54532773543882,11.19295681866369,-38.2133992180585
9.2412499,6.841126706013078,-3.8589333612684125,2.7662595586792724,16.22942204329613,13.819044644657797,-32.91680008674463
9.2512499,6.932114870502149,-3.789457575664134,2.8712149693661275,10.395113407625823,16.531826046184626,-27.10075042211784
9.2612499,7.14228155469171,-3.8123061727676535,2.90947579002018,4.904014961289617,19.407682574748055,-21.42274045649486
9.2712499,7.272370653239228,-3.873233423656051,2.930704204007061,0.7723245831370498,21.66776670192838,-16.38832756946086
9.2812499,7.310660076040996,-3.9785162607239277,2.9366117509999756,-1.9736494173349959,22.82736722842638,-11.874878451138086
9.2912499,7.367154063252046,-4.189049388080558,2.8900669166585877,-3.1960972932031257,23.75848790731579,-7.59736843851483
9.3012499,7.4094401140550294,-4.428944488006654,2.834252746413869,-3.491688495062937,24.498405755433836,-3.484043564610879
9.3112499,7.514045566322004,-4.584225502368882,2.780671902609276,-3.9909328266990673,24.78403884670582,0.4186019931918383
9.3212499,7.72263277909886,-4.631415200465469,2.6931984445706236,-4.436781011899817,24.98012631532918,3.7330831001818017
9.3312499,7.86333069825848,-4.648663537342047,2.628898609575589,-4.914750164332936,24.608212204848403,6.301342111391535
9.3412499,7.979737659702505,-4.756035930824602,2.6936761809348146,-5.489558417044353,23.71890445443804,8.529938611651424
9.3512499,8.151581771337815,-4.83125897729476,2.718690322615833,-6.760365940727278,23.028123689373242,9.973705654628745
9.3612499,8.264072134141182,-4.820995760459382,2.6374018599362885,-8.494873597834628,22.052278007626658,10.300009350628727
9.3712499,8.343804746053928,-4.951251280271169,2.6933104146075175,-10.258861829376187,20.30956129251546,10.13675778960993
9.3812499,8.38196581087816,-5.061515501239127,2.7845835396977874,-13.205543378804027,18.484669029335763,9.515986172854333
9.3912499,8.336271854483385,-4.964388555616589,2.7725331720208684,-16.747795116795984,16.61697444038975,8.105161845576893
9.4012499,8.356960942631602,-4.974805163252151,2.8323349691449886,-19.988323500176406,14.764634676763546,6.274899716580065
9.4112499,8.536912155088734,-5.1557261105359125,3.0147573903731377,-22.84082162775256,13.49617320734978,4.665328002571176
9.4212499,8.744396734684939,-5.354961163801912,3.234814873852255,-24.427364579631217,12.942745298436105,3.6322008784649675
9.4312499,8.819807870557964,-5.510569752459467,3.4833760406711183,-24.27102068491433,12.905984065677677,2.8825244528629725
9.4412499,8.821381120527036,-5.636010193391297,3.63030119949695,-22.75334193706045,13.285651401168609,2.300136290290115
9.4512499,8.662053367538567,-5.694010983964925,3.506770167735836,-20.11215880800814,13.125835812742457,1.9803170567737067
9.4612499,8.46026660251493,-5.692561190125836,3.3246108565215495,-16.78598873538538,12.190727093661357,1.8350415308656336
9.4712499,8.332954533160194,-5.560923137509206,3.136074462451966,-14.324733986661895,10.94214657884459,1.7659590660845836
9.4812499,8.194086799197123,-5.314708118638848,2.8443568700790047,-13.297021604817944,9.169811436492814,1.5629603695138008
9.4912499,8.149256943678965,-5.109571173393157,2.6129157976516044,-13.35796890551258,7.0656767038438675,1.2490742822987757
9.5012499,8.1865955713104,-4.9248713164365014,2.4793241237125105,-14.572156286793984,5.129995348903175,0.8362225373010755
9.5112499,8.20687268731536,-4.791292346078756,2.3421599600666836,-16.54307991086121,3.528692076652037,0.4779008652113069
9.5212499,8.206325591928854,-4.814599576069168,2.184338004148317,-18.45648163120098,1.8746869954215943,0.7277742598858465
9.5312499,8.19654068507508,-4.869178250554439,2.1343072781973214,-20.37199203962306,0.3167326407130201,1.7320433295225588
9.5412499,8.20035235731198,-4.93590405094974,2.1553653709122935,-22.18966408496398,-0.2776323208521007,3.1214772129896593
9.5512499,8.130015294673122,-4.9948922620856715,2.081638454010213,-23.19017282803476,-0.700070868670615,4.386276498069948
9.5612499,8.077721307032723,-5.053519486249228,1.9881440730387967,-23.519430876922385,-1.3409771349591206,5.417710304186168
9.5712499,8.046642634448503,-5.220372562030053,1.8833562087531217,-24.007351789377477,-1.2038070394561815,6.645313880247997
9.5812499,7.8764120883030815,-5.395103510067986,1.83159291473049,-24.904456410911724,-1.3516258095924567,8.114873439397877
