# Time (seconds),Accel_X,Accel_Y,Accel_Z,Gyro_X,Gyro_Y,Gyro_Z
0.0012499,7.383718013763428,-3.97916316986084,2.1380221843719482,5.4473876953125,5.9356689453125,-2.288818359375
0.0037499,7.41484260559082,-3.952826976776123,2.142810583114624,5.4473876953125,5.889892578125,-1.983642578125
0.0062499,7.445967197418213,-3.93367338180542,2.1523873805999756,5.2032470703125,5.9814453125,-1.6632080078125
0.0087499,7.4770917892456055,-3.9049429893493652,2.161964178085327,4.82177734375,6.04248046875,-1.6632080078125
0.0112499,7.501033782958984,-3.8810009956359863,2.1715409755706787,4.7454833984375,6.2255859375,-1.7852783203125
0.0137499,7.527369976043701,-3.847482204437256,2.1739351749420166,4.7149658203125,6.53076171875,-1.5716552734375
0.016249899999999998,7.548917770385742,-3.821146011352539,2.1715409755706787,4.302978515625,6.6375732421875,-1.2664794921875
0.0187499,7.582436561584473,-3.794809579849243,2.169146776199341,4.2266845703125,6.927490234375,-1.007080078125
0.021249900000000002,7.623138427734375,-3.773261785507202,2.161964178085327,4.150390625,7.354736328125,-0.9918212890625
0.023749899999999997,7.668628215789795,-3.754108190536499,2.1523873805999756,3.814697265625,7.4920654296875,-0.8087158203125
0.0262499,7.716512203216553,-3.73016619682312,2.140416383743286,3.72314453125,7.8887939453125,-0.9765625
0.028749900000000002,7.759607791900635,-3.708618402481079,2.1308395862579346,3.4637451171875,8.3770751953125,-0.7781982421875
0.031249899999999997,7.807491779327393,-3.689464807510376,2.121262788772583,3.143310546875,8.36181640625,-0.518798828125
0.0337499,7.85537576675415,-3.6750996112823486,2.118868589401245,2.8839111328125,8.819580078125,-0.4425048828125
0.0362499,7.905653953552246,-3.665522813796997,2.121262788772583,2.4566650390625,9.185791015625,-0.2288818359375
0.0387499,7.953537940979004,-3.6583402156829834,2.126051187515259,2.0599365234375,9.246826171875,0.0457763671875
0.0412499,8.001421928405762,-3.6559460163116455,2.1356279850006104,1.7852783203125,9.6893310546875,0.030517578125
0.0437499,8.04691219329834,-3.646369218826294,2.1475989818573,1.3275146484375,9.9639892578125,0.335693359375
0.0462499,8.101978302001953,-3.6391866207122803,2.1547815799713135,0.8544921875,10.2386474609375,0.5645751953125
0.0487499,8.157045364379883,-3.622427225112915,2.166752576828003,0.2288818359375,11.077880859375,0.7171630859375
0.0512499,8.216899871826172,-3.60566782951355,2.1715409755706787,-0.54931640625,11.566162109375,0.8392333984375
0.053749899999999996,8.276755332946777,-3.584120035171509,2.1811177730560303,-1.1138916015625,12.0697021484375,1.1138916015625
0.0562499,8.334216117858887,-3.5673606395721436,2.1954829692840576,-1.6326904296875,12.6190185546875,1.1749267578125
0.0587499,8.38688850402832,-3.5434184074401855,2.209848165512085,-2.197265625,13.1072998046875,1.0528564453125
0.061249899999999996,8.44195556640625,-3.5242648124694824,2.2218191623687744,-2.777099609375,13.4735107421875,1.556396484375
0.0637499,8.489839553833008,-3.5003228187561035,2.233790159225464,-3.3721923828125,14.0838623046875,1.8157958984375
0.0662499,8.528146743774414,-3.4811692237854004,2.248155355453491,-3.96728515625,14.5263671875,1.739501953125
0.0687499,8.556877136230469,-3.4572272300720215,2.2625205516815186,-4.5013427734375,14.801025390625,1.9989013671875
0.0712499,8.571242332458496,-3.4380736351013184,2.279279947280884,-4.9591064453125,15.106201171875,2.3956298828125
0.0737499,8.571242332458496,-3.4165258407592773,2.296039342880249,-5.55419921875,15.6707763671875,2.6397705078125
0.0762499,8.56884765625,-3.404554843902588,2.3104045391082764,-5.889892578125,15.9912109375,2.7313232421875
0.0787499,8.561665534973145,-3.3901896476745605,2.322375535964966,-6.134033203125,16.387939453125,2.86865234375
0.0812499,8.559270858764648,-3.3901896476745605,2.3367409706115723,-6.591796875,16.66259765625,2.9144287109375
0.0837499,8.56884765625,-3.399766445159912,2.3558945655822754,-6.6986083984375,17.2119140625,3.2806396484375
0.0862499,8.583212852478027,-3.421314239501953,2.382230758666992,-6.8817138671875,17.2271728515625,3.8909912109375
0.0887499,8.609549522399902,-3.4524388313293457,2.4181437492370605,-7.171630859375,17.7154541015625,4.486083984375
0.0912499,8.635885238647461,-3.490746021270752,2.4588451385498047,-7.2174072265625,18.2647705078125,4.7149658203125
0.0937499,8.667010307312012,-3.5386300086975098,2.4899697303771973,-7.3699951171875,18.5394287109375,5.2642822265625
0.0962499,8.695740699768066,-3.5936968326568604,2.513911724090576,-6.927490234375,18.98193359375,6.0882568359375
0.0987499,8.712499618530273,-3.6535518169403076,2.52109432220459,-6.4239501953125,19.5159912109375,6.5765380859375
0.1012499,8.719682693481445,-3.7181951999664307,2.518700122833252,-6.04248046875,20.01953125,7.354736328125
0.1037499,8.71489429473877,-3.773261785507202,2.5115175247192383,-5.218505859375,20.3094482421875,8.392333984375
0.1062499,8.700529098510742,-3.8331170082092285,2.5091233253479004,-4.638671875,20.4925537109375,9.3536376953125
0.1087499,8.686163902282715,-3.892971992492676,2.513911724090576,-3.692626953125,20.6756591796875,10.3912353515625
0.1112499,8.674192428588867,-3.9408559799194336,2.5282769203186035,-2.86865234375,20.81298828125,11.53564453125
0.1137499,8.664615631103516,-3.998316764831543,2.5522189140319824,-1.89208984375,21.4385986328125,12.5885009765625
0.1162499,8.664615631103516,-4.041412353515625,2.5785553455352783,-0.823974609375,22.186279296875,13.61083984375
0.1187499,8.664615631103516,-4.086902141571045,2.607285737991333,-0.1220703125,22.6287841796875,15.106201171875
0.1212499,8.667010307312012,-4.122815132141113,2.6192567348480225,0.79345703125,23.1475830078125,16.17431640625
0.1237499,8.669404029846191,-4.144362926483154,2.6360161304473877,1.708984375,23.9715576171875,17.3492431640625
0.1262499,8.671798706054688,-4.156333923339844,2.6384103298187256,2.593994140625,24.444580078125,18.7225341796875
0.1287499,8.671798706054688,-4.153939723968506,2.647987127304077,3.6773681640625,24.871826171875,19.744873046875
0.1312499,8.671798706054688,-4.146757125854492,2.6431987285614014,4.5013427734375,25.390625,20.9503173828125
0.1337499,8.667010307312012,-4.1395745277404785,2.6360161304473877,5.4473876953125,25.81787109375,21.942138671875
0.1362499,8.662221908569336,-4.137180328369141,2.6216509342193604,6.4544677734375,26.3671875,22.6898193359375
0.1387499,8.650250434875488,-4.1395745277404785,2.6144683361053467,7.293701171875,26.6876220703125,23.4832763671875
0.1412499,8.645462036132812,-4.144362926483154,2.609679937362671,7.9345703125,26.9775390625,24.5208740234375
0.1437499,8.631096839904785,-4.156333923339844,2.609679937362671,8.5601806640625,27.4505615234375,25.3448486328125
0.1462499,8.619126319885254,-4.168305397033691,2.6168625354766846,9.2315673828125,27.587890625,25.9857177734375
0.1487499,8.60236644744873,-4.180276393890381,2.6192567348480225,9.94873046875,27.8778076171875,27.008056640625
0.1512499,8.5903959274292,-4.197035789489746,2.6240451335906982,10.3302001953125,28.228759765625,27.7099609375
0.1537499,8.580819129943848,-4.2090067863464355,2.631227731704712,11.0626220703125,28.62548828125,28.38134765625
0.1562499,8.573636054992676,-4.223371982574463,2.6360161304473877,11.474609375,28.8543701171875,29.0679931640625
0.1587499,8.571242332458496,-4.235342979431152,2.6455929279327393,11.9476318359375,29.296875,29.9224853515625
0.1612499,8.56884765625,-4.242525577545166,2.655169725418091,12.2833251953125,29.541015625,30.1361083984375
0.1637499,8.576030731201172,-4.247313976287842,2.669534921646118,12.420654296875,29.9072265625,30.426025390625
0.1662499,8.588001251220703,-4.247313976287842,2.6886885166168213,12.9241943359375,30.0140380859375,31.158447265625
0.1687499,8.607154846191406,-4.240131378173828,2.7126305103302,13.153076171875,30.3497314453125,31.4178466796875
0.1712499,8.628703117370605,-4.230554580688477,2.736572504043579,13.1378173828125,30.6854248046875,31.6619873046875
0.1737499,8.652645111083984,-4.218583583831787,2.7485435009002686,13.5498046875,30.76171875,31.7535400390625
0.17624990000000001,8.674192428588867,-4.213795185089111,2.7557260990142822,13.9007568359375,31.06689453125,31.951904296875
0.1787499,8.698134422302246,-4.211400985717773,2.760514497756958,14.251708984375,31.3873291015625,32.0281982421875
0.1812499,8.712499618530273,-4.2090067863464355,2.765302896499634,14.3585205078125,31.5093994140625,32.135009765625
0.1837499,8.71728801727295,-4.213795185089111,2.7748796939849854,14.2364501953125,31.6009521484375,31.9366455078125
0.1862499,8.707711219787598,-4.211400985717773,2.7892448902130127,14.4195556640625,31.6009521484375,32.073974609375
0.1887499,8.688557624816895,-4.213795185089111,2.801215887069702,14.46533203125,31.67724609375,31.9671630859375
0.1912499,8.662221908569336,-4.213795185089111,2.8107926845550537,14.617919921875,31.7840576171875,31.7230224609375
0.1937499,8.62630844116211,-4.218583583831787,2.82515811920166,14.495849609375,31.8145751953125,31.5399169921875
0.1962499,8.583212852478027,-4.225766181945801,2.8395233154296875,14.3890380859375,31.7535400390625,31.097412109375
0.1987499,8.530540466308594,-4.240131378173828,2.8634653091430664,14.5263671875,31.6009521484375,30.731201171875
0.2012499,8.470685958862305,-4.259284973144531,2.8802247047424316,14.5111083984375,31.7230224609375,30.76171875
0.2037499,8.398859977722168,-4.285621166229248,2.9017724990844727,14.373779296875,31.5704345703125,30.3955078125
0.2062499,8.33182144165039,-4.309563159942627,2.920926094055176,14.3280029296875,31.3262939453125,29.8919677734375
0.20874990000000002,8.26239013671875,-4.3406877517700195,2.9328970909118652,14.2822265625,31.463623046875,29.78515625
0.2112499,8.200140953063965,-4.364629745483398,2.9448680877685547,14.16015625,31.2347412109375,29.1595458984375
0.2137499,8.142680168151855,-4.3861775398254395,2.9520506858825684,14.1448974609375,31.06689453125,28.656005859375
0.2162499,8.090007781982422,-4.405331134796143,2.9664158821105957,13.946533203125,31.06689453125,28.2135009765625
0.2187499,8.044517517089844,-4.424484729766846,2.978386878967285,13.85498046875,30.6243896484375,27.862548828125
0.2212499,7.999027729034424,-4.446032524108887,2.9975404739379883,13.6566162109375,30.4107666015625,27.2979736328125
0.2237499,7.95832633972168,-4.467580318450928,3.0190882682800293,13.519287109375,30.2734375,26.8402099609375
0.2262499,7.922413349151611,-4.484339714050293,3.047818660736084,13.48876953125,30.1361083984375,26.336669921875
0.2287499,7.886500358581543,-4.501099109649658,3.0765492916107178,13.3819580078125,29.6478271484375,25.57373046875
0.2312499,7.85537576675415,-4.51067590713501,3.1004912853240967,13.6260986328125,29.144287109375,24.9786376953125
0.2337499,7.826645374298096,-4.520252704620361,3.1220390796661377,13.702392578125,28.9306640625,24.2462158203125
0.2362499,7.802703380584717,-4.517858505249023,3.141192674636841,13.6260986328125,28.594970703125,23.5443115234375
0.23874990000000001,7.781155586242676,-4.51067590713501,3.157952070236206,13.7176513671875,28.25927734375,22.857666015625
0.2412499,7.759607791900635,-4.49870491027832,3.181894063949585,13.85498046875,28.2440185546875,21.9879150390625
0.2437499,7.735665798187256,-4.484339714050293,3.2082302570343018,13.9312744140625,27.923583984375,20.904541015625
0.2462499,7.704541206359863,-4.469974517822266,3.2369606494903564,14.129638671875,27.4200439453125,19.95849609375
0.2487499,7.666234016418457,-4.458003520965576,3.268085241317749,14.2974853515625,27.313232421875,19.134521484375
0.2512499,7.620744228363037,-4.448426723480225,3.2992098331451416,14.46533203125,27.069091796875,18.3258056640625
0.25374990000000003,7.5632829666137695,-4.4508209228515625,3.339911460876465,14.7857666015625,26.4892578125,17.242431640625
0.25624990000000003,7.501033782958984,-4.467580318450928,3.375824451446533,15.3045654296875,26.06201171875,16.5863037109375
0.25874990000000003,7.438784599304199,-4.491522312164307,3.4141316413879395,15.869140625,26.0467529296875,15.56396484375
0.26124990000000003,7.378929615020752,-4.522646903991699,3.442862033843994,16.41845703125,25.8636474609375,14.678955078125
0.26374990000000004,7.3238630294799805,-4.551377296447754,3.469198226928711,16.754150390625,25.634765625,13.916015625
0.26624990000000004,7.2783732414245605,-4.577713489532471,3.488351821899414,17.3187255859375,25.421142578125,13.12255859375
0.26874990000000004,7.242460250854492,-4.594472885131836,3.509899616241455,17.822265625,25.238037109375,12.359619140625
0.27124990000000004,7.216124057769775,-4.6040496826171875,3.533841609954834,18.37158203125,25.20751953125,11.566162109375
0.27374990000000005,7.201758861541748,-4.606443881988525,3.550601005554199,19.012451171875,24.90234375,10.6353759765625
0.27624990000000005,7.19936466217041,-4.596867084503174,3.5673606395721436,19.683837890625,24.7344970703125,9.9945068359375
0.27874990000000005,7.201758861541748,-4.584896087646484,3.584120035171509,20.6756591796875,24.5361328125,9.1705322265625
0.28124990000000005,7.206547260284424,-4.568136692047119,3.600879430770874,21.4385986328125,24.4293212890625,8.2550048828125
0.28374990000000005,7.204153060913086,-4.553771495819092,3.620033025741577,22.064208984375,24.47509765625,7.293701171875
0.28624990000000006,7.19936466217041,-4.5394062995910645,3.6367924213409424,23.0255126953125,24.3682861328125,6.561279296875
0.28874990000000006,7.184999465942383,-4.527435302734375,3.6583402156829834,23.8037109375,24.2919921875,5.706787109375
0.2912499,7.173028469085693,-4.520252704620361,3.6774938106536865,24.84130859375,24.078369140625,4.7454833984375
0.2937499,7.161057472229004,-4.508281707763672,3.7014358043670654,26.06201171875,24.0631103515625,4.180908203125
0.2962499,7.1490864753723145,-4.49870491027832,3.7277719974517822,26.9775390625,24.1851806640625,3.3721923828125
0.2987499,7.141903877258301,-4.484339714050293,3.758896589279175,28.1219482421875,24.10888671875,2.716064453125
0.3012499,7.139509677886963,-4.474762916564941,3.7828385829925537,29.205322265625,24.3377685546875,2.2430419921875
0.3037499,7.141903877258301,-4.467580318450928,3.8091750144958496,30.120849609375,24.4293212890625,1.7242431640625
0.3062499,7.151480674743652,-4.460397720336914,3.825934410095215,31.1126708984375,24.6124267578125,1.2054443359375
0.3087499,7.168240070343018,-4.4508209228515625,3.845088005065918,32.3333740234375,24.84130859375,0.7781982421875
0.3112499,7.187393665313721,-4.436455726623535,3.8546648025512695,33.3709716796875,25.054931640625,0.5340576171875
0.3137499,7.2137298583984375,-4.414907932281494,3.8570590019226074,34.5001220703125,25.4669189453125,0.213623046875
0.31624990000000003,7.242460250854492,-4.390965938568115,3.8498764038085938,35.430908203125,26.06201171875,-0.18310546875
0.31874990000000003,7.287950038909912,-4.357447147369385,3.840299606323242,36.2548828125,26.5045166015625,-0.274658203125
0.32124990000000003,7.33583402633667,-4.323928356170654,3.825934410095215,37.109375,26.8096923828125,-0.335693359375
0.32374990000000003,7.393294811248779,-4.28322696685791,3.825934410095215,38.39111328125,27.28271484375,-0.6561279296875
0.32624990000000004,7.515398979187012,-4.194641590118408,3.8379054069519043,40.2984619140625,28.167724609375,-0.732421875
0.32874990000000004,7.515398979187012,-4.194641590118408,3.8379054069519043,40.2984619140625,28.167724609375,-0.732421875
0.33124990000000004,7.654263019561768,-4.113238334655762,3.8738183975219727,42.022705078125,29.022216796875,-0.91552734375
0.33374990000000004,7.654263019561768,-4.113238334655762,3.8738183975219727,42.022705078125,29.022216796875,-0.91552734375
0.33624990000000005,7.7883381843566895,-4.062960147857666,3.9480385780334473,43.5943603515625,30.029296875,-1.1138916015625
0.33874990000000005,7.7883381843566895,-4.062960147857666,3.9480385780334473,43.5943603515625,30.029296875,-1.1138916015625
0.34124990000000005,7.8960771560668945,-4.041412353515625,4.0533833503723145,45.41015625,30.8685302734375,-0.4730224609375
0.34374990000000005,7.8960771560668945,-4.041412353515625,4.0533833503723145,45.41015625,30.8685302734375,-0.4730224609375
0.34624990000000005,7.960720539093018,-4.034229755401611,4.156333923339844,46.966552734375,32.1502685546875,-0.030517578125
0.34874990000000006,7.960720539093018,-4.034229755401611,4.156333923339844,46.966552734375,32.1502685546875,-0.030517578125
0.35124990000000006,7.996633529663086,-4.0294413566589355,4.216189384460449,48.0194091796875,33.3251953125,0.8697509765625
0.3537499,7.996633529663086,-4.0294413566589355,4.216189384460449,48.0194091796875,33.3251953125,0.8697509765625
0.3562499,8.034940719604492,-4.019864559173584,4.23773717880249,48.919677734375,34.454345703125,1.7547607421875
0.3587499,8.034940719604492,-4.019864559173584,4.23773717880249,48.919677734375,34.454345703125,1.7547607421875
0.3612499,8.092401504516602,-4.003105163574219,4.244919776916504,49.6063232421875,35.5377197265625,2.38037109375
0.3637499,8.092401504516602,-4.003105163574219,4.244919776916504,49.6063232421875,35.5377197265625,2.38037109375
0.3662499,8.17141056060791,-3.9839515686035156,4.256890773773193,49.6673583984375,36.1480712890625,3.2806396484375
0.3687499,8.17141056060791,-3.9839515686035156,4.256890773773193,49.6673583984375,36.1480712890625,3.2806396484375
0.3712499,8.279149055480957,-3.952826976776123,4.321534156799316,49.4537353515625,36.8804931640625,3.84521484375
0.3737499,8.279149055480957,-3.952826976776123,4.321534156799316,49.4537353515625,36.8804931640625,3.84521484375
0.3762499,8.401253700256348,-3.9025487899780273,4.460397720336914,48.4161376953125,37.445068359375,4.2724609375
0.37874990000000003,8.401253700256348,-3.9025487899780273,4.460397720336914,48.4161376953125,37.445068359375,4.2724609375
0.38124990000000003,8.520963668823242,-3.8379054069519043,4.649539470672607,47.9278564453125,37.933349609375,4.57763671875
0.38374990000000003,8.520963668823242,-3.8379054069519043,4.649539470672607,47.9278564453125,37.933349609375,4.57763671875
0.38624990000000003,8.631096839904785,-3.7828385829925537,4.8722004890441895,46.7071533203125,38.51318359375,4.33349609375
0.38874990000000004,8.631096839904785,-3.7828385829925537,4.8722004890441895,46.7071533203125,38.51318359375,4.33349609375
0.39124990000000004,8.71728801727295,-3.73016619682312,5.102043628692627,45.501708984375,39.0167236328125,3.9520263671875
0.39374990000000004,8.71728801727295,-3.73016619682312,5.102043628692627,45.501708984375,39.0167236328125,3.9520263671875
0.39624990000000004,8.786720275878906,-3.6798880100250244,5.315127849578857,44.0826416015625,39.520263671875,2.9296875
0.39874990000000005,8.786720275878906,-3.6798880100250244,5.315127849578857,44.0826416015625,39.520263671875,2.9296875
0.40124990000000005,8.853757858276367,-3.6583402156829834,5.52821159362793,42.3126220703125,39.8406982421875,1.6021728515625
0.40374990000000005,8.853757858276367,-3.6583402156829834,5.52821159362793,42.3126220703125,39.8406982421875,1.6021728515625
0.40624990000000005,8.916007041931152,-3.689464807510376,5.75326681137085,40.7867431640625,39.794921875,0.244140625
0.40874990000000005,8.916007041931152,-3.689464807510376,5.75326681137085,40.7867431640625,39.794921875,0.244140625
0.41124990000000006,8.96389102935791,-3.7708675861358643,5.990292549133301,38.8946533203125,39.7796630859375,-0.6561279296875
0.41374990000000006,8.96389102935791,-3.7708675861358643,5.990292549133301,38.8946533203125,39.7796630859375,-0.6561279296875
0.41624990000000006,8.992621421813965,-3.909731388092041,6.256049156188965,37.3382568359375,39.642333984375,-1.617431640625
0.4187499,8.992621421813965,-3.909731388092041,6.256049156188965,37.3382568359375,39.642333984375,-1.617431640625
0.4212499,8.999804496765137,-4.0964789390563965,6.540958881378174,35.430908203125,39.2608642578125,-2.6397705078125
0.4237499,8.999804496765137,-4.0964789390563965,6.540958881378174,35.430908203125,39.2608642578125,-2.6397705078125
0.4262499,8.978256225585938,-4.2975921630859375,6.825869083404541,33.69140625,38.5284423828125,-3.0364990234375
0.4287499,8.978256225585938,-4.2975921630859375,6.825869083404541,33.69140625,38.5284423828125,-3.0364990234375
0.4312499,8.942343711853027,-4.467580318450928,7.089231014251709,31.7535400390625,37.933349609375,-3.204345703125
0.4337499,8.942343711853027,-4.467580318450928,7.089231014251709,31.7535400390625,37.933349609375,-3.204345703125
0.4362499,8.916007041931152,-4.594472885131836,7.311892032623291,29.78515625,37.0330810546875,-3.41796875
0.4387499,8.916007041931152,-4.594472885131836,7.311892032623291,29.78515625,37.0330810546875,-3.41796875
0.44124990000000003,8.89685344696045,-4.683058738708496,7.467514991760254,27.6947021484375,36.163330078125,-4.2266845703125
0.44374990000000003,8.89685344696045,-4.683058738708496,7.467514991760254,27.6947021484375,36.163330078125,-4.2266845703125
0.44624990000000003,8.877699851989746,-4.754884719848633,7.568071365356445,25.8941650390625,34.7137451171875,-4.8980712890625
0.44874990000000003,8.877699851989746,-4.754884719848633,7.568071365356445,25.8941650390625,34.7137451171875,-4.8980712890625
0.45124990000000004,8.863334655761719,-4.824316501617432,7.620744228363037,24.383544921875,32.9437255859375,-5.55419921875
0.45374990000000004,8.863334655761719,-4.824316501617432,7.620744228363037,24.383544921875,32.9437255859375,-5.55419921875
0.45624990000000004,8.848969459533691,-4.879383087158203,7.632715225219727,22.52197265625,30.670166015625,-6.988525390625
0.45874990000000004,8.848969459533691,-4.879383087158203,7.632715225219727,22.52197265625,30.670166015625,-6.988525390625
0.46124990000000005,8.83699893951416,-4.9368438720703125,7.6566572189331055,21.3775634765625,27.5421142578125,-8.1634521484375
0.46374990000000005,8.83699893951416,-4.9368438720703125,7.6566572189331055,21.3775634765625,27.5421142578125,-8.1634521484375
0.46624990000000005,8.851364135742188,-5.0254292488098145,7.706935405731201,19.683837890625,24.6124267578125,-9.5062255859375
0.46874990000000005,8.851364135742188,-5.0254292488098145,7.706935405731201,19.683837890625,24.6124267578125,-9.5062255859375
0.47124990000000005,8.880094528198242,-5.116408824920654,7.754819393157959,18.524169921875,20.9808349609375,-10.5133056640625
0.47374990000000006,8.880094528198242,-5.116408824920654,7.754819393157959,18.524169921875,20.9808349609375,-10.5133056640625
0.47624990000000006,8.899248123168945,-5.1810526847839355,7.771578788757324,17.486572265625,17.608642578125,-11.6424560546875
0.47874990000000006,8.899248123168945,-5.1810526847839355,7.771578788757324,17.486572265625,17.608642578125,-11.6424560546875
0.4812499,8.908824920654297,-5.212177276611328,7.7213006019592285,16.571044921875,13.6260986328125,-12.4664306640625
0.4837499,8.908824920654297,-5.212177276611328,7.7213006019592285,16.571044921875,13.6260986328125,-12.4664306640625
0.4862499,8.901641845703125,-5.245696067810059,7.637503623962402,15.411376953125,9.6893310546875,-13.85498046875
0.4887499,8.901641845703125,-5.245696067810059,7.637503623962402,15.411376953125,9.6893310546875,-13.85498046875
0.4912499,8.892065048217773,-5.293580055236816,7.534552574157715,15.19775390625,5.5389404296875,-14.404296875
0.4937499,8.892065048217773,-5.293580055236816,7.534552574157715,15.19775390625,5.5389404296875,-14.404296875
0.4962499,8.877699851989746,-5.331887245178223,7.417236804962158,14.5416259765625,1.03759765625,-14.8773193359375
0.4987499,8.877699851989746,-5.331887245178223,7.417236804962158,14.5416259765625,1.03759765625,-14.8773193359375
0.5012499,8.875306129455566,-5.348646640777588,7.3238630294799805,14.0228271484375,-3.4027099609375,-15.106201171875
0.5037499000000001,8.882488250732422,-5.343858242034912,7.280767440795898,13.7481689453125,-5.523681640625,-15.2435302734375
0.5062499,8.892065048217773,-5.3342814445495605,7.2352776527404785,13.427734375,-7.7362060546875,-15.13671875
0.5087499000000001,8.89685344696045,-5.310339450836182,7.175422668457031,13.092041015625,-9.918212890625,-15.2130126953125
0.5112499,8.908824920654297,-5.274426460266113,7.110779285430908,12.725830078125,-12.2222900390625,-15.106201171875
0.5137499,8.911218643188477,-5.228936672210693,7.026981830596924,12.359619140625,-14.2822265625,-15.13671875
0.5162499,8.920795440673828,-5.171475887298584,6.931213855743408,11.7950439453125,-16.7388916015625,-15.1214599609375
0.5187499,8.923190116882324,-5.12119722366333,6.8162922859191895,11.199951171875,-19.0277099609375,-15.0146484375
0.5212499,8.925583839416504,-5.0685248374938965,6.682217121124268,10.4217529296875,-21.240234375,-14.7857666015625
0.5237499,8.923190116882324,-5.023035049438477,6.5481414794921875,9.5672607421875,-23.5443115234375,-14.58740234375
0.5262499,8.918401718139648,-4.972756862640381,6.411672115325928,8.7738037109375,-25.6500244140625,-14.892578125
0.5287499,8.916007041931152,-4.927267074584961,6.291962146759033,7.7362060546875,-27.8167724609375,-14.9383544921875
0.5312499,8.911218643188477,-4.867412090301514,6.189011573791504,6.9580078125,-30.1666259765625,-14.6484375
0.5337499,8.918401718139648,-4.809951305389404,6.095637321472168,5.706787109375,-32.2418212890625,-14.678955078125
0.5362499000000001,8.93037223815918,-4.73573112487793,6.016628742218018,4.6539306640625,-34.1796875,-14.70947265625
0.5387499,8.956708908081055,-4.654327869415283,5.949591159820557,3.7994384765625,-36.3006591796875,-14.739990234375
0.5412499000000001,8.99740982055664,-4.5609540939331055,5.87776517868042,2.471923828125,-38.2080078125,-14.8468017578125
0.5437499,9.038111686706543,-4.46518611907959,5.839457988739014,0.67138671875,-39.61181640625,-14.678955078125
0.5462499000000001,9.095572471618652,-4.381389141082764,5.791574001312256,-0.67138671875,-41.168212890625,-14.9993896484375
0.5487499,9.14345645904541,-4.302380561828613,5.765237808227539,-1.52587890625,-43.0450439453125,-15.289306640625
0.5512499000000001,9.191340446472168,-4.23773717880249,5.738901615142822,-3.0517578125,-44.3115234375,-15.5181884765625
0.5537499,9.229647636413574,-4.185064792633057,5.70777702331543,-4.4708251953125,-45.5169677734375,-15.6402587890625
0.5562499000000001,9.258378028869629,-4.127603530883789,5.671864032745361,-5.767822265625,-46.722412109375,-15.7318115234375
0.5587499,9.27034854888916,-4.079719543457031,5.633556365966797,-7.1563720703125,-47.54638671875,-15.777587890625
0.5612499000000001,9.27034854888916,-4.034229755401611,5.583278179168701,-8.3160400390625,-48.553466796875,-15.80810546875
0.5637499,9.255983352661133,-3.9911341667175293,5.521028995513916,-9.7198486328125,-49.3316650390625,-15.4876708984375
0.5662499000000001,9.229647636413574,-3.955221176147461,5.446808815002441,-11.3372802734375,-49.9267578125,-15.44189453125
0.5687499,9.196128845214844,-3.9169139862060547,5.365406036376953,-12.9241943359375,-50.3082275390625,-15.56396484375
0.5712499000000001,9.148244857788086,-3.8810009956359863,5.279214859008789,-14.4500732421875,-50.7354736328125,-15.7928466796875
0.5737499,9.090784072875977,-3.84269380569458,5.195417881011963,-15.869140625,-51.116943359375,-15.68603515625
0.5762499000000001,9.01895809173584,-3.8091750144958496,5.102043628692627,-17.39501953125,-51.4984130859375,-15.350341796875
0.5787499,8.932766914367676,-3.773261785507202,5.011064052581787,-18.85986328125,-51.7425537109375,-15.380859375
0.5812499,8.846575736999512,-3.73016619682312,4.912901878356934,-20.1873779296875,-52.215576171875,-15.2740478515625
0.5837499,8.757989883422852,-3.6822822093963623,4.812345504760742,-21.6217041015625,-52.3834228515625,-15.2587890625
0.5862499,8.671798706054688,-3.627215623855591,4.709394931793213,-22.94921875,-52.4444580078125,-15.2130126953125
0.5887499,8.588001251220703,-3.5745432376861572,4.606443881988525,-24.139404296875,-52.9022216796875,-15.3656005859375
0.5912499,8.504204750061035,-3.5170822143554688,4.508281707763672,-25.2838134765625,-53.2379150390625,-15.56396484375
0.5937499,8.413225173950195,-3.464409828186035,4.412513732910156,-26.4739990234375,-53.4210205078125,-15.3961181640625
0.5962499,8.322244644165039,-3.4141316413879395,4.314351558685303,-27.7252197265625,-53.7261962890625,-15.5487060546875
0.5987499000000001,8.226476669311523,-3.3638534545898438,4.223371982574463,-28.533935546875,-54.0924072265625,-15.533447265625
0.6012499,8.130708694458008,-3.3255462646484375,4.137180328369141,-29.632568359375,-54.0618896484375,-15.3961181640625
0.6037499000000001,8.032546997070312,-3.287238836288452,4.046200752258301,-30.2734375,-54.1229248046875,-15.3961181640625
0.6062499,7.943961143493652,-3.251325845718384,3.9647979736328125,-30.9600830078125,-54.3060302734375,-15.3656005859375
0.6087499000000001,7.85537576675415,-3.2297780513763428,3.883395195007324,-31.7230224609375,-54.412841796875,-15.4266357421875
0.6112499,7.778761386871338,-3.2082302570343018,3.799597978591919,-32.16552734375,-54.4281005859375,-15.44189453125
0.6137499000000001,7.702147006988525,-3.1962592601776123,3.7229835987091064,-32.623291015625,-54.4891357421875,-15.13671875
0.6162499,7.625532627105713,-3.1890766620635986,3.648763418197632,-32.89794921875,-54.6112060546875,-15.380859375
0.6187499000000001,7.548917770385742,-3.181894063949585,3.5745432376861572,-32.9132080078125,-54.6112060546875,-15.0909423828125
0.6212499,7.4770917892456055,-3.1699230670928955,3.509899616241455,-32.6385498046875,-54.74853515625,-14.739990234375
0.6237499000000001,7.405265808105469,-3.157952070236206,3.445256233215332,-32.623291015625,-54.7027587890625,-14.5721435546875
0.6262499,7.340622425079346,-3.1483752727508545,3.3901896476745605,-32.379150390625,-54.656982421875,-14.46533203125
0.6287499000000001,7.280767440795898,-3.138798475265503,3.337517261505127,-31.9366455078125,-54.5196533203125,-14.0228271484375
0.6312499,7.220912456512451,-3.138798475265503,3.292027235031128,-31.524658203125,-54.443359375,-13.6871337890625
0.6337499000000001,7.156269073486328,-3.138798475265503,3.2585084438323975,-31.0821533203125,-54.2449951171875,-13.2293701171875
0.6362499,7.091625213623047,-3.141192674636841,3.2345664501190186,-30.3497314453125,-53.955078125,-12.9547119140625
0.6387499000000001,7.024587631225586,-3.1435868740081787,3.220201253890991,-29.7088623046875,-53.5430908203125,-12.2528076171875
0.6412499,6.962338447570801,-3.138798475265503,3.201047658920288,-28.900146484375,-53.131103515625,-11.8408203125
0.6437499,6.907271862030029,-3.138798475265503,3.181894063949585,-27.9998779296875,-52.5970458984375,-11.474609375
0.6462499,6.861782073974609,-3.1268274784088135,3.157952070236206,-26.9775390625,-52.2308349609375,-10.7574462890625
0.6487499,6.825869083404541,-3.1100680828094482,3.136404275894165,-26.06201171875,-51.4068603515625,-10.284423828125
0.6512499,6.801927089691162,-3.0837318897247314,3.1004912853240967,-25.1312255859375,-50.5828857421875,-9.7198486328125
0.6537499,6.787561893463135,-3.047818660736084,3.069366693496704,-24.139404296875,-50.0946044921875,-8.97216796875
0.6562499,6.780379295349121,-3.00711727142334,3.026270866394043,-22.8729248046875,-49.4384765625,-8.36181640625
0.6587499,6.7708024978637695,-2.9664158821105957,2.9879636764526367,-21.8658447265625,-48.5382080078125,-7.720947265625
0.6612499000000001,6.763619899749756,-2.9257144927978516,2.9544448852539062,-20.9197998046875,-47.5006103515625,-7.38525390625
0.6637499,6.7492547035217285,-2.8850131034851074,2.9281086921691895,-19.7601318359375,-46.8597412109375,-6.8817138671875
0.6662499000000001,6.732495307922363,-2.849100112915039,2.9089550971984863,-18.6614990234375,-46.173095703125,-6.195068359375
0.6687499,6.718130111694336,-2.8155810832977295,2.8993782997131348,-17.547607421875,-45.196533203125,-5.5084228515625
0.6712499000000001,6.698976516723633,-2.786850690841675,2.896984100341797,-16.3726806640625,-44.2657470703125,-4.9591064453125
0.6737499,6.67982292175293,-2.760514497756958,2.9041666984558105,-15.594482421875,-43.39599609375,-4.608154296875
0.6762499000000001,6.653486728668213,-2.738966703414917,2.918531894683838,-14.6636962890625,-42.05322265625,-3.936767578125
0.6787499,6.619967937469482,-2.7293899059295654,2.9281086921691895,-13.458251953125,-40.9698486328125,-3.2806396484375
0.6812499000000001,6.57926607131958,-2.719813108444214,2.9472622871398926,-12.4053955078125,-39.9017333984375,-2.8533935546875
0.6837499,6.536170482635498,-2.715024709701538,2.959233283996582,-11.1846923828125,-38.665771484375,-1.953125
0.6862499000000001,6.497863292694092,-2.7054479122161865,2.9688100814819336,-9.979248046875,-37.5518798828125,-1.1138916015625
0.6887499,6.466738700866699,-2.693476915359497,2.9664158821105957,-9.0179443359375,-36.2548828125,-0.640869140625
0.6912499000000001,6.4380083084106445,-2.6791117191314697,2.9544448852539062,-7.87353515625,-34.7747802734375,0.0152587890625
0.6937499,6.4164605140686035,-2.6671407222747803,2.935291290283203,-6.866455078125,-33.7066650390625,0.6866455078125
0.6962499000000001,6.399701118469238,-2.655169725418091,2.9065608978271484,-5.9356689453125,-32.1502685546875,1.312255859375
0.6987499,6.380547523498535,-2.6455929279327393,2.8802247047424316,-4.9591064453125,-30.82275390625,1.8310546875
0.7012499000000001,6.366182327270508,-2.6384103298187256,2.853888511657715,-4.21142578125,-29.4189453125,2.410888671875
0.7037499,6.3518171310424805,-2.6384103298187256,2.829946517944336,-3.448486328125,-28.045654296875,3.23486328125
0.7062499,6.344634532928467,-2.6408045291900635,2.8107926845550537,-2.7008056640625,-26.7181396484375,3.9520263671875
0.7087499,6.344634532928467,-2.647987127304077,2.7892448902130127,-2.3193359375,-25.3143310546875,4.425048828125
0.7112499,6.349422931671143,-2.655169725418091,2.7676970958709717,-1.556396484375,-23.7579345703125,4.9896240234375
0.7137499,6.354211330413818,-2.6623523235321045,2.7461493015289307,-1.0986328125,-22.5830078125,5.55419921875
0.7162499,6.3518171310424805,-2.669534921646118,2.7317841053009033,-0.762939453125,-21.1029052734375,6.011962890625
0.7187499,6.347028732299805,-2.676717519760132,2.7269957065582275,-0.30517578125,-19.7601318359375,6.439208984375
0.7212499,6.339846134185791,-2.6815059185028076,2.7269957065582275,0.1373291015625,-18.2037353515625,6.8359375
0.7237499000000001,6.332663536071777,-2.6791117191314697,2.734178304672241,0.3662109375,-16.8914794921875,7.3699951171875
0.7262499,6.327875137329102,-2.6791117191314697,2.7437551021575928,0.67138671875,-15.3350830078125,7.7056884765625
0.7287499000000001,6.325480937957764,-2.674323320388794,2.7533318996429443,1.007080078125,-13.9007568359375,8.1024169921875
0.7312499,6.332663536071777,-2.671929121017456,2.760514497756958,1.190185546875,-12.603759765625,8.48388671875
0.7337499000000001,6.339846134185791,-2.671929121017456,2.7700912952423096,1.129150390625,-10.986328125,8.7432861328125
0.7362499,6.354211330413818,-2.676717519760132,2.779668092727661,1.2359619140625,-9.307861328125,9.368896484375
0.7387499000000001,6.36378812789917,-2.691082715988159,2.7892448902130127,1.28173828125,-7.6904296875,9.368896484375
0.7412499,6.375759124755859,-2.7078421115875244,2.806004285812378,1.3275146484375,-6.3629150390625,9.613037109375
0.7437499000000001,6.382941722869873,-2.7269957065582275,2.8227639198303223,1.28173828125,-4.7149658203125,9.70458984375
0.7462499,6.3949127197265625,-2.7461493015289307,2.8371291160583496,1.220703125,-3.326416015625,9.7503662109375
0.7487499000000001,6.406883716583252,-2.760514497756958,2.851494312286377,1.2664794921875,-1.7242431640625,10.040283203125
0.7512499,6.426037311553955,-2.779668092727661,2.8658595085144043,1.15966796875,-0.18310546875,10.1776123046875
0.7537499000000001,6.457161903381348,-2.7964274883270264,2.8778305053710938,1.1749267578125,0.9765625,10.406494140625
0.7562499,6.497863292694092,-2.8203697204589844,2.8874073028564453,1.068115234375,2.685546875,10.2081298828125
0.7587499000000001,6.550535678863525,-2.846705913543701,2.9041666984558105,0.91552734375,4.0130615234375,10.4827880859375
0.7612499,6.605602264404297,-2.8850131034851074,2.9233202934265137,0.8087158203125,5.615234375,10.3607177734375
0.7637499000000001,6.6630635261535645,-2.9281086921691895,2.959233283996582,0.579833984375,7.049560546875,10.5743408203125
0.7662499,6.722918510437012,-2.9759926795959473,3.004723072052002,0.518798828125,8.4686279296875,10.589599609375
0.7687499000000001,6.777985095977783,-3.0358476638793945,3.0573954582214355,0.396728515625,9.9334716796875,10.833740234375
0.7712499,6.833051681518555,-3.095702886581421,3.114856481552124,0.3814697265625,11.322021484375,11.016845703125
0.7737499,6.888118267059326,-3.162740468978882,3.1747114658355713,0.3509521484375,12.847900390625,11.2152099609375
0.7762499,6.936002254486084,-3.224989652633667,3.2321722507476807,0.5645751953125,14.251708984375,11.505126953125
0.7787499,6.988674640655518,-3.2848446369171143,3.292027235031128,0.54931640625,15.899658203125,11.7034912109375
0.7812499,7.0341644287109375,-3.335123062133789,3.3470940589904785,0.8087158203125,17.3187255859375,11.993408203125
0.7837499,7.082048416137695,-3.380612850189209,3.40216064453125,1.3275146484375,18.73779296875,12.237548828125
0.7862499000000001,7.127538681030273,-3.421314239501953,3.450044631958008,1.6021728515625,20.08056640625,12.3138427734375
0.7887499,7.16584587097168,-3.464409828186035,3.488351821899414,1.9378662109375,21.3775634765625,12.5732421875
0.7912499000000001,7.204153060913086,-3.509899616241455,3.5194764137268066,2.593994140625,22.52197265625,12.9852294921875
0.7937499,7.240066051483154,-3.5625722408294678,3.5386300086975098,3.0517578125,23.6053466796875,13.1683349609375
0.7962499000000001,7.271190643310547,-3.620033025741577,3.552995204925537,3.692626953125,24.9176025390625,13.4429931640625
0.7987499,7.304709434509277,-3.6727054119110107,3.5625722408294678,4.547119140625,26.092529296875,13.6566162109375
0.8012499000000001,7.33583402633667,-3.7253777980804443,3.5673606395721436,5.5999755859375,26.9317626953125,14.1143798828125
0.8037499,7.359776020050049,-3.778050184249878,3.5745432376861572,6.89697265625,27.6031494140625,14.34326171875
0.8062499000000001,7.383718013763428,-3.8355112075805664,3.581725835800171,7.9345703125,28.3660888671875,14.4195556640625
0.8087499,7.402871608734131,-3.909731388092041,3.5936968326568604,9.09423828125,28.99169921875,14.984130859375
0.8112499000000001,7.422025203704834,-4.003105163574219,3.6080620288848877,10.5133056640625,29.4952392578125,15.5181884765625
0.8137499,7.433996200561523,-4.10366153717041,3.6296098232269287,12.0391845703125,30.0140380859375,16.082763671875
0.8162499000000001,7.453149795532227,-4.218583583831787,3.6511576175689697,13.5650634765625,30.45654296875,16.7388916015625
0.8187499,7.47230339050293,-4.331110954284668,3.6846764087677,14.8468017578125,30.94482421875,17.1661376953125
0.8212499000000001,7.501033782958984,-4.443638324737549,3.7181951999664307,16.4947509765625,31.18896484375,17.852783203125
0.8237499,7.534552574157715,-4.55616569519043,3.756502389907837,18.310546875,31.6619873046875,18.707275390625
0.8262499000000001,7.575253963470459,-4.659116744995117,3.797203779220581,19.8516845703125,32.0892333984375,19.5159912109375
0.8287499,7.625532627105713,-4.7620673179626465,3.8283286094665527,21.636962890625,32.135009765625,20.416259765625
0.8312499000000001,7.6782050132751465,-4.857835292816162,3.861847400665283,23.3306884765625,32.470703125,20.9808349609375
0.8337499,7.738059997558594,-4.944026470184326,3.890577793121338,25.2838134765625,32.9742431640625,21.759033203125
0.8362499,7.802703380584717,-5.0254292488098145,3.9193081855773926,27.2674560546875,33.1878662109375,22.6898193359375
0.8387499,7.869740962982178,-5.104437828063965,3.950432777404785,29.4036865234375,32.89794921875,23.529052734375
0.8412499,7.9415669441223145,-5.185841083526611,3.9863457679748535,31.7230224609375,33.1268310546875,23.92578125
0.8437499,8.01339340209961,-5.272032260894775,4.02465295791626,34.088134765625,32.989501953125,24.6734619140625
0.8462499,8.08282470703125,-5.363011837005615,4.07014274597168,36.6973876953125,32.867431640625,25.45166015625
0.8487499000000001,8.149862289428711,-5.456385612487793,4.110844135284424,39.5355224609375,32.6995849609375,26.153564453125
0.8512499,8.209717750549316,-5.547365188598633,4.146757125854492,42.327880859375,32.53173828125,26.824951171875
0.8537499000000001,8.274360656738281,-5.633556365966797,4.173093795776367,45.1202392578125,32.2265625,27.374267578125
0.8562499,8.329427719116211,-5.714959621429443,4.1874589920043945,48.065185546875,31.73828125,27.984619140625
0.8587499000000001,8.379706382751465,-5.78678560256958,4.197035789489746,51.1932373046875,31.0821533203125,28.7933349609375
0.8612499,8.422801971435547,-5.851428985595703,4.20421838760376,54.443359375,30.4718017578125,29.2816162109375
0.8637499000000001,8.461109161376953,-5.894524574279785,4.220977783203125,57.1746826171875,29.8004150390625,29.72412109375
0.8662499,8.492233276367188,-5.932831764221191,4.23773717880249,59.722900390625,29.3731689453125,30.120849609375
0.8687499000000001,8.525752067565918,-5.954379558563232,4.264073371887207,62.652587890625,28.6865234375,30.4107666015625
0.8712499,8.559270858764648,-5.971138954162598,4.288015365600586,65.0177001953125,28.01513671875,30.7769775390625
0.8737499000000001,8.588001251220703,-5.978321552276611,4.304774761199951,67.5048828125,27.5421142578125,30.8380126953125
0.8762499,8.616731643676758,-5.978321552276611,4.323928356170654,69.88525390625,26.79443359375,30.9295654296875
0.8787499000000001,8.633491516113281,-5.975927352905273,4.3406877517700195,72.0367431640625,26.0467529296875,30.731201171875
0.8812499,8.655038833618164,-5.966350555419922,4.3622355461120605,74.005126953125,25.45166015625,30.487060546875
0.8837499000000001,8.674192428588867,-5.961562156677246,4.393360137939453,75.6683349609375,24.4598388671875,30.487060546875
0.8862499,8.695740699768066,-5.9519853591918945,4.424484729766846,77.2705078125,23.6663818359375,30.548095703125
0.8887499000000001,8.7268648147583,-5.935225963592529,4.462791919708252,78.6285400390625,22.8118896484375,30.364990234375
0.8912499,8.760383605957031,-5.901707172393799,4.49870491027832,79.3914794921875,21.7437744140625,30.181884765625
0.8937499000000001,8.798690795898438,-5.846640586853027,4.5394062995910645,80.0018310546875,21.0723876953125,29.541015625
0.8962499,8.841787338256836,-5.770026206970215,4.580107688903809,80.230712890625,20.20263671875,29.083251953125
0.8987499,8.875306129455566,-5.669469833374023,4.627991676330566,79.8797607421875,19.439697265625,28.5797119140625
0.9012499,8.9064302444458,-5.552153587341309,4.671087741851807,79.2694091796875,18.12744140625,27.83203125
0.9037499,8.932766914367676,-5.420472621917725,4.714183330535889,78.1707763671875,17.3187255859375,26.9622802734375
0.9062499,8.944737434387207,-5.284003257751465,4.752490520477295,76.263427734375,16.2811279296875,25.970458984375
0.9087499,8.951920509338379,-5.140350818634033,4.776432514190674,73.91357421875,15.625,24.6734619140625
0.9112499000000001,8.951920509338379,-4.999093055725098,4.788403511047363,71.3958740234375,14.801025390625,23.834228515625
0.9137499,8.949525833129883,-4.850652694702148,4.786009311676025,67.9168701171875,13.7481689453125,22.6593017578125
0.9162499000000001,8.954314231872559,-4.709394931793213,4.774038314819336,64.056396484375,12.7716064453125,21.1639404296875
0.9187499,8.96389102935791,-4.570530891418457,4.7620673179626465,60.1654052734375,11.6119384765625,19.8516845703125
0.9212499000000001,8.975862503051758,-4.436455726623535,4.754884719848633,55.1300048828125,10.6964111328125,18.218994140625
0.9237499,8.999804496765137,-4.309563159942627,4.752490520477295,49.86572265625,9.918212890625,16.6015625
0.9262499000000001,9.026140213012695,-4.1874589920043945,4.7620673179626465,44.097900390625,8.9569091796875,14.9078369140625
0.9287499,9.05487060546875,-4.0749311447143555,4.771644115447998,37.7960205078125,7.9345703125,13.153076171875
0.9312499000000001,9.074024200439453,-3.971980571746826,4.786009311676025,31.494140625,7.080078125,11.3983154296875
0.9337499,9.081207275390625,-3.8810009956359863,4.797980308532715,24.658203125,6.1492919921875,9.7503662109375
0.9362499000000001,9.069235801696777,-3.799597978591919,4.81473970413208,17.5323486328125,5.4168701171875,8.026123046875
0.9387499,9.040505409240723,-3.7277719974517822,4.829104900360107,10.31494140625,4.57763671875,6.1492919921875
0.9412499000000001,9.002198219299316,-3.663128614425659,4.845864295959473,3.3416748046875,3.8604736328125,4.4097900390625
0.9437499,8.96149730682373,-3.598485231399536,4.857835292816162,-4.0435791015625,3.082275390625,2.74658203125
0.9462499000000001,8.911218643188477,-3.536235809326172,4.867412090301514,-11.5203857421875,2.6397705078125,0.7781982421875
0.9487499,8.865729331970215,-3.488351821899414,4.865017890930176,-18.85986328125,2.01416015625,-1.1444091796875
0.9512499000000001,8.81784439086914,-3.44765043258667,4.862623691558838,-26.153564453125,1.4190673828125,-2.74658203125
0.9537499,8.765172004699707,-3.426102638244629,4.845864295959473,-33.50830078125,0.7781982421875,-4.6844482421875
0.9562499000000001,8.719682693481445,-3.421314239501953,4.824316501617432,-40.4815673828125,0.1678466796875,-6.40869140625
0.9587499,8.671798706054688,-3.4404678344726562,4.802768707275391,-47.4090576171875,-0.5340576171875,-7.904052734375
0.9612499,8.628703117370605,-3.4763808250427246,4.78122091293335,-53.802490234375,-1.3275146484375,-9.3841552734375
0.9637499,8.583212852478027,-3.5386300086975098,4.771644115447998,-59.7381591796875,-2.01416015625,-10.7421875
0.9662499,8.53532886505127,-3.6104562282562256,4.771644115447998,-65.399169921875,-2.685546875,-12.237548828125
0.9687499,8.480262756347656,-3.689464807510376,4.78122091293335,-70.6939697265625,-3.3111572265625,-13.2598876953125
0.9712499,8.42040729522705,-3.77565598487854,4.790797710418701,-75.5157470703125,-3.936767578125,-14.373779296875
0.9737499000000001,8.348581314086914,-3.861847400665283,4.802768707275391,-79.864501953125,-4.21142578125,-15.7470703125
0.9762499,8.274360656738281,-3.9480385780334473,4.81473970413208,-83.8165283203125,-4.94384765625,-16.4794921875
0.9787499000000001,8.197746276855469,-4.027047157287598,4.821922302246094,-87.249755859375,-5.6610107421875,-17.181396484375
0.9812499,8.125920295715332,-4.108449935913086,4.824316501617432,-89.90478515625,-6.103515625,-18.06640625
0.9837499000000001,8.063671112060547,-4.185064792633057,4.819528102874756,-92.2393798828125,-6.3934326171875,-18.73779296875
0.9862499,8.01339340209961,-4.259284973144531,4.8051629066467285,-94.0093994140625,-6.9427490234375,-19.3939208984375
0.9887499000000001,7.970297336578369,-4.3406877517700195,4.788403511047363,-95.367431640625,-7.5225830078125,-19.8974609375
0.9912499,7.936778545379639,-4.41969633102417,4.771644115447998,-96.343994140625,-8.056640625,-20.0653076171875
0.9937499000000001,7.903259754180908,-4.49870491027832,4.754884719848633,-96.954345703125,-8.270263671875,-20.3399658203125
0.9962499,7.864952564239502,-4.575319290161133,4.742913722991943,-97.0611572265625,-8.4075927734375,-20.5078125
0.9987499000000001,7.826645374298096,-4.644751071929932,4.742913722991943,-96.221923828125,-9.185791015625,-20.5230712890625
1.0012499,7.785943984985352,-4.704606533050537,4.747702121734619,-94.9554443359375,-9.674072265625,-20.6146240234375
1.0037498999999999,7.745242595672607,-4.766855716705322,4.7620673179626465,-93.536376953125,-9.82666015625,-20.56884765625
1.0062499,7.706935405731201,-4.821922302246094,4.778826713562012,-91.5069580078125,-9.9945068359375,-20.294189453125
1.0087499,7.673416614532471,-4.881777286529541,4.790797710418701,-88.92822265625,-10.406494140625,-20.0653076171875
1.0112499,7.637503623962402,-4.941632270812988,4.800374507904053,-86.212158203125,-10.467529296875,-19.83642578125
1.0137498999999999,7.603984832763672,-4.999093055725098,4.809951305389404,-83.1146240234375,-10.6201171875,-19.2718505859375
1.0162499,7.560888767242432,-5.054159641265869,4.81473970413208,-79.9407958984375,-10.8795166015625,-18.6614990234375
1.0187499,7.513004779815674,-5.092466831207275,4.819528102874756,-76.446533203125,-10.8489990234375,-18.0511474609375
1.0212499,7.465120792388916,-5.125985622406006,4.817133903503418,-72.662353515625,-10.711669921875,-17.3187255859375
1.0237498999999999,7.417236804962158,-5.152322292327881,4.809951305389404,-69.1070556640625,-10.6353759765625,-16.845703125
1.0262498999999998,7.374141216278076,-5.173870086669922,4.7836151123046875,-65.0634765625,-10.7421875,-15.9759521484375
1.0287499,7.328651428222656,-5.195417881011963,4.752490520477295,-60.72998046875,-10.8489990234375,-15.2587890625
1.0312499,7.283161640167236,-5.214571475982666,4.711789131164551,-56.6253662109375,-10.5743408203125,-14.2822265625
1.0337498999999999,7.24485445022583,-5.219359874725342,4.668693542480469,-52.24609375,-10.3302001953125,-13.3209228515625
1.0362498999999998,7.216124057769775,-5.214571475982666,4.632780075073242,-47.9278564453125,-10.3302001953125,-12.5579833984375
1.0387499,7.204153060913086,-5.193023681640625,4.60165548324585,-43.9300537109375,-10.101318359375,-11.65771484375
1.0412499,7.201758861541748,-5.166687488555908,4.577713489532471,-39.6270751953125,-10.07080078125,-10.6964111328125
1.0437499,7.216124057769775,-5.1331682205200195,4.5609540939331055,-35.3851318359375,-9.7503662109375,-9.6282958984375
1.0462498999999998,7.230489253997803,-5.099649429321289,4.548983097076416,-31.280517578125,-9.307861328125,-8.7432861328125
1.0487499,7.254431247711182,-5.066130638122559,4.534617900848389,-27.130126953125,-9.124755859375,-7.8887939453125
1.0512499,7.268796443939209,-5.027823448181152,4.525041103363037,-23.4832763671875,-8.697509765625,-6.8359375
1.0537499,7.2783732414245605,-4.98472785949707,4.505887508392334,-19.6075439453125,-8.270263671875,-5.828857421875
1.0562498999999999,7.273584842681885,-4.9368438720703125,4.489128112792969,-16.204833984375,-8.209228515625,-5.0048828125
1.0587499,7.2568254470825195,-4.888959884643555,4.46518611907959,-12.51220703125,-7.720947265625,-4.119873046875
1.0612499,7.232883453369141,-4.841075897216797,4.431667327880859,-9.5977783203125,-7.110595703125,-3.387451171875
1.0637499,7.201758861541748,-4.795586109161377,4.395754337310791,-6.8359375,-6.683349609375,-2.4871826171875
1.0662498999999999,7.175422668457031,-4.747702121734619,4.350264549255371,-3.6773681640625,-6.40869140625,-1.708984375
1.0687499,7.151480674743652,-4.692635536193848,4.299986362457275,-1.220703125,-6.0272216796875,-0.732421875
1.0712499,7.132327079772949,-4.627991676330566,4.24970817565918,1.0833740234375,-5.4168701171875,-0.1373291015625
1.0737499,7.122750282287598,-4.5609540939331055,4.199429988861084,2.9754638671875,-5.0048828125,0.5035400390625
1.0762498999999999,7.117961883544922,-4.491522312164307,4.156333923339844,4.7149658203125,-4.4708251953125,1.068115234375
1.0787499,7.127538681030273,-4.41969633102417,4.113238334655762,6.256103515625,-3.90625,1.52587890625
1.0812499,7.141903877258301,-4.347870349884033,4.082113742828369,7.476806640625,-3.3721923828125,2.0294189453125
1.0837499,7.163451671600342,-4.273650169372559,4.046200752258301,8.514404296875,-2.8533935546875,2.1209716796875
1.0862498999999999,7.180211067199707,-4.197035789489746,4.019864559173584,9.1094970703125,-2.3193359375,2.471923828125
1.0887499,7.194576263427734,-4.122815132141113,3.9911341667175293,9.58251953125,-1.8157958984375,2.6702880859375
1.0912499,7.204153060913086,-4.055777549743652,3.9647979736328125,10.040283203125,-1.2054443359375,2.6092529296875
1.0937499,7.2113356590271,-3.9911341667175293,3.9432501792907715,10.0555419921875,-0.732421875,2.655029296875
1.0962498999999999,7.218518257141113,-3.9384617805480957,3.9193081855773926,10.040283203125,-0.4119873046875,2.6702880859375
1.0987498999999998,7.223306655883789,-3.8953661918640137,3.8977603912353516,9.8876953125,0.274658203125,2.5787353515625
1.1012499,7.228095054626465,-3.8570590019226074,3.8738183975219727,9.3536376953125,0.885009765625,2.9296875
1.1037499,7.230489253997803,-3.8355112075805664,3.8522706031799316,8.758544921875,1.434326171875,2.8228759765625
1.1062499,7.232883453369141,-3.8115692138671875,3.825934410095215,7.8887939453125,1.8463134765625,2.62451171875
1.1087498999999998,7.232883453369141,-3.797203779220581,3.8115692138671875,6.8359375,2.38037109375,2.7313232421875
1.1112499,7.2352776527404785,-3.77565598487854,3.799597978591919,5.889892578125,2.9296875,2.74658203125
1.1137499,7.2352776527404785,-3.7493197917938232,3.801992416381836,4.8980712890625,3.326416015625,2.6702880859375
1.1162499,7.240066051483154,-3.7181951999664307,3.804386615753174,3.7689208984375,3.8604736328125,2.5177001953125
1.1187498999999999,7.24485445022583,-3.6846764087677,3.804386615753174,2.5634765625,4.1961669921875,2.4871826171875
1.1212499,7.252037048339844,-3.6511576175689697,3.8091750144958496,1.2969970703125,4.3792724609375,2.410888671875
1.1237499,7.259219646453857,-3.622427225112915,3.8067808151245117,-0.0152587890625,4.7149658203125,2.4261474609375
1.1262499,7.266402244567871,-3.60566782951355,3.818751811981201,-1.312255859375,5.3863525390625,2.044677734375
1.1287498999999999,7.273584842681885,-3.5936968326568604,3.823540210723877,-2.685546875,5.157470703125,1.89208984375
1.1312499,7.280767440795898,-3.5913026332855225,3.8283286094665527,-4.21142578125,5.3558349609375,1.8157958984375
1.1337499,7.29034423828125,-3.598485231399536,3.8067808151245117,-5.706787109375,5.4931640625,1.6021728515625
1.1362499,7.287950038909912,-3.60566782951355,3.758896589279175,-6.9122314453125,5.43212890625,1.5411376953125
1.1387498999999999,7.29034423828125,-3.6104562282562256,3.689464807510376,-8.5601806640625,5.2032470703125,1.4495849609375
1.1412499,7.283161640167236,-3.6128504276275635,3.6104562282562256,-10.4217529296875,4.8065185546875,1.1444091796875
1.1437499,7.29034423828125,-3.60566782951355,3.5458126068115234,-11.962890625,4.5013427734375,1.3275146484375
1.1462499,7.297526836395264,-3.5960910320281982,3.5051112174987793,-13.5498046875,4.058837890625,1.251220703125
1.1487498999999999,7.319074630737305,-3.581725835800171,3.490746021270752,-15.411376953125,3.72314453125,0.946044921875
1.1512499,7.3454108238220215,-3.5721490383148193,3.507505416870117,-17.181396484375,3.6163330078125,0.8697509765625
1.1537499,7.3693528175354,-3.5721490383148193,3.5386300086975098,-18.768310546875,3.4332275390625,1.007080078125
1.1562499,7.3885064125061035,-3.5865142345428467,3.581725835800171,-20.44677734375,3.2806396484375,1.1444091796875
1.1587498999999999,7.395689010620117,-3.6080620288848877,3.627215623855591,-22.064208984375,3.0975341796875,1.2359619140625
1.1612498999999998,7.398083209991455,-3.646369218826294,3.667917013168335,-23.1781005859375,2.7008056640625,1.1444091796875
1.1637499,7.395689010620117,-3.689464807510376,3.711012601852417,-24.5819091796875,2.7008056640625,1.312255859375
1.1662499,7.400477409362793,-3.734954595565796,3.7493197917938232,-25.7110595703125,2.5177001953125,1.6326904296875
1.1687499,7.407660007476807,-3.7876269817352295,3.7924153804779053,-26.9012451171875,2.471923828125,1.6632080078125
1.1712498999999998,7.42681360244751,-3.840299606323242,3.8355112075805664,-27.6641845703125,2.3040771484375,2.01416015625
1.1737499,7.445967197418213,-3.8977603912353516,3.8810009956359863,-28.2745361328125,2.1820068359375,2.593994140625
1.1762499,7.47230339050293,-3.950432777404785,3.9240965843200684,-28.80859375,1.9989013671875,2.838134765625
1.1787499,7.501033782958984,-4.003105163574219,3.9600095748901367,-29.3121337890625,2.3193359375,3.0059814453125
1.1812498999999999,7.532158374786377,-4.046200752258301,3.9863457679748535,-29.6783447265625,2.0904541015625,3.4637451171875
1.1837499,7.568071365356445,-4.089296340942383,4.003105163574219,-29.8614501953125,2.288818359375,3.875732421875
1.1862499,7.601590633392334,-4.132391929626465,4.0078935623168945,-29.5867919921875,2.1209716796875,4.425048828125
1.1887499,7.632715225219727,-4.175487995147705,4.0078935623168945,-29.052734375,1.953125,4.8828125
1.1912498999999999,7.654263019561768,-4.220977783203125,3.998316764831543,-28.289794921875,2.0599365234375,5.2032470703125
1.1937499,7.666234016418457,-4.271255970001221,3.9839515686035156,-27.3284912109375,1.8768310546875,5.828857421875
1.1962499,7.673416614532471,-4.321534156799316,3.9695863723754883,-26.30615234375,1.861572265625,6.4697265625
1.1987499,7.675810813903809,-4.376600742340088,3.952826976776123,-25.32958984375,1.8463134765625,6.927490234375
1.2012498999999999,7.690176010131836,-4.477157115936279,3.9384617805480957,-22.857666015625,1.5869140625,8.4991455078125
1.2037499,7.690176010131836,-4.477157115936279,3.9384617805480957,-22.857666015625,1.5869140625,8.4991455078125
1.2062499,7.704541206359863,-4.563348293304443,3.93367338180542,-19.744873046875,1.6937255859375,9.6282958984375
1.2087499,7.704541206359863,-4.563348293304443,3.93367338180542,-19.744873046875,1.6937255859375,9.6282958984375
1.2112498999999999,7.716512203216553,-4.613626480102539,3.928884983062744,-16.693115234375,1.7242431640625,10.9100341796875
1.2137499,7.716512203216553,-4.613626480102539,3.928884983062744,-16.693115234375,1.7242431640625,10.9100341796875
1.2162499,7.723694801330566,-4.6255974769592285,3.912125587463379,-13.6260986328125,1.922607421875,12.0391845703125
1.2187499,7.723694801330566,-4.6255974769592285,3.912125587463379,-13.6260986328125,1.922607421875,12.0391845703125
1.2212498999999999,7.735665798187256,-4.6040496826171875,3.8714241981506348,-10.3607177734375,1.9378662109375,13.0767822265625
1.2237498999999998,7.735665798187256,-4.6040496826171875,3.8714241981506348,-10.3607177734375,1.9378662109375,13.0767822265625
1.2262499,7.769184589385986,-4.565742492675781,3.8546648025512695,-7.3089599609375,2.25830078125,14.0228271484375
1.2287499,7.769184589385986,-4.565742492675781,3.8546648025512695,-7.3089599609375,2.25830078125,14.0228271484375
1.2312499,7.826645374298096,-4.537012100219727,3.8738183975219727,-4.3792724609375,2.593994140625,14.373779296875
1.2337498999999998,7.826645374298096,-4.537012100219727,3.8738183975219727,-4.3792724609375,2.593994140625,14.373779296875
1.2362499,7.888894557952881,-4.522646903991699,3.892971992492676,-1.434326171875,2.7923583984375,14.7247314453125
1.2387499,7.888894557952881,-4.522646903991699,3.892971992492676,-1.434326171875,2.7923583984375,14.7247314453125
1.2412499,7.931990146636963,-4.513070106506348,3.9001545906066895,1.220703125,3.265380859375,14.6331787109375
1.2437498999999999,7.931990146636963,-4.513070106506348,3.9001545906066895,1.220703125,3.265380859375,14.6331787109375
1.2462499,7.970297336578369,-4.496310710906982,3.9169139862060547,3.509521484375,3.60107421875,14.7552490234375
1.2487499,7.970297336578369,-4.496310710906982,3.9169139862060547,3.509521484375,3.60107421875,14.7552490234375
1.2512499,8.010998725891113,-4.469974517822266,3.936067581176758,4.94384765625,4.08935546875,14.09912109375
1.2537498999999999,8.010998725891113,-4.469974517822266,3.936067581176758,4.94384765625,4.08935546875,14.09912109375
1.2562499,8.051700592041016,-4.436455726623535,3.952826976776123,5.9661865234375,4.638671875,13.73291015625
1.2587499,8.051700592041016,-4.436455726623535,3.952826976776123,5.9661865234375,4.638671875,13.73291015625
1.2612499,8.092401504516602,-4.393360137939453,3.9600095748901367,6.4544677734375,5.3863525390625,12.8631591796875
1.2637498999999999,8.092401504516602,-4.393360137939453,3.9600095748901367,6.4544677734375,5.3863525390625,12.8631591796875
1.2662499,8.145073890686035,-4.350264549255371,3.9600095748901367,6.3934326171875,5.5694580078125,11.9476318359375
1.2687499,8.145073890686035,-4.350264549255371,3.9600095748901367,6.3934326171875,5.5694580078125,11.9476318359375
1.2712499,8.190564155578613,-4.323928356170654,3.952826976776123,5.79833984375,6.011962890625,10.894775390625
1.2737498999999999,8.190564155578613,-4.323928356170654,3.952826976776123,5.79833984375,6.011962890625,10.894775390625
1.2762499,8.233659744262695,-4.314351558685303,3.950432777404785,4.9285888671875,6.16455078125,10.1318359375
1.2787499,8.233659744262695,-4.314351558685303,3.950432777404785,4.9285888671875,6.16455078125,10.1318359375
1.2812499,8.286332130432129,-4.331110954284668,3.971980571746826,4.1046142578125,6.5155029296875,8.8043212890625
1.2837498999999999,8.286332130432129,-4.331110954284668,3.971980571746826,4.1046142578125,6.5155029296875,8.8043212890625
1.2862498999999998,8.334216117858887,-4.369418144226074,4.0078935623168945,3.4027099609375,6.8817138671875,7.843017578125
1.2887499,8.334216117858887,-4.369418144226074,4.0078935623168945,3.4027099609375,6.8817138671875,7.843017578125
1.2912499,8.362946510314941,-4.412513732910156,4.02465295791626,2.4261474609375,7.14111328125,7.2021484375
1.2937499,8.362946510314941,-4.412513732910156,4.02465295791626,2.4261474609375,7.14111328125,7.2021484375
1.2962498999999998,8.370129585266113,-4.458003520965576,4.022258758544922,1.8463134765625,7.0343017578125,6.2408447265625
1.2987499,8.370129585266113,-4.458003520965576,4.022258758544922,1.8463134765625,7.0343017578125,6.2408447265625
1.3012499,8.358158111572266,-4.517858505249023,4.019864559173584,1.5869140625,7.1258544921875,5.4931640625
1.3037499,8.358158111572266,-4.517858505249023,4.019864559173584,1.5869140625,7.1258544921875,5.4931640625
1.3062498999999999,8.327033042907715,-4.568136692047119,4.010287761688232,1.5869140625,6.9122314453125,5.0048828125
1.3087499,8.327033042907715,-4.568136692047119,4.010287761688232,1.5869140625,6.9122314453125,5.0048828125
1.3112499,8.307879447937012,-4.58968448638916,3.97916316986084,1.678466796875,6.8359375,4.4708251953125
1.3137499,8.307879447937012,-4.58968448638916,3.97916316986084,1.678466796875,6.8359375,4.4708251953125
1.3162498999999999,8.312667846679688,-4.620809078216553,3.936067581176758,2.13623046875,6.28662109375,4.0740966796875
1.3187499,8.312667846679688,-4.620809078216553,3.936067581176758,2.13623046875,6.28662109375,4.0740966796875
1.3212499,8.315062522888184,-4.685452938079834,3.912125587463379,3.0059814453125,5.6915283203125,3.5552978515625
1.3237499,8.315062522888184,-4.685452938079834,3.912125587463379,3.0059814453125,5.6915283203125,3.5552978515625
1.3262498999999999,8.315062522888184,-4.766855716705322,3.9264907836914062,4.1351318359375,4.8980712890625,3.47900390625
1.3287499,8.315062522888184,-4.766855716705322,3.9264907836914062,4.1351318359375,4.8980712890625,3.47900390625
1.3312499,8.334216117858887,-4.8482584953308105,3.9815573692321777,5.584716796875,4.1046142578125,3.448486328125
1.3337499,8.334216117858887,-4.8482584953308105,3.9815573692321777,5.584716796875,4.1046142578125,3.448486328125
1.3362498999999999,8.38449478149414,-4.90571928024292,4.0533833503723145,7.32421875,3.5552978515625,3.387451171875
1.3387499,8.38449478149414,-4.90571928024292,4.0533833503723145,7.32421875,3.5552978515625,3.387451171875
1.3412499,8.44434928894043,-4.944026470184326,4.120420932769775,9.82666015625,3.3416748046875,3.662109375
1.3437499,8.44434928894043,-4.944026470184326,4.120420932769775,9.82666015625,3.3416748046875,3.662109375
1.3462498999999999,8.47786808013916,-4.977545261383057,4.189853191375732,12.26806640625,2.3345947265625,3.936767578125
1.3487498999999998,8.47786808013916,-4.977545261383057,4.189853191375732,12.26806640625,2.3345947265625,3.936767578125
1.3512499,8.468291282653809,-4.989516258239746,4.259284973144531,14.8773193359375,1.861572265625,4.1656494140625
1.3537499,8.468291282653809,-4.989516258239746,4.259284973144531,14.8773193359375,1.861572265625,4.1656494140625
1.3562499,8.437167167663574,-4.977545261383057,4.292803764343262,17.15087890625,1.1444091796875,4.5928955078125
1.3587498999999998,8.437167167663574,-4.977545261383057,4.292803764343262,17.15087890625,1.1444091796875,4.5928955078125
1.3612499,8.38688850402832,-4.948814868927002,4.273650169372559,19.3634033203125,0.3814697265625,4.2877197265625
1.3637499,8.38688850402832,-4.948814868927002,4.273650169372559,19.3634033203125,0.3814697265625,4.2877197265625
1.3662499,8.329427719116211,-4.920084476470947,4.2329487800598145,21.0723876953125,-0.54931640625,4.3487548828125
1.3687498999999999,8.329427719116211,-4.920084476470947,4.2329487800598145,21.0723876953125,-0.54931640625,4.3487548828125
1.3712499,8.269572257995605,-4.903325080871582,4.228160381317139,23.162841796875,-1.617431640625,4.3182373046875
1.3737499,8.269572257995605,-4.903325080871582,4.228160381317139,23.162841796875,-1.617431640625,4.3182373046875
1.3762499,8.214506149291992,-4.884171485900879,4.2544965744018555,24.7344970703125,-2.685546875,4.302978515625
1.3787498999999999,8.188169479370117,-4.869806289672852,4.268861770629883,25.115966796875,-3.265380859375,4.1046142578125
1.3812499,8.161833763122559,-4.8602294921875,4.2760443687438965,25.4058837890625,-3.753662109375,3.9215087890625
1.3837499,8.135497093200684,-4.845864295959473,4.28322696685791,25.7720947265625,-4.33349609375,3.7689208984375
1.3862499,8.106766700744629,-4.836287498474121,4.288015365600586,25.87890625,-5.0048828125,3.814697265625
1.3887498999999999,8.078036308288574,-4.824316501617432,4.290409564971924,26.06201171875,-5.3863525390625,3.814697265625
1.3912499,8.04691219329834,-4.807557106018066,4.2975921630859375,26.1688232421875,-5.9356689453125,3.4942626953125
1.3937499,8.01339340209961,-4.786009311676025,4.307168960571289,26.123046875,-6.53076171875,3.326416015625
1.3962499,7.979874134063721,-4.766855716705322,4.323928356170654,25.9246826171875,-6.9580078125,3.3416748046875
1.3987498999999999,7.955932140350342,-4.738125324249268,4.345476150512695,25.8026123046875,-7.5225830078125,3.082275390625
1.4012499,7.936778545379639,-4.711789131164551,4.369418144226074,25.4364013671875,-7.87353515625,2.8076171875
1.4037499,7.934384346008301,-4.680664539337158,4.388571739196777,24.993896484375,-8.23974609375,2.3956298828125
1.4062499,7.936778545379639,-4.644751071929932,4.4077253341674805,24.6429443359375,-8.9263916015625,2.1209716796875
1.4087498999999999,7.939172744750977,-4.606443881988525,4.414907932281494,24.1241455078125,-9.5062255859375,1.7242431640625
1.4112498999999998,7.943961143493652,-4.572925090789795,4.417302131652832,23.712158203125,-9.674072265625,1.5411376953125
1.4137499,7.9415669441223145,-4.541800498962402,4.4292731285095215,23.162841796875,-10.1318359375,1.2664794921875
1.4162499,7.9415669441223145,-4.525041103363037,4.436455726623535,22.64404296875,-10.7269287109375,0.8697509765625
1.4187499,7.9415669441223145,-4.508281707763672,4.458003520965576,21.8963623046875,-10.9100341796875,0.518798828125
1.4212498999999998,7.943961143493652,-4.4939165115356445,4.474762916564941,21.209716796875,-11.0626220703125,0.1220703125
1.4237499,7.943961143493652,-4.481945514678955,4.503493309020996,20.660400390625,-11.5966796875,-0.1678466796875
1.4262499,7.939172744750977,-4.469974517822266,4.529829502105713,20.172119140625,-11.688232421875,-0.54931640625
1.4287499,7.924807548522949,-4.4532151222229,4.558559894561768,19.439697265625,-12.0391845703125,-0.9613037109375
1.4312498999999999,7.905653953552246,-4.436455726623535,4.587290287017822,18.585205078125,-12.3443603515625,-1.2054443359375
1.4337499,7.881711959838867,-4.422090530395508,4.611232280731201,17.9901123046875,-12.39013671875,-1.52587890625
1.4362499,7.860164165496826,-4.405331134796143,4.623203277587891,17.242431640625,-12.481689453125,-1.8768310546875
1.4387499,7.836222171783447,-4.395754337310791,4.63517427444458,16.815185546875,-12.6953125,-2.288818359375
1.4412498999999999,7.814674377441406,-4.383783340454102,4.630385875701904,15.9454345703125,-12.6190185546875,-2.62451171875
1.4437499,7.793126583099365,-4.37420654296875,4.623203277587891,15.3350830078125,-12.6953125,-3.11279296875
1.4462499,7.769184589385986,-4.3622355461120605,4.608838081359863,14.6942138671875,-12.8021240234375,-3.204345703125
1.4487499,7.745242595672607,-4.355052947998047,4.596867084503174,13.7939453125,-12.8326416015625,-3.448486328125
1.4512498999999999,7.711723804473877,-4.347870349884033,4.577713489532471,13.3514404296875,-12.87841796875,-3.814697265625
1.4537499,7.673416614532471,-4.350264549255371,4.55616569519043,12.725830078125,-13.092041015625,-4.1961669921875
1.4562499,7.6351094245910645,-4.355052947998047,4.537012100219727,11.871337890625,-13.0615234375,-4.425048828125
1.4587499,7.603984832763672,-4.359841346740723,4.517858505249023,11.4288330078125,-13.1378173828125,-4.4708251953125
1.4612498999999999,7.575253963470459,-4.37420654296875,4.501099109649658,10.711669921875,-13.18359375,-4.8828125
1.4637499,7.553706169128418,-4.388571739196777,4.4939165115356445,10.2386474609375,-13.24462890625,-4.9591064453125
1.4662499,7.532158374786377,-4.410119533538818,4.4939165115356445,10.1318359375,-13.4124755859375,-4.8828125
1.4687499,7.510610580444336,-4.4292731285095215,4.4939165115356445,9.307861328125,-13.458251953125,-4.9896240234375
1.4712498999999999,7.489062786102295,-4.448426723480225,4.49870491027832,8.9569091796875,-13.519287109375,-5.2337646484375
1.4737498999999998,7.469909191131592,-4.460397720336914,4.4939165115356445,8.60595703125,-13.5955810546875,-5.4168701171875
1.4762499,7.450755596160889,-4.467580318450928,4.491522312164307,8.30078125,-13.580322265625,-5.5389404296875
1.4787499,7.436390399932861,-4.477157115936279,4.489128112792969,8.5296630859375,-13.5650634765625,-5.5694580078125
1.4812499,7.422025203704834,-4.479551315307617,4.484339714050293,8.5601806640625,-13.8397216796875,-5.5084228515625
1.4837498999999998,7.4100542068481445,-4.486733913421631,4.484339714050293,8.4228515625,-13.7481689453125,-5.462646484375
1.4862499,7.405265808105469,-4.4939165115356445,4.474762916564941,8.453369140625,-13.6566162109375,-5.4931640625
1.4887499,7.405265808105469,-4.49870491027832,4.469974517822266,8.697509765625,-13.7481689453125,-5.5694580078125
1.4912499,7.405265808105469,-4.505887508392334,4.46518611907959,9.033203125,-13.9617919921875,-5.4473876953125
1.4937498999999999,7.412448406219482,-4.503493309020996,4.46518611907959,9.124755859375,-13.8092041015625,-5.4779052734375
1.4962499,7.407660007476807,-4.49870491027832,4.462791919708252,9.552001953125,-13.763427734375,-5.279541015625
1.4987499,7.412448406219482,-4.489128112792969,4.46518611907959,10.009765625,-13.702392578125,-5.340576171875
1.5012499,7.412448406219482,-4.481945514678955,4.467580318450928,10.1165771484375,-13.61083984375,-5.2337646484375
1.5037498999999999,7.412448406219482,-4.484339714050293,4.467580318450928,10.345458984375,-13.3514404296875,-5.18798828125
1.5062499,7.407660007476807,-4.4939165115356445,4.4723687171936035,10.7421875,-13.214111328125,-5.1116943359375
1.5087499,7.405265808105469,-4.508281707763672,4.4723687171936035,11.3067626953125,-13.214111328125,-4.8675537109375
1.5112499,7.405265808105469,-4.525041103363037,4.469974517822266,11.9171142578125,-13.12255859375,-4.486083984375
1.5137498999999999,7.407660007476807,-4.537012100219727,4.469974517822266,12.420654296875,-13.0157470703125,-4.3182373046875
1.5162499,7.412448406219482,-4.546588897705078,4.455609321594238,12.6800537109375,-12.87841796875,-4.2877197265625
1.5187499,7.41484260559082,-4.548983097076416,4.446032524108887,13.5345458984375,-12.8326416015625,-3.570556640625
1.5212499,7.419631004333496,-4.548983097076416,4.441244125366211,14.0838623046875,-12.8326416015625,-3.41796875
1.5237498999999999,7.424419403076172,-4.546588897705078,4.438849925994873,14.4500732421875,-12.5579833984375,-3.4027099609375
1.5262499,7.424419403076172,-4.5394062995910645,4.441244125366211,14.6331787109375,-12.298583984375,-3.1585693359375
1.5287499,7.419631004333496,-4.525041103363037,4.446032524108887,15.3045654296875,-12.1917724609375,-2.716064453125
1.5312499,7.412448406219482,-4.505887508392334,4.443638324737549,15.7012939453125,-12.2222900390625,-2.5787353515625
1.5337498999999999,7.405265808105469,-4.481945514678955,4.438849925994873,16.05224609375,-11.749267578125,-2.50244140625
1.5362499,7.395689010620117,-4.460397720336914,4.431667327880859,16.3421630859375,-11.65771484375,-2.3651123046875
1.5387499,7.386112213134766,-4.438849925994873,4.412513732910156,16.5863037109375,-11.5814208984375,-2.2430419921875
1.5412499,7.376535415649414,-4.41969633102417,4.383783340454102,16.815185546875,-11.383056640625,-1.861572265625
1.5437499,7.376535415649414,-4.410119533538818,4.347870349884033,17.08984375,-11.1846923828125,-1.77001953125
1.5462498999999998,7.376535415649414,-4.400542736053467,4.309563159942627,17.2882080078125,-11.0321044921875,-1.6632080078125
1.5487499,7.386112213134766,-4.402936935424805,4.266467571258545,17.4102783203125,-11.016845703125,-1.4801025390625
1.5512499,7.386112213134766,-4.400542736053467,4.2329487800598145,17.08984375,-10.8642578125,-1.220703125
1.5537499,7.386112213134766,-4.402936935424805,4.199429988861084,17.1356201171875,-10.7879638671875,-1.0833740234375
1.5562498999999999,7.378929615020752,-4.398148536682129,4.168305397033691,17.333984375,-10.6964111328125,-0.885009765625
1.5587499,7.3693528175354,-4.395754337310791,4.144362926483154,17.242431640625,-10.6353759765625,-0.8087158203125
1.5612499,7.362170219421387,-4.393360137939453,4.125209331512451,16.8609619140625,-10.5133056640625,-0.396728515625
1.5637499,7.357381820678711,-4.390965938568115,4.1180267333984375,16.693115234375,-10.3607177734375,-0.0152587890625
1.5662498999999999,7.359776020050049,-4.388571739196777,4.120420932769775,16.265869140625,-10.0860595703125,-0.030517578125
1.5687499,7.364564418792725,-4.3861775398254395,4.132391929626465,15.93017578125,-9.8724365234375,0.4730224609375
1.5712499,7.371747016906738,-4.383783340454102,4.141968727111816,15.5487060546875,-9.8419189453125,0.579833984375
1.5737499,7.3885064125061035,-4.378994941711426,4.151545524597168,15.411376953125,-9.6893310546875,0.8087158203125
1.5762498999999999,7.407660007476807,-4.376600742340088,4.153939723968506,15.07568359375,-9.1552734375,0.9613037109375
1.5787499,7.4316020011901855,-4.37420654296875,4.156333923339844,14.6026611328125,-8.85009765625,1.129150390625
1.5812499,7.457938194274902,-4.369418144226074,4.153939723968506,14.373779296875,-8.8043212890625,1.3580322265625
1.5837499,7.479485988616943,-4.367023944854736,4.144362926483154,14.068603515625,-8.575439453125,1.5411376953125
1.5862498999999999,7.496245384216309,-4.364629745483398,4.132391929626465,13.5498046875,-8.3465576171875,1.6021728515625
1.5887499,7.503427982330322,-4.359841346740723,4.1180267333984375,13.275146484375,-8.148193359375,1.8310546875
1.5912499,7.510610580444336,-4.367023944854736,4.101267337799072,12.908935546875,-7.99560546875,2.0294189453125
1.5937499,7.510610580444336,-4.369418144226074,4.089296340942383,12.39013671875,-7.843017578125,2.13623046875
1.5962498999999999,7.51779317855835,-4.378994941711426,4.084507942199707,12.0697021484375,-7.415771484375,2.3193359375
1.5987499,7.524975776672363,-4.3861775398254395,4.077325344085693,11.77978515625,-7.2784423828125,2.593994140625
1.6012499,7.532158374786377,-4.398148536682129,4.084507942199707,11.29150390625,-6.89697265625,2.593994140625
1.6037499,7.544129371643066,-4.412513732910156,4.094084739685059,10.8642578125,-6.5155029296875,2.838134765625
1.6062499,7.558494567871094,-4.4292731285095215,4.108449935913086,10.3759765625,-6.1187744140625,3.1585693359375
1.6087498999999998,7.572859764099121,-4.448426723480225,4.122815132141113,10.2081298828125,-5.92041015625,3.570556640625
1.6112499,7.592013359069824,-4.460397720336914,4.137180328369141,9.9945068359375,-5.645751953125,3.6163330078125
1.6137499,7.6111674308776855,-4.4723687171936035,4.14915132522583,9.6435546875,-5.340576171875,3.7994384765625
1.6162499,7.623138427734375,-4.481945514678955,4.153939723968506,9.2620849609375,-5.2032470703125,4.33349609375
1.6187498999999999,7.630321025848389,-4.486733913421631,4.153939723968506,8.7738037109375,-4.8065185546875,4.5013427734375
1.6212499,7.632715225219727,-4.4939165115356445,4.153939723968506,8.6822509765625,-4.5013427734375,4.5166015625
1.6237499,7.625532627105713,-4.496310710906982,4.14915132522583,8.48388671875,-4.33349609375,4.5166015625
1.6262499,7.620744228363037,-4.4939165115356445,4.141968727111816,8.1634521484375,-4.0283203125,4.730224609375
1.6287498999999999,7.613561630249023,-4.489128112792969,4.129997730255127,8.026123046875,-3.7841796875,4.94384765625
1.6312499,7.60637903213501,-4.479551315307617,4.1156325340271,7.8887939453125,-3.7689208984375,5.0811767578125
1.6337499,7.603984832763672,-4.477157115936279,4.101267337799072,7.4005126953125,-3.4332275390625,5.0811767578125
1.6362499,7.594407558441162,-4.477157115936279,4.084507942199707,7.0648193359375,-3.5400390625,4.9896240234375
1.6387498999999999,7.601590633392334,-4.486733913421631,4.067748546600342,6.591796875,-3.4942626953125,5.2337646484375
1.6412499,7.603984832763672,-4.49870491027832,4.048594951629639,6.3323974609375,-3.1585693359375,5.218505859375
1.6437499,7.613561630249023,-4.513070106506348,4.031835556030273,6.16455078125,-2.9754638671875,5.340576171875
1.6462499,7.615955829620361,-4.532223701477051,4.019864559173584,5.8135986328125,-3.0517578125,5.4168701171875
1.6487498999999999,7.608773231506348,-4.548983097076416,4.01268196105957,5.5694580078125,-3.173828125,5.3863525390625
1.6512499,7.599195957183838,-4.570530891418457,4.010287761688232,5.31005859375,-2.86865234375,5.462646484375
1.6537499,7.580042362213135,-4.592078685760498,4.015076160430908,5.0811767578125,-2.8228759765625,5.462646484375
1.6562499,7.565677165985107,-4.611232280731201,4.027047157287598,5.0048828125,-2.9449462890625,5.4931640625
1.6587498999999999,7.55131196975708,-4.630385875701904,4.041412353515625,4.7607421875,-2.8533935546875,5.4168701171875
1.6612499,7.539340972900391,-4.649539470672607,4.060565948486328,4.730224609375,-2.9144287109375,5.5694580078125
1.6637499,7.536946773529053,-4.661510944366455,4.07014274597168,4.3792724609375,-3.0517578125,5.615234375
1.6662499,7.5417351722717285,-4.671087741851807,4.0749311447143555,4.0283203125,-2.6397705078125,5.4779052734375
1.6687499,7.556100368499756,-4.67827033996582,4.0749311447143555,3.84521484375,-2.532958984375,5.43212890625
1.6712498999999998,7.575253963470459,-4.67827033996582,4.067748546600342,3.7841796875,-2.7008056640625,5.3253173828125
1.6737499,7.5968017578125,-4.67827033996582,4.067748546600342,3.7078857421875,-2.4566650390625,5.31005859375
1.6762499,7.618350028991699,-4.675876140594482,4.065354347229004,3.35693359375,-2.349853515625,5.2337646484375
1.6787499,7.630321025848389,-4.6734819412231445,4.067748546600342,3.265380859375,-2.0904541015625,4.9285888671875
1.6812498999999999,7.644686222076416,-4.675876140594482,4.067748546600342,3.4027099609375,-1.8463134765625,4.8828125
1.6837499,7.65186882019043,-4.685452938079834,4.0749311447143555,3.1890869140625,-1.9683837890625,4.8980712890625
1.6862499,7.661445617675781,-4.699818134307861,4.077325344085693,3.0670166015625,-1.6632080078125,4.8675537109375
1.6887499,7.671022415161133,-4.714183330535889,4.084507942199707,3.1585693359375,-1.6021728515625,4.974365234375
1.6912498999999999,7.680599212646484,-4.728548526763916,4.089296340942383,3.11279296875,-1.6021728515625,5.0048828125
1.6937499,7.692570209503174,-4.7405195236206055,4.091690540313721,3.2196044921875,-1.4190673828125,4.9591064453125
1.6962499,7.6997528076171875,-4.752490520477295,4.094084739685059,2.9449462890625,-1.373291015625,5.06591796875
1.6987499,7.694964408874512,-4.764461517333984,4.094084739685059,3.021240234375,-1.1444091796875,4.913330078125
1.7012498999999999,7.690176010131836,-4.771644115447998,4.0964789390563965,3.143310546875,-0.9918212890625,4.608154296875
1.7037499,7.6782050132751465,-4.776432514190674,4.0964789390563965,3.082275390625,-0.946044921875,4.638671875
1.7062499,7.671022415161133,-4.771644115447998,4.089296340942383,3.021240234375,-0.762939453125,4.4403076171875
1.7087499,7.666234016418457,-4.764461517333984,4.082113742828369,3.387451171875,-0.5950927734375,4.5318603515625
1.7112498999999999,7.675810813903809,-4.757278919219971,4.07014274597168,3.265380859375,-0.54931640625,4.3182373046875
1.7137499,7.682993412017822,-4.747702121734619,4.05817174911499,2.9296875,-0.3509521484375,4.08935546875
1.7162499,7.690176010131836,-4.73573112487793,4.055777549743652,2.9449462890625,-0.18310546875,3.9825439453125
1.7187499,7.702147006988525,-4.728548526763916,4.0533833503723145,2.685546875,-0.030517578125,3.6468505859375
1.7212498999999999,7.716512203216553,-4.72376012802124,4.060565948486328,2.8533935546875,-0.2593994140625,3.1890869140625
1.7237499,7.728483200073242,-4.72376012802124,4.065354347229004,2.716064453125,0.091552734375,3.2196044921875
1.7262499,7.735665798187256,-4.728548526763916,4.072536945343018,2.38037109375,0.457763671875,2.7923583984375
1.7287499,7.735665798187256,-4.730942726135254,4.077325344085693,2.227783203125,0.6561279296875,2.349853515625
1.7312499,7.733271598815918,-4.73573112487793,4.086902141571045,2.2735595703125,0.5035400390625,2.3193359375
1.7337498999999998,7.73087739944458,-4.733336925506592,4.094084739685059,2.1209716796875,0.640869140625,2.410888671875
1.7362499,7.73087739944458,-4.733336925506592,4.101267337799072,2.1514892578125,0.762939453125,1.89208984375
1.7387499,7.73087739944458,-4.733336925506592,4.101267337799072,2.2430419921875,0.91552734375,1.64794921875
1.7412499,7.728483200073242,-4.73573112487793,4.10366153717041,2.1514892578125,1.007080078125,1.495361328125
1.7437498999999999,7.728483200073242,-4.73573112487793,4.0964789390563965,2.0599365234375,1.312255859375,1.28173828125
1.7462499,7.723694801330566,-4.738125324249268,4.089296340942383,2.2430419921875,1.2054443359375,0.9765625
1.7487499,7.716512203216553,-4.738125324249268,4.072536945343018,2.0751953125,1.40380859375,0.8544921875
1.7512499,7.702147006988525,-4.738125324249268,4.050989151000977,1.953125,1.678466796875,0.7171630859375
1.7537498999999999,7.68538761138916,-4.7405195236206055,4.02465295791626,1.9683837890625,1.739501953125,0.5340576171875
1.7562499,7.666234016418457,-4.750096321105957,4.000710964202881,2.01416015625,1.739501953125,0.30517578125
1.7587499,7.65186882019043,-4.759673118591309,3.9839515686035156,1.7852783203125,1.739501953125,0.396728515625
1.7612499,7.647080421447754,-4.76924991607666,3.974374771118164,1.5716552734375,1.8768310546875,0.2593994140625
1.7637498999999999,7.65186882019043,-4.771644115447998,3.971980571746826,1.5716552734375,1.89208984375,0.2899169921875
1.7662499,7.654263019561768,-4.76924991607666,3.971980571746826,1.3275146484375,2.105712890625,0.06103515625
1.7687499,7.661445617675781,-4.757278919219971,3.97916316986084,1.434326171875,1.9683837890625,-0.06103515625
1.7712499,7.661445617675781,-4.745307922363281,3.9839515686035156,1.495361328125,2.3040771484375,-0.06103515625
1.7737498999999999,7.661445617675781,-4.726154327392578,3.9911341667175293,1.5411376953125,2.471923828125,-0.213623046875
1.7762499,7.661445617675781,-4.702212333679199,3.993528366088867,1.4801025390625,2.5177001953125,-0.3204345703125
1.7787499,7.663839817047119,-4.683058738708496,3.993528366088867,1.2664794921875,2.44140625,-0.5950927734375
1.7812499,7.663839817047119,-4.659116744995117,3.9887399673461914,1.15966796875,2.410888671875,-0.6103515625
1.7837498999999999,7.668628215789795,-4.642356872558594,3.97916316986084,1.28173828125,2.593994140625,-0.640869140625
1.7862499,7.668628215789795,-4.627991676330566,3.971980571746826,1.0986328125,2.777099609375,-0.7781982421875
1.7887499,7.666234016418457,-4.618414878845215,3.9647979736328125,1.1444091796875,2.960205078125,-0.9307861328125
1.7912499,7.671022415161133,-4.613626480102539,3.952826976776123,1.0528564453125,2.99072265625,-0.9613037109375
1.7937499,7.675810813903809,-4.611232280731201,3.9432501792907715,1.007080078125,2.9754638671875,-0.9307861328125
1.7962498999999998,7.68538761138916,-4.611232280731201,3.93367338180542,1.007080078125,3.3111572265625,-1.2054443359375
1.7987499,7.690176010131836,-4.613626480102539,3.9217023849487305,0.701904296875,3.41796875,-1.3885498046875
1.8012499,7.687781810760498,-4.620809078216553,3.914519786834717,0.701904296875,3.7689208984375,-1.220703125
1.8037499,7.682993412017822,-4.620809078216553,3.9049429893493652,0.5950927734375,3.936767578125,-1.1444091796875
1.8062498999999999,7.671022415161133,-4.618414878845215,3.892971992492676,0.4730224609375,3.90625,-0.946044921875
1.8087499,7.666234016418457,-4.606443881988525,3.883395195007324,0.4119873046875,4.1351318359375,-1.190185546875
1.8112499,7.661445617675781,-4.592078685760498,3.869029998779297,-0.0152587890625,4.5318603515625,-1.15966796875
1.8137499,7.663839817047119,-4.5825018882751465,3.8522706031799316,-0.1220703125,4.5928955078125,-0.732421875
1.8162498999999999,7.663839817047119,-4.575319290161133,3.8331170082092285,-0.3814697265625,4.791259765625,-0.7171630859375
1.8187499,7.6566572189331055,-4.572925090789795,3.8163576126098633,-0.6561279296875,4.8675537109375,-0.640869140625
1.8212499,7.642292022705078,-4.575319290161133,3.8115692138671875,-1.1138916015625,4.82177734375,-0.5645751953125
1.8237499,7.632715225219727,-4.575319290161133,3.8091750144958496,-1.6021728515625,4.9896240234375,-0.4119873046875
1.8262498999999999,7.620744228363037,-4.575319290161133,3.8115692138671875,-1.8768310546875,5.279541015625,-0.335693359375
1.8287499,7.623138427734375,-4.575319290161133,3.8163576126098633,-2.227783203125,5.462646484375,0.091552734375
1.8312499,7.627926826477051,-4.575319290161133,3.818751811981201,-2.9449462890625,5.7830810546875,-0.06103515625
1.8337499,7.632715225219727,-4.570530891418457,3.8163576126098633,-3.753662109375,5.92041015625,-0.18310546875
1.8362498999999999,7.6351094245910645,-4.568136692047119,3.818751811981201,-4.33349609375,6.2103271484375,-0.2288818359375
1.8387499,7.63989782333374,-4.5609540939331055,3.8115692138671875,-4.94384765625,6.4544677734375,-0.06103515625
1.8412499,7.637503623962402,-4.55616569519043,3.8115692138671875,-5.7525634765625,6.6070556640625,-0.1068115234375
1.8437499,7.644686222076416,-4.54419469833374,3.8067808151245117,-6.3629150390625,6.77490234375,-0.2288818359375
1.8462498999999999,7.65186882019043,-4.529829502105713,3.801992416381836,-7.1563720703125,7.293701171875,-0.2593994140625
1.8487499,7.663839817047119,-4.513070106506348,3.801992416381836,-8.1634521484375,7.4615478515625,-0.457763671875
1.8512499,7.675810813903809,-4.503493309020996,3.8067808151245117,-8.85009765625,7.4615478515625,-0.6866455078125
1.8537499,7.687781810760498,-4.496310710906982,3.8283286094665527,-9.735107421875,7.75146484375,-0.9918212890625
1.8562499,7.6997528076171875,-4.4939165115356445,3.8379054069519043,-10.43701171875,7.4005126953125,-1.312255859375
1.8587498999999998,7.704541206359863,-4.503493309020996,3.8570590019226074,-11.16943359375,7.8125,-1.2969970703125
1.8612499,7.711723804473877,-4.5154643058776855,3.8714241981506348,-12.1612548828125,8.4228515625,-1.434326171875
1.8637499,7.714118003845215,-4.534617900848389,3.88818359375,-12.9547119140625,8.6212158203125,-1.5106201171875
1.8662499,7.711723804473877,-4.55616569519043,3.914519786834717,-13.5650634765625,8.7432861328125,-1.8768310546875
1.8687498999999999,7.711723804473877,-4.577713489532471,3.9432501792907715,-14.34326171875,9.063720703125,-2.044677734375
1.8712499,7.711723804473877,-4.60165548324585,3.976768970489502,-14.95361328125,9.27734375,-2.0904541015625
1.8737499,7.718906402587891,-4.6255974769592285,4.0078935623168945,-15.5792236328125,9.46044921875,-2.471923828125
1.8762499,7.735665798187256,-4.644751071929932,4.041412353515625,-15.9454345703125,9.7503662109375,-2.50244140625
1.8787498999999999,7.754819393157959,-4.663905143737793,4.077325344085693,-16.6168212890625,10.1165771484375,-2.9144287109375
1.8812499,7.773972988128662,-4.675876140594482,4.113238334655762,-16.7694091796875,10.223388671875,-3.3416748046875
1.8837499,7.7883381843566895,-4.683058738708496,4.146757125854492,-16.845703125,10.2386474609375,-3.6773681640625
1.8862499,7.795520782470703,-4.683058738708496,4.173093795776367,-17.4407958984375,10.6353759765625,-3.7384033203125
1.8887498999999999,7.797914981842041,-4.67827033996582,4.194641590118408,-17.6544189453125,10.9405517578125,-4.241943359375
1.8912499,7.797914981842041,-4.680664539337158,4.2090067863464355,-17.5933837890625,11.077880859375,-4.5166015625
1.8937499,7.795520782470703,-4.685452938079834,4.223371982574463,-17.5323486328125,11.29150390625,-4.852294921875
1.8962499,7.790732383728027,-4.699818134307861,4.230554580688477,-17.913818359375,11.3677978515625,-5.18798828125
1.8987498999999999,7.781155586242676,-4.714183330535889,4.235342979431152,-18.00537109375,11.474609375,-5.6610107421875
1.9012499,7.766790390014648,-4.730942726135254,4.230554580688477,-18.1121826171875,11.77978515625,-5.9967041015625
1.9037499,7.752425193786621,-4.750096321105957,4.228160381317139,-17.913818359375,11.871337890625,-6.40869140625
1.9062499,7.738059997558594,-4.76924991607666,4.230554580688477,-17.88330078125,11.7950439453125,-6.591796875
1.9087498999999999,7.728483200073242,-4.790797710418701,4.230554580688477,-17.913818359375,11.7034912109375,-7.0037841796875
1.9112499,7.7213006019592285,-4.81473970413208,4.244919776916504,-17.63916015625,11.7645263671875,-7.568359375
1.9137499,7.709329605102539,-4.838681697845459,4.256890773773193,-17.2882080078125,11.5814208984375,-7.6141357421875
1.9162499,7.6997528076171875,-4.867412090301514,4.268861770629883,-17.2271728515625,11.5966796875,-7.6904296875
1.9187499,7.68538761138916,-4.898536682128906,4.290409564971924,-16.845703125,11.5203857421875,-7.7972412109375
1.9212498999999998,7.668628215789795,-4.932055473327637,4.302380561828613,-16.4947509765625,11.5966796875,-8.2244873046875
1.9237499,7.654263019561768,-4.963180065155029,4.314351558685303,-16.265869140625,11.383056640625,-8.48388671875
1.9262499,7.6351094245910645,-4.989516258239746,4.321534156799316,-15.7928466796875,11.4288330078125,-8.1787109375
1.9287499,7.618350028991699,-5.008669853210449,4.321534156799316,-15.4876708984375,11.566162109375,-8.2244873046875
1.9312498999999999,7.601590633392334,-5.020640850067139,4.316745758056641,-15.0146484375,11.5966796875,-8.575439453125
1.9337499,7.592013359069824,-5.035006046295166,4.307168960571289,-14.6942138671875,11.4898681640625,-8.544921875
1.9362499,7.575253963470459,-5.0469770431518555,4.2975921630859375,-14.2974853515625,11.41357421875,-8.6212158203125
1.9387499,7.565677165985107,-5.056553840637207,4.280832767486572,-14.0228271484375,11.3677978515625,-8.6212158203125
1.9412498999999999,7.55131196975708,-5.0685248374938965,4.264073371887207,-13.427734375,11.260986328125,-8.30078125
1.9437499,7.55131196975708,-5.073313236236572,4.24970817565918,-12.9241943359375,11.41357421875,-8.1634521484375
1.9462499,7.553706169128418,-5.082890033721924,4.23773717880249,-12.603759765625,11.138916015625,-8.087158203125
1.9487499,7.565677165985107,-5.092466831207275,4.23773717880249,-12.3291015625,11.3372802734375,-8.0413818359375
1.9512498999999999,7.580042362213135,-5.104437828063965,4.244919776916504,-12.0697021484375,11.322021484375,-7.8887939453125
1.9537499,7.5968017578125,-5.114014625549316,4.264073371887207,-11.4593505859375,11.41357421875,-7.415771484375
1.9562499,7.6111674308776855,-5.123591423034668,4.285621166229248,-11.322021484375,11.3983154296875,-7.232666015625
1.9587499,7.623138427734375,-5.130774021148682,4.307168960571289,-11.04736328125,11.3372802734375,-6.927490234375
1.9612498999999999,7.6351094245910645,-5.137956619262695,4.321534156799316,-10.7879638671875,11.505126953125,-6.7596435546875
1.9637499,7.63989782333374,-5.137956619262695,4.32871675491333,-10.2691650390625,11.5966796875,-6.500244140625
1.9662499,7.637503623962402,-5.135562419891357,4.323928356170654,-10.0250244140625,11.7340087890625,-6.1492919921875
1.9687499,7.6351094245910645,-5.128379821777344,4.314351558685303,-9.8724365234375,11.810302734375,-5.79833984375
1.9712498999999999,7.618350028991699,-5.116408824920654,4.2951979637146,-9.8419189453125,12.054443359375,-5.4473876953125
1.9737499,7.60637903213501,-5.109226226806641,4.259284973144531,-9.6893310546875,12.115478515625,-5.3863525390625
1.9762499,7.5848307609558105,-5.106832027435303,4.216189384460449,-9.7503662109375,12.1307373046875,-4.94384765625
1.9787499,7.565677165985107,-5.104437828063965,4.170699596405029,-9.6893310546875,12.3443603515625,-4.791259765625
1.9812499,7.546523571014404,-5.1116204261779785,4.129997730255127,-9.918212890625,12.39013671875,-4.3792724609375
1.9837499,7.529764175415039,-5.114014625549316,4.098873138427734,-10.1776123046875,12.4359130859375,-3.9825439453125
1.9862499,7.515398979187012,-5.118803024291992,4.082113742828369,-10.498046875,12.7410888671875,-3.7689208984375
1.9887499,7.501033782958984,-5.12119722366333,4.065354347229004,-10.7574462890625,12.75634765625,-3.41796875
1.9912499,7.484274387359619,-5.123591423034668,4.0533833503723145,-11.29150390625,12.8326416015625,-3.143310546875
1.9937498999999999,7.465120792388916,-5.128379821777344,4.041412353515625,-11.8408203125,13.0767822265625,-3.1280517578125
1.9962499,7.438784599304199,-5.1331682205200195,4.02465295791626,-12.39013671875,13.24462890625,-2.5634765625
1.9987499,7.407660007476807,-5.140350818634033,3.998316764831543,-13.1072998046875,13.5498046875,-2.410888671875
2.0012499,7.371747016906738,-5.142745018005371,3.9624037742614746,-13.7786865234375,13.763427734375,-1.983642578125
2.0037499,7.331045627593994,-5.147533416748047,3.9193081855773926,-14.5111083984375,13.763427734375,-1.708984375
2.0062499,7.285555839538574,-5.157110691070557,3.8738183975219727,-15.350341796875,14.09912109375,-1.5106201171875
2.0087498999999998,7.240066051483154,-5.161899089813232,3.825934410095215,-16.3726806640625,14.3890380859375,-1.129150390625
2.0112499,7.19936466217041,-5.17626428604126,3.780444383621216,-17.333984375,14.556884765625,-0.8544921875
2.0137499,7.156269073486328,-5.193023681640625,3.7397429943084717,-18.310546875,14.4500732421875,-0.5645751953125
2.0162499,7.115567684173584,-5.216965675354004,3.708618402481079,-19.04296875,14.7247314453125,-0.3509521484375
2.0187499,7.079654216766357,-5.245696067810059,3.6798880100250244,-20.1873779296875,14.9078369140625,-0.0457763671875
2.0212499,7.038952827453613,-5.279214859008789,3.667917013168335,-21.4385986328125,15.411376953125,0.42724609375
2.0237499,6.995857238769531,-5.3127336502075195,3.6535518169403076,-22.3541259765625,16.11328125,0.5340576171875
2.0262499,6.952761650085449,-5.341464042663574,3.643975019454956,-23.468017578125,16.54052734375,0.823974609375
2.0287498999999998,6.900089263916016,-5.374982833862305,3.6296098232269287,-24.5361328125,17.15087890625,1.1749267578125
2.0312499,6.840234279632568,-5.406107425689697,3.6080620288848877,-25.5584716796875,17.5933837890625,1.3580322265625
2.0337499,6.775590896606445,-5.4444146156311035,3.581725835800171,-26.7486572265625,18.1427001953125,1.7547607421875
2.0362499,6.698976516723633,-5.4875102043151855,3.552995204925537,-27.679443359375,18.85986328125,2.2125244140625
2.0387499,6.6127848625183105,-5.52821159362793,3.5218706130981445,-28.80859375,19.439697265625,2.3956298828125
2.0412499,6.5265936851501465,-5.5760955810546875,3.485957622528076,-29.754638671875,20.1416015625,2.8076171875
2.0437499,6.428431510925293,-5.616796970367432,3.445256233215332,-30.792236328125,21.0418701171875,3.2501220703125
2.0462499,6.3302693367004395,-5.655104637145996,3.40216064453125,-32.073974609375,21.91162109375,3.72314453125
2.0487499,6.229712963104248,-5.6910176277160645,3.35667085647583,-33.203125,22.8118896484375,4.39453125
2.0512498999999997,6.124367713928223,-5.722142219543457,3.2968156337738037,-34.1644287109375,23.6358642578125,4.8370361328125
2.0537499,6.0190229415893555,-5.746084213256836,3.2393548488616943,-35.491943359375,24.7344970703125,5.2642822265625
2.0562499,5.9088897705078125,-5.760449409484863,3.177105665206909,-36.4990234375,25.8331298828125,5.950927734375
2.0587499,5.805939197540283,-5.770026206970215,3.1100680828094482,-37.5518798828125,26.85546875,6.5155029296875
2.0612499,5.702988624572754,-5.770026206970215,3.047818660736084,-38.51318359375,27.89306640625,7.171630859375
2.0637499,5.604825973510742,-5.774814605712891,2.980781078338623,-39.7491455078125,29.2205810546875,7.6751708984375
2.0662499,5.509057998657227,-5.7772088050842285,2.9065608978271484,-40.924072265625,30.670166015625,8.5296630859375
2.0687499,5.406107425689697,-5.774814605712891,2.832340717315674,-41.9464111328125,32.0587158203125,9.033203125
2.0712498999999998,5.303156852722168,-5.760449409484863,2.7461493015289307,-43.304443359375,33.447265625,9.4146728515625
2.0737499,5.183446884155273,-5.738901615142822,2.6623523235321045,-44.6624755859375,34.698486328125,10.2691650390625
2.0762499,5.058948040008545,-5.710171222686768,2.559401512145996,-46.0052490234375,36.5142822265625,10.7421875
2.0787499,4.912901878356934,-5.683835029602051,2.4803929328918457,-47.8973388671875,38.818359375,11.7950439453125
2.0812499,4.764461517333984,-5.6670756340026855,2.389413356781006,-49.346923828125,40.58837890625,12.603759765625
2.0837499,4.60165548324585,-5.647922039031982,2.319981336593628,-50.9185791015625,42.022705078125,13.214111328125
2.0862499,4.434061527252197,-5.638344764709473,2.2457611560821533,-52.9632568359375,44.219970703125,13.9007568359375
2.0887499,4.261679172515869,-5.633556365966797,2.161964178085327,-54.931640625,46.38671875,14.9688720703125
2.0912498999999998,3.8953661918640137,-5.621585369110107,1.968033790588379,-59.1888427734375,50.9185791015625,17.4102783203125
2.0937499,3.8953661918640137,-5.621585369110107,1.968033790588379,-59.1888427734375,50.9185791015625,17.4102783203125
2.0962499,3.5051112174987793,-5.590460777282715,1.7334020137786865,-64.4073486328125,56.060791015625,20.111083984375
2.0987499,3.5051112174987793,-5.590460777282715,1.7334020137786865,-64.4073486328125,56.060791015625,20.111083984375
2.1012499,3.1076738834381104,-5.518634796142578,1.4413094520568848,-69.9462890625,61.82861328125,22.9034423828125
2.1037499,3.1076738834381104,-5.518634796142578,1.4413094520568848,-69.9462890625,61.82861328125,22.9034423828125
2.1062499,2.7222073078155518,-5.442020416259766,1.1085153818130493,-76.5838623046875,67.4896240234375,26.336669921875
2.1087499,2.7222073078155518,-5.442020416259766,1.1085153818130493,-76.5838623046875,67.4896240234375,26.336669921875
2.1112499,2.322375535964966,-5.3797712326049805,0.7805097699165344,-84.228515625,74.4171142578125,30.426025390625
2.1137498999999997,2.322375535964966,-5.3797712326049805,0.7805097699165344,-84.228515625,74.4171142578125,30.426025390625
2.1162499,1.8842366933822632,-5.307945251464844,0.4836287498474121,-91.9647216796875,81.1309814453125,35.09521484375
2.1187499,1.8842366933822632,-5.307945251464844,0.4836287498474121,-91.9647216796875,81.1309814453125,35.09521484375
2.1212499,1.436521053314209,-5.224148273468018,0.2537853717803955,-100.1739501953125,88.5162353515625,39.97802734375
2.1237499,1.436521053314209,-5.224148273468018,0.2537853717803955,-100.1739501953125,88.5162353515625,39.97802734375
2.1262499,1.0079588890075684,-5.157110691070557,0.08140286058187485,-108.0322265625,96.2371826171875,45.71533203125
2.1287499,1.0079588890075684,-5.157110691070557,0.08140286058187485,-108.0322265625,96.2371826171875,45.71533203125
2.1312499,0.5961562395095825,-5.106832027435303,-0.05985504388809204,-116.363525390625,104.461669921875,51.7730712890625
2.1337498999999998,0.5961562395095825,-5.106832027435303,-0.05985504388809204,-116.363525390625,104.461669921875,51.7730712890625
2.1362499,0.19632454216480255,-5.032611846923828,-0.22266076505184174,-125.640869140625,113.3270263671875,58.380126953125
2.1387499,0.19632454216480255,-5.032611846923828,-0.22266076505184174,-125.640869140625,113.3270263671875,58.380126953125
2.1412499,-0.19632454216480255,-4.922478675842285,-0.4141969084739685,-135.1318359375,122.1771240234375,64.849853515625
2.1437499,-0.19632454216480255,-4.922478675842285,-0.4141969084739685,-135.1318359375,122.1771240234375,64.849853515625
2.1462499,-0.5937620401382446,-4.800374507904053,-0.6177040338516235,-144.683837890625,131.3934326171875,71.075439453125
2.1487499,-0.5937620401382446,-4.800374507904053,-0.6177040338516235,-144.683837890625,131.3934326171875,71.075439453125
2.1512499,-1.0031704902648926,-4.69024133682251,-0.8475474119186401,-153.2440185546875,140.9759521484375,77.423095703125
2.1537498999999998,-1.0031704902648926,-4.69024133682251,-0.8475474119186401,-153.2440185546875,140.9759521484375,77.423095703125
2.1562499,-1.4221558570861816,-4.572925090789795,-1.1252747774124146,-160.980224609375,151.30615234375,84.1827392578125
2.1587499,-1.4221558570861816,-4.572925090789795,-1.1252747774124146,-160.980224609375,151.30615234375,84.1827392578125
2.1612499,-1.8507179021835327,-4.441244125366211,-1.4389152526855469,-167.66357421875,161.5447998046875,90.4998779296875
2.1637499,-1.8507179021835327,-4.441244125366211,-1.4389152526855469,-167.66357421875,161.5447998046875,90.4998779296875
2.1662499,-2.2816741466522217,-4.323928356170654,-1.7334020137786865,-173.6602783203125,171.966552734375,97.2747802734375
2.1687499,-2.2816741466522217,-4.323928356170654,-1.7334020137786865,-173.6602783203125,171.966552734375,97.2747802734375
2.1712499,-2.669534921646118,-4.223371982574463,-1.9800047874450684,-178.192138671875,182.8460693359375,104.248046875
2.1737499,-2.669534921646118,-4.223371982574463,-1.9800047874450684,-178.192138671875,182.8460693359375,104.248046875
2.1762499,-2.983175277709961,-4.084507942199707,-2.1499931812286377,-180.7708740234375,193.9849853515625,111.4349365234375
2.1787499,-2.983175277709961,-4.084507942199707,-2.1499931812286377,-180.7708740234375,193.9849853515625,111.4349365234375
2.1812499,-3.251325845718384,-3.9264907836914062,-2.1930887699127197,-181.243896484375,205.474853515625,119.3084716796875
2.1837499,-3.251325845718384,-3.9264907836914062,-2.1930887699127197,-181.243896484375,205.474853515625,119.3084716796875
2.1862499,-3.5386300086975098,-3.8355112075805664,-2.097320795059204,-179.50439453125,217.987060546875,127.50244140625
2.1887499,-3.5386300086975098,-3.8355112075805664,-2.097320795059204,-179.50439453125,217.987060546875,127.50244140625
2.1912499,-3.883395195007324,-3.8522706031799316,-1.9129672050476074,-175.506591796875,230.8197021484375,137.0086669921875
2.1937499,-3.883395195007324,-3.8522706031799316,-1.9129672050476074,-175.506591796875,230.8197021484375,137.0086669921875
2.1962498999999998,-4.271255970001221,-3.93367338180542,-1.742978811264038,-170.2880859375,243.7744140625,147.918701171875
2.1987499,-4.271255970001221,-3.93367338180542,-1.742978811264038,-170.2880859375,243.7744140625,147.918701171875
2.2012499,-4.661510944366455,-4.0078935623168945,-1.6615760326385498,-163.2843017578125,257.354736328125,159.423828125
2.2037499,-4.661510944366455,-4.0078935623168945,-1.6615760326385498,-163.2843017578125,257.354736328125,159.423828125
2.2062499,-5.003881454467773,-4.017470359802246,-1.6519991159439087,-155.45654296875,271.484375,171.69189453125
2.2087499,-5.003881454467773,-4.017470359802246,-1.6519991159439087,-155.45654296875,271.484375,171.69189453125
2.2112499,-5.264849662780762,-3.892971992492676,-1.6735470294952393,-148.101806640625,286.346435546875,184.08203125
2.2137499,-5.264849662780762,-3.892971992492676,-1.6735470294952393,-148.101806640625,286.346435546875,184.08203125
2.2162498999999998,-5.475539207458496,-3.6846764087677,-1.659181833267212,-139.8773193359375,301.513671875,196.929931640625
2.2187499,-5.475539207458496,-3.6846764087677,-1.659181833267212,-139.8773193359375,301.513671875,196.929931640625
2.2212499,-5.7125654220581055,-3.5027170181274414,-1.625662922859192,-131.2103271484375,316.5283203125,209.41162109375
2.2237499,-5.7125654220581055,-3.5027170181274414,-1.625662922859192,-131.2103271484375,316.5283203125,209.41162109375
2.2262499,-6.026205539703369,-3.399766445159912,-1.5514427423477173,-121.4141845703125,331.146240234375,222.47314453125
2.2287499,-6.026205539703369,-3.399766445159912,-1.5514427423477173,-121.4141845703125,331.146240234375,222.47314453125
2.2312499,-6.421248912811279,-3.399766445159912,-1.2689268589019775,-112.60986328125,345.306396484375,235.8245849609375
2.2337499,-6.421248912811279,-3.399766445159912,-1.2689268589019775,-112.60986328125,345.306396484375,235.8245849609375
2.2362499,-6.828263282775879,-3.4811692237854004,-0.7852981686592102,-103.973388671875,359.55810546875,249.603271484375
2.2387499,-6.828263282775879,-3.4811692237854004,-0.7852981686592102,-103.973388671875,359.55810546875,249.603271484375
2.2412499,-7.2137298583984375,-3.56017804145813,-0.22266076505184174,-95.9625244140625,373.9776611328125,263.763427734375
2.2437499,-7.2137298583984375,-3.56017804145813,-0.22266076505184174,-95.9625244140625,373.9776611328125,263.763427734375
2.2462499,-7.615955829620361,-3.600879430770874,0.3256114423274994,-88.6383056640625,387.26806640625,277.496337890625
2.2487499,-7.615955829620361,-3.600879430770874,0.3256114423274994,-88.6383056640625,387.26806640625,277.496337890625
2.2512499,-8.075642585754395,-3.641580820083618,0.7493851184844971,-83.8165283203125,400.6500244140625,291.1834716796875
2.2537499,-8.075642585754395,-3.641580820083618,0.7493851184844971,-83.8165283203125,400.6500244140625,291.1834716796875
2.2562499,-8.604761123657227,-3.734954595565796,1.01753568649292,-79.7119140625,413.1317138671875,304.931640625
2.2587498999999998,-8.604761123657227,-3.734954595565796,1.01753568649292,-79.7119140625,413.1317138671875,304.931640625
2.2612499,-9.153033256530762,-3.8786067962646484,1.3120225667953491,-78.1097412109375,424.1180419921875,318.328857421875
2.2637499,-9.153033256530762,-3.8786067962646484,1.3120225667953491,-78.1097412109375,424.1180419921875,318.328857421875
2.2662499,-9.648633003234863,-4.000710964202881,1.867477297782898,-78.9337158203125,433.0596923828125,330.9326171875
2.2687499,-9.648633003234863,-4.000710964202881,1.867477297782898,-78.9337158203125,433.0596923828125,330.9326171875
2.2712499,-10.077195167541504,-4.027047157287598,2.669534921646118,-82.4127197265625,441.009521484375,343.597412109375
2.2737499,-10.292673110961914,-3.9911341667175293,3.1244332790374756,-85.5712890625,444.061279296875,349.18212890625
2.2762499,-10.529699325561523,-3.9217023849487305,3.5913026332855225,-89.2791748046875,446.319580078125,354.8431396484375
2.2787498999999998,-10.793061256408691,-3.8115692138671875,4.10366153717041,-94.0399169921875,448.1201171875,359.9853515625
2.2812499,-11.061211585998535,-3.663128614425659,4.639962673187256,-99.8077392578125,448.8677978515625,364.80712890625
2.2837499,-11.329362869262695,-3.488351821899414,5.224148273468018,-106.6131591796875,449.21875,369.2779541015625
2.2862499,-11.559206008911133,-3.3039982318878174,5.813121795654297,-114.0594482421875,448.974609375,372.8485107421875
2.2887499,-11.750741958618164,-3.136404275894165,6.418854713439941,-121.9329833984375,448.05908203125,376.068115234375
2.2912499,-11.899182319641113,-3.0190882682800293,7.024587631225586,-129.8980712890625,446.71630859375,378.692626953125
2.2937499,-12.0021333694458,-2.9688100814819336,7.644686222076416,-137.9547119140625,445.00732421875,380.5999755859375
2.2962499,-12.054805755615234,-3.004723072052002,8.291120529174805,-145.904541015625,441.864013671875,382.7972412109375
2.2987499,-12.047622680664062,-3.1316158771514893,8.983044624328613,-153.564453125,438.140869140625,384.765625
2.3012499,-11.963826179504395,-3.3638534545898438,9.746794700622559,-161.3311767578125,433.77685546875,386.5203857421875
2.3037499,-11.801020622253418,-3.7229835987091064,10.623072624206543,-167.999267578125,428.1768798828125,388.458251953125
2.3062499,-11.559206008911133,-4.23773717880249,11.662156105041504,-174.0264892578125,421.7071533203125,390.625
2.3087499,-11.219228744506836,-4.898536682128906,12.883199691772461,-178.2073974609375,414.886474609375,393.1121826171875
2.3112499,-10.790667533874512,-5.688623428344727,14.283807754516602,-180.267333984375,407.470703125,395.8740234375
2.3137499,-10.247182846069336,-6.555324077606201,15.842432975769043,-179.5501708984375,399.90234375,398.9715576171875
2.3162499,-9.591172218322754,-7.457938194274902,17.515979766845703,-176.7578125,391.265869140625,401.9927978515625
2.3187499,-8.791508674621582,-8.365341186523438,19.275718688964844,-171.4935302734375,382.75146484375,404.5867919921875
2.3212498999999998,-7.848193168640137,-9.29189682006836,21.109676361083984,-162.7349853515625,374.0692138671875,407.3638916015625
2.3237499,-6.739677906036377,-10.24000072479248,23.020248413085938,-151.2298583984375,364.593505859375,410.5682373046875
2.3262499,-5.463568210601807,-11.21204662322998,25.02898406982422,-136.8255615234375,354.98046875,413.26904296875
2.3287499,-4.046200752258301,-12.20803451538086,27.143064498901367,-120.0103759765625,344.818115234375,416.473388671875
2.3312499,-2.5330653190612793,-13.21359920501709,29.35051918029785,-100.311279296875,334.04541015625,419.7540283203125
2.3337499,-0.993593692779541,-14.2431058883667,31.641769409179688,-78.1402587890625,322.9522705078125,422.7447509765625
2.3362499,0.49799394607543945,-15.275007247924805,33.96175003051758,-54.1839599609375,311.248779296875,425.2471923828125
2.3387499,1.8746598958969116,-16.268600463867188,36.23145294189453,-27.3590087890625,298.126220703125,428.1005859375
2.3412498999999998,3.071760892868042,-17.1376953125,38.40299606323242,0.762939453125,284.698486328125,430.328369140625
2.3437499,4.089296340942383,-17.786523818969727,40.34947967529297,28.7017822265625,270.0653076171875,431.5185546875
2.3462499,4.898536682128906,-18.169597625732422,42.05415344238281,57.3577880859375,254.6539306640625,431.9915771484375
2.3487499,5.51624059677124,-18.310853958129883,43.48828125,86.7767333984375,239.227294921875,430.6640625
2.3512499,5.999869346618652,-18.258182525634766,44.6590461730957,116.2261962890625,222.6104736328125,427.6885986328125
2.3537499,6.378153324127197,-18.083404541015625,45.643062591552734,145.1568603515625,204.3914794921875,423.919677734375
2.3562499,6.701370716094971,-17.853561401367188,46.51934051513672,171.539306640625,185.0128173828125,418.3502197265625
2.3587499,6.988674640655518,-17.602170944213867,47.34773254394531,195.098876953125,163.5894775390625,411.590576171875
2.3612499,7.206547260284424,-17.391481399536133,48.17133712768555,215.972900390625,140.93017578125,403.7017822265625
2.3637499,7.350199222564697,-17.278953552246094,48.98297119140625,234.19189453125,116.2261962890625,395.8740234375
2.3662499,7.405265808105469,-17.269376754760742,49.739540100097656,249.6185302734375,89.5843505859375,388.00048828125
2.3687499,7.4100542068481445,-17.401058197021484,50.4410400390625,261.9171142578125,62.530517578125,379.425048828125
2.3712499,7.390900611877441,-17.616535186767578,51.068321228027344,271.209716796875,34.393310546875,370.2392578125
2.3737499,7.386112213134766,-17.887081146240234,51.618988037109375,278.1524658203125,5.7373046875,360.748291015625
2.3762499,7.433996200561523,-18.136077880859375,52.04515838623047,282.77587890625,-23.3612060546875,351.0589599609375
2.3787499,7.565677165985107,-18.3324031829834,52.33485412597656,285.675048828125,-52.8106689453125,341.156005859375
2.3812499,7.819462776184082,-18.4257755279541,52.45456314086914,286.1175537109375,-82.94677734375,330.352783203125
2.3837498999999998,8.202534675598145,-18.428171157836914,52.43780517578125,283.203125,-113.6932373046875,319.27490234375
2.3862499,8.700529098510742,-18.35395050048828,52.354007720947266,277.4505615234375,-145.263671875,308.3648681640625
2.3887499,9.282320022583008,-18.22226905822754,52.25345230102539,268.8140869140625,-177.459716796875,298.1109619140625
2.3912499,9.907206535339355,-18.04509735107422,52.19599151611328,257.8887939453125,-209.47265625,288.39111328125
2.3937499,10.5344877243042,-17.841590881347656,52.19599151611328,245.7733154296875,-241.02783203125,278.50341796875
2.3962499,11.111490249633789,-17.640478134155273,52.25345230102539,232.666015625,-272.3541259765625,268.61572265625
2.3987499,11.595118522644043,-17.465702056884766,52.37076950073242,218.6126708984375,-303.192138671875,258.392333984375
2.4012499,11.918335914611816,-17.37232780456543,52.55990982055664,203.887939453125,-333.343505859375,248.1231689453125
2.4037498999999998,12.042834281921387,-17.396268844604492,52.81608963012695,188.53759765625,-363.037109375,237.4267578125
2.4062499,11.93748950958252,-17.55668067932129,53.12733459472656,173.3551025390625,-392.2882080078125,226.5777587890625
2.4087499,11.592724800109863,-17.87271499633789,53.46492004394531,158.3251953125,-420.5169677734375,215.484619140625
2.4112499,11.046846389770508,-18.308460235595703,53.859962463378906,143.5546875,-447.5860595703125,203.6285400390625
2.4137499,10.32858657836914,-18.83518409729004,54.14008331298828,130.157470703125,-475.89111328125,190.2618408203125
2.4162499,9.469067573547363,-19.38345718383789,54.43935775756836,116.3482666015625,-500,176.055908203125
2.4187499,8.520963668823242,-19.907787322998047,54.61174011230469,104.461669921875,-500,160.797119140625
2.4212499,7.481880187988281,-20.384233474731445,54.767364501953125,94.2230224609375,-500,143.707275390625
2.4237499,6.382941722869873,-20.803218841552734,54.92538070678711,85.784912109375,-500,125.213623046875
2.4262499,5.219359874725342,-21.210233688354492,55.10734176635742,79.4219970703125,-500,105.499267578125
2.4287499,3.976768970489502,-21.648372650146484,55.33000183105469,75.714111328125,-500,84.53369140625
2.4312499,2.6455929279327393,-22.160730361938477,55.612518310546875,75.0579833984375,-500,63.0035400390625
2.4337499,1.2042834758758545,-22.764070510864258,55.971649169921875,76.8280029296875,-500,41.07666015625
2.4362499,-0.35673606395721436,-23.4464168548584,56.421756744384766,80.87158203125,-500,18.8446044921875
2.4387499,-2.0470423698425293,-24.1838321685791,56.97481918334961,86.9140625,-500,-3.11279296875
2.4412499,-3.869029998779297,-24.985889434814453,57.6044921875,95.977783203125,-500,-24.4140625
2.4437499,-5.793968200683594,-25.840618133544922,58.27726364135742,107.7117919921875,-500,-45.4559326171875
2.4462498999999998,-7.8314337730407715,-26.762386322021484,58.94045639038086,121.6888427734375,-500,-65.399169921875
2.4487499,-9.93593692779541,-27.732038497924805,59.56055450439453,138.48876953125,-500,-84.716796875
2.4512499,-12.109871864318848,-28.708871841430664,60.10403823852539,156.1126708984375,-500,-102.630615234375
2.4537499,-14.324508666992188,-29.6378231048584,60.57090759277344,175.567626953125,-500,-119.3695068359375
2.4562499,-16.558298110961914,-30.473400115966797,60.93243408203125,195.86181640625,-500,-134.796142578125
2.4587499,-18.7657527923584,-31.16053581237793,61.200584411621094,216.2017822265625,-500,-149.1241455078125
2.4612499,-20.922927856445312,-31.677682876586914,61.36578369140625,235.4736328125,-500,-162.109375
2.4637499,-23.02743148803711,-32.03202438354492,61.46394729614258,254.241943359375,-500,-173.919677734375
2.4662498999999998,-25.067291259765625,-32.21158981323242,61.52140808105469,273.101806640625,-500,-184.4482421875
2.4687499,-27.064056396484375,-32.26186752319336,61.56210708618164,290.4510498046875,-500,-193.634033203125
2.4712499,-29.05124282836914,-32.20440673828125,61.66505813598633,306.610107421875,-500,-201.5533447265625
2.4737499,-31.05040168762207,-32.067935943603516,61.82786560058594,320.220947265625,-500,-208.8165283203125
2.4762499,-33.11659622192383,-31.926679611206055,62.0505256652832,330.87158203125,-500,-214.6453857421875
2.4787499,-35.25940704345703,-31.794998168945312,62.306705474853516,340.3167724609375,-500,-218.170166015625
2.4812499,-37.49798583984375,-31.7183837890625,62.538944244384766,347.7020263671875,-500,-220.27587890625
2.4837499,-39.80839157104492,-31.70641326904297,62.682594299316406,352.447509765625,-500,-221.19140625
2.4862499,-42.195411682128906,-31.768661499023438,62.70653533935547,356.1553955078125,-500,-220.550537109375
2.4887499,-44.63270950317383,-31.936256408691406,62.507816314697266,357.086181640625,-500,-217.9718017578125
2.4912499,-47.12507247924805,-32.168495178222656,62.02418899536133,355.40771484375,-500,-213.0889892578125
2.4937499,-49.610252380371094,-32.44861602783203,61.17424774169922,350.9368896484375,-500,-206.5582275390625
2.4962499,-52.05712890625,-32.68324661254883,59.93644714355469,343.109130859375,-500,-199.21875
2.4987499,-54.37950134277344,-32.802955627441406,58.27486801147461,332.6873779296875,-500,-191.2841796875
2.5012499,-56.53428649902344,-32.69761276245117,56.18712615966797,319.8089599609375,-500,-183.2733154296875
2.5037499,-58.418521881103516,-32.345664978027344,53.69236755371094,304.5654296875,-500,-175.47607421875
2.5062499,-59.92447280883789,-31.687259674072266,50.8193244934082,287.261962890625,-500,-167.938232421875
2.5087498999999998,-60.92764663696289,-30.765491485595703,47.71165084838867,268.310546875,-500,-161.3311767578125
2.5112499,-61.30353546142578,-29.539661407470703,44.49384307861328,246.76513671875,-500,-156.6619873046875
2.5137499,-61.049747467041016,-28.033708572387695,41.31913375854492,223.2513427734375,-500,-153.411865234375
2.5162499,-60.266845703125,-26.204538345336914,38.26173782348633,201.6143798828125,-500,-152.3590087890625
2.5187499,-59.12241744995117,-24.037784576416016,35.321659088134766,180.694580078125,-500,-153.38134765625
2.5212499,-57.963623046875,-21.648372650146484,32.479740142822266,158.38623046875,-500,-155.8990478515625
2.5237499,-56.86947250366211,-19.00996208190918,29.666553497314453,138.397216796875,-500,-159.1644287109375
2.5262499,-56.029109954833984,-16.314090728759766,26.841394424438477,118.743896484375,-500,-161.68212890625
2.5287498999999998,-55.385066986083984,-13.673285484313965,23.968353271484375,98.4649658203125,-500,-163.63525390625
2.5312499,-54.86552429199219,-11.312602996826172,21.02587890625,77.728271484375,-500,-166.4276123046875
2.5337499,-54.3483772277832,-9.464279174804688,18.006790161132812,59.295654296875,-500,-168.701171875
2.5362499,-53.74982833862305,-8.2312650680542,14.903905868530273,44.7235107421875,-500,-169.464111328125
2.5387499,-52.954952239990234,-7.63989782333374,11.73398208618164,34.759521484375,-500,-167.877197265625
2.5412499,-51.94220733642578,-7.469909191131592,8.525752067565918,27.28271484375,-500,-164.24560546875
2.5437499,-50.72834396362305,-7.4986395835876465,5.295974254608154,24.0936279296875,-500,-157.501220703125
2.5462499,-49.299007415771484,-7.390900611877441,2.1787235736846924,24.444580078125,-500,-147.64404296875
2.5487499,-47.661373138427734,-6.92881965637207,-0.629675030708313,26.2908935546875,-500,-134.3231201171875
2.5512499,-45.93754959106445,-6.033388137817383,-3.095702886581421,27.2674560546875,-496.673583984375,-118.682861328125
2.5537499,-44.259212493896484,-4.924872875213623,-5.319916248321533,21.4691162109375,-476.348876953125,-104.43115234375
2.5562499,-42.743682861328125,-3.93367338180542,-7.3669586181640625,16.693115234375,-460.2813720703125,-88.0889892578125
2.5587499,-41.41011428833008,-3.4572272300720215,-9.390059471130371,18.6614990234375,-442.901611328125,-66.34521484375
2.5612499,-40.17709732055664,-3.557783842086792,-11.286267280578613,23.529052734375,-423.5076904296875,-41.2139892578125
2.5637499,-38.89380645751953,-4.005499362945557,-12.866439819335938,27.069091796875,-402.2979736328125,-14.7552490234375
2.5662499,-37.466861724853516,-4.335899353027344,-14.015656471252441,29.5867919921875,-382.0953369140625,10.467529296875
2.5687499,-35.86753463745117,-4.113238334655762,-14.767436027526855,29.3121337890625,-362.3504638671875,34.8358154296875
2.5712498999999998,-34.134132385253906,-3.1052796840667725,-15.200786590576172,23.773193359375,-340.8966064453125,57.5714111328125
2.5737499,-32.37439727783203,-1.3503297567367554,-15.425841331481934,14.0838623046875,-318.1915283203125,77.5604248046875
2.5762499,-30.75591468811035,0.9361328482627869,-15.535974502563477,0.7476806640625,-294.7540283203125,94.2535400390625
2.5787499,-29.441497802734375,3.4620156288146973,-15.550339698791504,-15.0299072265625,-270.9197998046875,107.6507568359375
2.5812499,-28.479028701782227,5.904101371765137,-15.476119995117188,-32.4249267578125,-247.406005859375,117.8131103515625
2.5837499,-27.844566345214844,8.02536392211914,-15.267824172973633,-51.20849609375,-223.4039306640625,124.5269775390625
2.5862499,-27.420791625976562,9.672574996948242,-14.92066478729248,-70.3887939453125,-200.2105712890625,128.96728515625
