# Time (seconds),Accel_X,Accel_Y,Accel_Z,Gyro_X,Gyro_Y,Gyro_Z
0.0012499,8.960900833337961,-3.684914986117365,1.770852967501781,14.285502443552694,-3.225425066310876,0.15405721706827533
0.0112499,9.004791261573551,-3.6686941401620254,1.8579725822601005,15.0137380723058,-5.221961145468748,0.8558953595016928
0.0212499,8.93534688591284,-3.640545448370418,1.8693276263471181,14.684948832751404,-7.145322541740039,1.7448063379267331
0.0312498999999999,8.764759857862128,-3.666372295457885,1.922160573199564,14.34556043293687,-10.351240031572702,2.3094243508321104
0.0412499,8.829991191192365,-3.641893920188069,2.158489653739722,13.450360496861755,-13.956171639534455,2.2716370908562156
0.0512499,8.974234727842335,-3.60307051589889,2.3411033940468626,11.651005550558919,-16.799213582926114,1.6384966990111245
0.0612498999999999,8.965296780878884,-3.6563766557369,2.308139247436045,9.462195497990194,-19.34836622238938,0.6001328244790857
0.0712499,8.943946078464354,-3.750170734213941,2.2048565292562046,6.921266599371259,-22.056293248925755,-0.9334296456831491
0.0812499,9.000690489735103,-3.841223234229755,2.2066283603638834,4.484423118720258,-24.524069572940128,-2.8463592556996318
0.0912499,9.03407879508596,-4.030435356216968,2.3233464323192394,2.8175567477614956,-26.56300417516546,-5.136726394779566
0.1012499,9.008747628877087,-4.284674562481784,2.422352706069951,2.5770634732795155,-28.180003177243517,-7.392339886254382
0.1112499,8.955881540972568,-4.451811249612046,2.506987881511553,3.674777216050755,-29.46862345261224,-9.070849226930155
0.1212499,8.92649576409165,-4.601376934835462,2.5535690000603153,5.705748268269301,-30.078172128061677,-10.383919928942293
0.1312499,8.913706270213764,-4.776728309337952,2.4351525369220575,8.811902434236288,-30.33278210516969,-11.423489018565865
0.1412499,8.825883214332055,-4.844279563954662,2.2772710167198005,12.388862337465373,-30.97573268030691,-12.037165461452432
0.1512499,8.688712675443096,-4.783188957939472,2.1919284521142854,15.83541387669352,-31.661048614764876,-12.66621751454573
0.1612499,8.537265172382916,-4.721376525998474,2.042674751454519,18.698620556648763,-32.08353316152393,-12.945447406076092
0.1712499,8.372358551841696,-4.677223360096849,1.8357449420236593,20.493939974635207,-32.337861480477834,-12.506533964584388
0.1812499,8.257625163525496,-4.5349651459952485,1.6480142849448531,20.58104752466085,-32.3011430097636,-11.88777574340143
0.1912499,8.207153484081614,-4.317061857680951,1.4605871818932494,18.979920817133358,-32.28953602910095,-11.363399578979612
0.2012499,8.200134797003397,-4.138584033966426,1.2737898599050212,16.405853198661447,-32.13758730182064,-10.919407472852233
0.2112499,8.243210142441374,-4.047718976682735,1.0439233583365595,13.336158086821817,-31.689472096105476,-10.166200826046968
0.2212499,8.240233917949032,-3.977367787485671,0.7911394396295238,10.134281533359117,-31.291269935535357,-8.902327488893137
0.2312499,8.244203920036746,-3.8773045608878536,0.6553957295743401,7.180106556556411,-30.793600594601035,-7.6178722134427375
0.2412499,8.331280905940737,-3.8075992701665666,0.5588832904708642,4.824860361853243,-29.77511150399768,-6.500683359665131
0.2512499,8.374298591946198,-3.835129879022163,0.3704306016523325,2.9123700118760443,-28.036441984469562,-5.090694543190523
0.2612499,8.362656712784087,-3.8870094747906374,0.21465004463019022,1.6888559544586002,-26.504974311990374,-3.5139093279095137
0.2712499,8.48143627911878,-3.853954266961745,0.20928954254483872,1.1376810193639169,-25.009128308981083,-2.05506366485976
0.2812499,8.641761722664517,-3.822167018876645,0.22406613650865692,1.4191585847735413,-22.891112206371954,-0.9397619035965102
0.2912499,8.702267653305348,-3.8993168105786693,0.14716494319382653,3.0146966485644358,-20.846510990146278,0.15957157144277498
0.3012499,8.79232337768571,-3.98788067382766,0.11181410423577429,5.810996265598739,-19.14821986146593,1.9187275290906394
0.3112499,8.902746535262306,-3.964033857898759,0.07914801775237636,8.792761847773745,-17.317059964436282,3.8336411288335936
0.3212499,8.941663881550124,-3.8931407474906705,-0.04362982707970953,10.56398790131949,-16.00984297406705,5.461743175955467
0.3312499,8.981487805768369,-3.801045187113827,-0.0623833690145124,10.620886819806433,-15.05476448864449,6.734888533789389
0.3412499,9.03374692681266,-3.6839768038015275,0.03155945996029397,9.318218613636432,-13.891211633923067,7.182618325173155
0.3512499,9.074694911165164,-3.6259133244907513,0.1086341309378006,7.194029953708157,-12.717443034400395,6.736880897938906
0.3612499,9.091528294518328,-3.6736125538528044,0.14486433460673878,4.422582095733336,-11.810337412930425,6.108892687209092
0.3712499,9.087374236423157,-3.813157485210927,0.20300047071021077,1.712752282649149,-10.905603830409737,5.629387629642376
0.3812499,9.046897545247532,-3.96103541681602,0.29070167664539515,-0.7437949320031363,-10.040316087120654,5.169434146075265
0.3912499,8.995138744863137,-4.028763045061982,0.350198414548171,-3.059066136301017,-9.591266830955956,4.412926899472307
0.4012499,9.000043443569455,-4.055154374535371,0.39354495655146693,-5.024820478348885,-9.440825027014196,2.95742675293363
0.4112499,9.033903216649401,-4.1092955017503945,0.4565816106948482,-6.462573956613725,-9.095744434152634,1.7062653613081218
0.4212499,9.043095454468697,-4.151908371763058,0.540133839832527,-7.416362673426836,-8.282568438343809,0.8795806273464086
0.4312499,9.040371935668315,-4.1297751812969885,0.5733936769531502,-8.266486255550792,-7.341983449695094,-0.1301783988273957
0.4412499,9.054064919671307,-4.065032631473358,0.53077600846709,-8.553732285710266,-6.565944083146536,-1.2301169127965572
0.4512499,9.108343256936525,-4.005965832410702,0.4885482113892137,-8.239342701073024,-5.859262940142296,-2.497348034308065
0.4612499,9.14595108120983,-4.01302947684197,0.5145738396704396,-7.447674881089934,-5.175671832781193,-3.5042796138606556
0.4712499,9.11301660880145,-4.067703495908233,0.5058116744060684,-6.0015089681003,-4.437104864489659,-4.046805523266634
0.4812499,9.071683290960358,-4.091654297884697,0.4464913016428043,-4.573587109363013,-3.8848561180084666,-4.385211445574213
0.4912499,9.077635846286295,-4.050838197244945,0.43731881785160576,-3.508726730110962,-3.15658493350168,-4.471314937953273
0.5012499,9.092318857136679,-3.9598379326541853,0.45228159475141044,-2.858633441911611,-2.4584409125422737,-4.63103263269692
0.5112499,9.05055653563979,-3.911013027149558,0.45892938175470854,-2.5128386593720933,-1.9739515541852997,-5.002290107304036
0.5212499,9.03443051242607,-3.881407373632909,0.4491965554276591,-2.6214398231018308,-1.5711125965849602,-5.393343314738182
0.5312499,9.02301839789311,-3.8524178450621682,0.4651334965136415,-2.968096040553329,-1.19193094132367,-5.576167182145043
0.5412499000000001,8.947471788747482,-3.8491654134801063,0.44232519693812455,-3.255763296358544,-0.8525680845533448,-5.536658248774836
0.5512499000000001,8.917939058291754,-3.8143662816508814,0.35220783134087763,-3.5591660475217917,-0.9110560015493111,-5.395980041850994
0.5612499000000001,8.953885507670487,-3.747340603544261,0.32174907864179036,-4.2359079493224145,-1.4705509247024073,-5.2331902559510866
0.5712499000000001,8.984014796661164,-3.713280477473918,0.36557301822683125,-5.110683162123796,-2.0278440815606107,-4.784404731870812
0.5812499,9.00040353849842,-3.698763480566168,0.3568079890972712,-6.009523884302661,-2.329113246506333,-4.293192706904139
0.5912499,9.048512653032224,-3.7038081739590183,0.32835705275840993,-7.182793206845995,-2.77884248346566,-3.911604672374181
0.6012499,9.154054243813933,-3.74841334941408,0.41633253513510593,-8.382927439084707,-3.2494676371776383,-3.6219897569846298
0.6112499,9.208648946199922,-3.772674874483129,0.46500346689287975,-9.419861495626241,-3.5891393062826698,-3.267097452068722
0.6212499,9.21259765880786,-3.796886452287538,0.42102667749136846,-10.225294148457612,-3.9838236508452045,-2.814230329361776
0.6312499,9.220557176914255,-3.85192741077491,0.40760567887607035,-10.715069062990654,-4.348625468900722,-2.3623086254804444
0.6412499,9.192581528893049,-3.87874646353089,0.3933930549037322,-11.217951242476236,-4.674415297462568,-1.6914960286309764
0.6512499,9.177390513282152,-3.838451674651071,0.33881757615049735,-11.637317793500012,-5.059862199265687,-1.457393621519919
0.6612499000000001,9.202049941576082,-3.8096680099876172,0.3229950276771284,-11.77106456069014,-5.585558665929733,-1.6801423185491102
0.6712499000000001,9.24758716793365,-3.7979882477686546,0.3808733318823209,-12.203574302137827,-6.080026692427253,-1.5828794180543093
0.6812499000000001,9.275253980967623,-3.793683909136587,0.4065351681706375,-12.51268847626607,-6.388937726026232,-1.3619790916753578
0.6912499000000001,9.247031362037372,-3.80795519800592,0.3753986293519399,-12.79504767875778,-6.674500555512107,-1.2548116267473206
0.7012499000000001,9.242735948812108,-3.79587008813478,0.36053794053899474,-13.484678972953434,-7.1484098273474945,-1.1823232385472096
0.7112499,9.24975398303161,-3.7225571098599755,0.34488329755376845,-14.478125232626336,-7.630474553628209,-1.2250291921909684
0.7212499,9.230700641094383,-3.655377689697985,0.3300752745020636,-15.57512888697157,-8.207811391788521,-1.3485088071459237
0.7312499,9.196335444834428,-3.6366923437019327,0.29895801974997493,-16.54559916777068,-8.95211031243369,-1.4912534780479847
0.7412499,9.160002025247534,-3.6506598415672045,0.28203100949884957,-17.052154111054836,-9.38048497453544,-1.4813031323308703
0.7512499,9.110896828896893,-3.6701272555585445,0.2257526171263679,-17.278451804256395,-9.470711532160408,-1.0912729260432423
0.7612499,9.028603078558866,-3.667959996835955,0.15410638207372468,-17.549133293371195,-9.62228019465268,-0.5022164514130356
0.7712499,8.953016716399263,-3.632543401732069,0.1408454100070606,-17.72898463025703,-9.679415365842067,0.01590649706079135
0.7812499,8.898982917478792,-3.555018098933488,0.1313169120707104,-17.723538523502306,-9.829889784371803,0.45651745313118364
0.7912499000000001,8.866873709870134,-3.468692791576929,0.09948933484615984,-17.54139546186894,-10.193218509271455,0.9472119586547174
0.8012499000000001,8.800123759491894,-3.43275705927071,0.0016424728889861478,-17.43703245830402,-10.397225434420642,1.77617114923707
0.8112499000000001,8.754468228668932,-3.4392373339380145,-0.11080076162544877,-17.562469249517477,-10.493167175394268,3.0808018716644003
0.8212499000000001,8.758271653402755,-3.4063935764795272,-0.14281702488220033,-17.94004804671846,-10.55584786882461,4.41362107630614
0.8312499000000001,8.717415498687437,-3.324825826246912,-0.15756382489475404,-18.669728235225367,-10.300088173512046,5.738450424100221
0.8412499,8.689189937009846,-3.2511472233827954,-0.23454886032416475,-19.96171145826284,-9.761222354892334,7.1522204939691605
0.8512499,8.735174897422322,-3.2093701248274322,-0.36610044938235714,-21.726276739792503,-9.166524474409089,8.687953542233085
0.8612499,8.756618743134371,-3.2244744015784064,-0.4074796335820356,-23.08165120088545,-8.632820368193096,10.325941830431333
0.8712499,8.699595747655115,-3.2450453433324817,-0.3689839754931595,-24.032651257541467,-7.935754666516607,12.053854969939998
0.8812499,8.624450433282078,-3.2549367929540898,-0.4260809454354871,-24.448204386435496,-7.055654544518411,13.674182064264837
0.8912499,8.500563675260025,-3.2910724326875433,-0.5802136483419472,-23.80758068148493,-6.728825662634778,15.154099402190184
0.9012499,8.332786797698548,-3.3203191891985386,-0.6671532143679393,-22.10175575028906,-7.008313991203608,16.647376692211267
0.9112499,8.307815651145603,-3.3922227565022056,-0.6707106413031221,-18.886726844785674,-7.064224460159676,17.946284697768192
0.9212499,8.384874605722233,-3.5136858647369795,-0.7245208809537877,-14.180387199307937,-7.089079686607657,19.270174946272423
0.9312499,8.466627767328674,-3.673315122485644,-0.6825554395864774,-9.27152090386446,-7.518581090642544,21.539232331556722
0.9412499,8.700585867961447,-3.776512242717257,-0.441264912440216,-6.2577876687680725,-6.945197744931697,24.276683631946636
0.9512499,8.99086744960663,-3.7493010448885307,-0.14835781961126754,-5.411784518886924,-5.324807739809682,26.25527049827474
0.9612499,9.208399326598975,-3.7059512203915275,0.048504946933079884,-6.24106301657637,-3.3758606503624438,27.702867851725397
0.9712499,9.363365978013105,-3.748425242573278,0.042436532265342115,-8.061903178120417,-1.375986880648528,28.807981357569005
0.9812499,9.400657309397081,-3.8033157048692536,-0.06994754307596318,-10.100942631677693,-0.3339300020420621,28.98480701542379
0.9912499,9.314735770987713,-3.7172418514861296,-0.14604220345106136,-12.614050905965973,-0.4009217650915791,28.298007782252125
1.0012499,9.168908395796981,-3.5742668002210825,-0.20195276782491592,-15.390319692187777,-1.2654377330136515,26.86978472589751
1.0112499,9.032693204919434,-3.552048123802793,-0.24629649754449714,-18.06856213366476,-2.9537000314955484,25.225131636894027
1.0212499,8.939536089486438,-3.6423208515726797,-0.18135047116510852,-20.55795992888753,-5.113290802126847,23.877150593360238
1.0312499,8.882038098688344,-3.721556517542297,-0.12326438069690844,-22.50674240093046,-7.179313196152114,22.717697279206032
1.0412499,8.807787437270308,-3.7809884826630085,-0.21818522976366964,-23.498985922918408,-8.92598103314845,21.727025472893242
1.0512499,8.933155627994932,-3.8428068493945737,-0.24035661469347563,-23.266142382205533,-10.521190741140892,20.701920029328853
1.0612499,9.292934014607782,-3.9179929983088493,-0.05448015727368167,-21.459945219397717,-11.875641539982494,19.506234060563937
1.0712499,9.517280959404898,-4.088717980303419,0.05748755312185067,-17.78899142806576,-12.390579025049881,18.303032158212183
1.0812499,9.607770204797607,-4.233991143314497,-0.09392659755122329,-13.574828730617886,-11.928292045746964,17.024265058583797
1.0912499,9.697328122454433,-4.128961012712169,-0.3021986359980524,-10.568062158061016,-11.212963140695942,15.202912713803851
1.1012499,9.853269733113022,-3.9425248963921327,-0.34918349776880575,-8.382781012021765,-10.52009821702789,12.570724351092604
1.1112499,10.063234418367315,-3.9105713434318505,-0.2070048779265839,-6.140310527374999,-9.107421816976226,9.397794999624416
1.1212499,10.084514065347557,-4.035564680796489,-0.050413269197355455,-3.0124692484409263,-7.018709658897802,5.907620552530077
1.1312499,9.925940309710825,-4.253376254663884,-0.05947044445959278,2.0518002241609077,-5.195668551880008,2.760670790579473
1.1412499,9.650562292405155,-4.452769365523359,-0.15990226664979362,9.142354260150999,-3.4724033715258784,0.12694105471757897
1.1512499,9.34318776744939,-4.506257212915194,-0.18036775241079223,15.834652535069063,-1.9940004437519425,-1.6455465409999521
1.1612498999999998,9.08783435735366,-4.430923125758776,-0.1377020882930596,20.876354772485417,-0.9697999213831907,-2.7998541368065197
1.1712498999999998,8.868110533790029,-4.3345120672379,-0.15942118819012002,24.411500179945357,0.04680322443859,-4.2213536251357215
1.1812499,8.677606497692386,-4.2775384573543205,-0.24622556593275524,25.839651182604957,0.8285828106081589,-5.467852130774604
1.1912499,8.520271009866029,-4.201881655939344,-0.3203121755117383,25.237308327122676,1.1628689539462094,-6.509721382141855
1.2012499,8.45218526050815,-4.144742595943421,-0.317005902166414,23.096093223065242,1.7373402386886803,-7.632771076477196
1.2112499,8.470397875341959,-4.215142465629389,-0.2708941777538369,20.283561151017235,2.9544758255510257,-8.62143423258639
1.2212499,8.466869962315695,-4.349985226410175,-0.2886837212642305,17.216223072480815,4.589033600539119,-8.973431929679869
1.2312499,8.417008220024341,-4.4743067663946805,-0.312318628502676,14.709986612187848,6.060649822844657,-9.04055328144854
1.2412499,8.381241146845042,-4.643676650046165,-0.2893033772247177,13.491726283694264,7.439463838922255,-8.852285361347949
1.2512499,8.311200445938487,-4.893583232158618,-0.2799495946756558,14.129377341669143,8.29932726227977,-8.115491936758392
1.2612499,8.26103053853462,-5.150060015686081,-0.27442739244734665,16.543684290658533,8.79123376652403,-7.147716399639659
1.2712499,8.250276944206353,-5.315880623977543,-0.31408465150791093,20.05811438186149,9.259101439622372,-5.845496776341545
1.2812499,8.20217953976701,-5.404627880430762,-0.3660656467803713,24.045935338542986,9.22869560225835,-4.365744795814854
1.2912499,8.161893708632062,-5.446442356758547,-0.3715490141639464,27.632440114686858,8.677397385631265,-2.957824403231037
1.3012499,8.174460559248788,-5.410176465953587,-0.40724774430699684,30.157590004631185,7.925017741770121,-1.5186766830119847
1.3112499,8.191683003258175,-5.321515586834901,-0.4686725869920846,31.254104648741738,7.224525975379507,-0.36565150245090894
1.3212499,8.178376783653725,-5.240989314843585,-0.4713640383002055,30.70644239057551,6.154765308212378,0.452580627955018
1.3312499,8.228011738967844,-5.169697366701931,-0.4476858435830643,28.634242811064844,4.73600720303203,1.0707350206029242
1.3412499,8.28545293437194,-5.117241061250885,-0.4536710715984977,25.449449965139006,3.4162546726016405,1.5240002478392662
1.3512499,8.282952459887587,-5.13176169811979,-0.5168166490139371,20.430505445625556,2.170652582153079,2.286011530182776
1.3612499,8.27896755197155,-5.181350718026653,-0.5633615892790379,15.040178128792526,1.1134966549810317,3.1735282973910452
1.3712499,8.302444770004268,-5.199100016461948,-0.5719454954520728,10.548556414892861,0.21840529846576265,3.6460420405090943
1.3812499,8.32335163399884,-5.2069849818090335,-0.619228884564703,6.4949734321646275,-0.8982189001026707,3.853420680298625
1.3912499,8.434096623145683,-5.274236363512911,-0.6371568187644411,3.668580055818577,-1.7088138742397196,3.8818765837853633
1.4012499,8.606822234072572,-5.356421551379491,-0.647433400699534,1.7622016402920255,-1.9751941567894788,4.113356712039839
1.4112498999999998,8.706401247654446,-5.423926191476351,-0.7300701453971116,0.4859179667047793,-2.1794697651176778,4.688667920181916
1.4212498999999998,8.781869873607253,-5.384332305100211,-0.724945331003912,-0.11370824218499324,-2.2777555430466565,4.870018607103731
1.4312499,8.879479820869713,-5.2934980182077815,-0.6943347803646716,-0.4240670516057111,-2.137197788143884,4.578633135672283
1.4412499,8.935364192667498,-5.266839308728919,-0.735981113872814,-0.6544556933854773,-2.0394559799824847,3.985305580126912
1.4512499,8.99016240479629,-5.232441386759121,-0.7310107504185397,-0.9633711058276242,-2.0045991874757734,3.089489749441455
1.4612499,9.08885491966635,-5.178645475039637,-0.7122884369882005,-1.098249141664299,-1.5546614379977943,1.8872383713440346
1.4712499,9.112003759890866,-5.156957499236742,-0.697422550389751,-1.4454492345944965,-1.0117653300667766,0.6135425934855779
1.4812499,9.070077447124476,-5.148697865130668,-0.5497118119619461,-1.5211385164214073,-0.7756237108308619,-0.6641873201067063
1.4912499,9.07463376493847,-5.096932672699281,-0.41102909836972407,-1.577078495045486,-0.31304085789155706,-1.802547646073145
1.5012499,9.058411780481219,-5.058959621424155,-0.38720628870207957,-1.6791746877335485,0.12722029872292978,-3.0210537753976423
1.5112499,9.012580709627848,-5.04964260375351,-0.368597207534108,-1.5085432204223217,0.05767380997418938,-4.49032196875144
1.5212499,8.964170682810842,-4.989480619384384,-0.29382414727850215,-1.097258727694442,-0.3679055898741209,-6.146225084174981
1.5312499,8.906630472957321,-4.909108522637244,-0.1853828725892278,-0.48712965292429944,-0.7003771096110415,-8.09892111457973
1.5412499,8.839802185729045,-4.93125770577128,-0.14060549012094078,0.3690517699394396,-1.1326696411115864,-9.611228348602452
1.5512499,8.773000198999842,-4.935983449931065,-0.17848434939464378,0.9695737137167753,-1.7342484110759646,-10.368289521636493
1.5612499,8.729204807532508,-4.772474311108405,-0.16108576170368935,0.8459197636327632,-2.652750510087581,-11.463189827332478
1.5712499,8.757369427534826,-4.568431184343197,-0.05465680722408243,0.5961901748978353,-3.8308785886379835,-13.007524066667337
1.5812499,8.81428314479872,-4.495131971859348,0.034112441689781704,0.5297541850839161,-4.728155358088211,-14.237912215082542
1.5912499,8.820376830426241,-4.534777471706833,0.058600773243905016,0.6427027285145428,-5.180964399515976,-14.678006686488983
1.6012499,8.760402351815769,-4.492128288776837,0.005374265331859477,0.5809846481971825,-5.582574274597643,-14.614694193867987
1.6112499,8.666580840601183,-4.353755780537628,-0.09413961239030208,0.3732420640797001,-6.281268676911781,-14.796340938509248
1.6212499,8.598806289581749,-4.255335598118025,-0.15133213037031865,0.10962554166780182,-7.159255881753057,-14.89192764193548
1.6312499,8.577735617570076,-4.163706801540117,-0.17745486366658555,-0.47263218139560875,-7.735688985680827,-14.96242735915747
1.6412499,8.60761203948539,-4.100864796355924,-0.20107424969434515,-0.9504585237496627,-7.881549324510492,-14.965238822982137
1.6512499,8.612029410804288,-4.105977806767321,-0.23531422567457894,-1.1538356889381367,-7.947012158595711,-14.533805862334757
1.6612499,8.596713392896149,-4.106758255257922,-0.26823676385293926,-1.1610179991411191,-7.932928587895233,-13.874476237768274
1.6712498999999998,8.628467872143771,-4.094139363536542,-0.25278870101523193,-0.7679383552291185,-7.571900238136729,-13.131677263378227
1.6812499,8.640351687749687,-4.099448394481514,-0.2560760412344062,0.14943241107883756,-7.051856623812751,-12.338724465705608
1.6912499,8.649569816333457,-4.09126610845738,-0.3378119833478418,1.0693343164030134,-6.507812145297367,-11.501101966204441
1.7012499,8.688145214713778,-4.061644560495911,-0.4270813151631075,2.115088178945848,-5.956682494871879,-10.583808861206494
1.7112499,8.693318150752127,-4.030129373065474,-0.47684868216202164,3.1774513040266696,-5.340791398009631,-9.624220937352554
1.7212499,8.687503457839485,-4.000186567335166,-0.4767597828096594,3.6618382745821165,-4.783770876783161,-8.441546018072039
1.7312499,8.694918994332381,-3.933376425892582,-0.43594860998498813,3.389768270240513,-4.204523601626883,-7.669699095488238
1.7412499,8.706678017541568,-3.857574553544949,-0.4628757400061641,2.7737719557395595,-3.5898456632713085,-7.249890971911687
1.7512499,8.721008936942367,-3.8508089650038624,-0.5398223186762969,1.9756609244856969,-3.0930569287659506,-6.7664310177105165
1.7612499,8.735286734107213,-3.9100338160502575,-0.5505244003329105,1.241529514632141,-2.6087801773456496,-6.1623091852666585
1.7712499,8.751847245074075,-3.9623798527537857,-0.5305426655405705,0.4318611767902258,-1.9227564269913782,-5.456726604089811
1.7812499,8.754637763541114,-4.000192988641586,-0.5597687926311251,-0.12617577160334376,-1.4334818386682404,-4.852920526059413
1.7912499,8.759690120198192,-4.050417875368424,-0.5746492099240155,-0.28733792591665713,-1.1968424984655988,-4.295846980387218
1.8012499,8.808662217543644,-4.058189528432373,-0.524256473613245,-0.09081347558791308,-0.7922873793937475,-3.7174463225703738
1.8112499,8.87460042999227,-4.037576448779784,-0.4811389585551987,0.1357523447801654,-0.2526198771308909,-3.483247101986128
1.8212499,8.910699351241469,-4.0560469025265045,-0.46703022168769387,0.4960261203359269,0.13082458368715805,-3.1637033062671027
1.8312499,8.919913515461745,-4.077823311587878,-0.4878664608571547,1.2362095211165387,0.6023733650677723,-2.5555770658042545
1.8412499,8.942646086820139,-4.0413269174062085,-0.5085735154054066,1.6168193930431933,1.0919349290372526,-1.8791662114160916
1.8512499,8.964883072141006,-3.9506402615666665,-0.45591389692756357,1.5541387631020624,1.54195470453698,-1.454683142227197
1.8612499,8.99158126165401,-3.8748501146840493,-0.42308399142764364,1.0198120427495365,2.0580272820536667,-1.0723459910136226
1.8712499,9.035918873481005,-3.847600112533039,-0.44911393009494477,0.09370943993361881,2.521596689613794,-0.6507834801817957
1.8812499,9.078859225785168,-3.833749329957285,-0.44287253234776086,-0.8382615587523959,2.892141150193885,-0.32595888306367077
1.8912499,9.088385047832112,-3.8438881303958885,-0.3634957349102242,-1.7330684000587988,3.3008869134337693,0.004120946601773139
1.9012499,9.080719843096807,-3.9252945061977704,-0.27557203059488183,-1.9762388112456766,3.591802635378905,0.24694660183989003
1.9112499,9.060278671238526,-4.041564316359292,-0.2610597348418486,-1.151122591599422,3.7767256591358107,0.4651779536570691
1.9212499,9.037743917299153,-4.103612519792279,-0.27074201698409367,0.04022954703317286,3.7244173924147783,0.7724547602897193
1.9312499,9.049887675541992,-4.072302015923528,-0.25243534071841645,1.1531878211107753,3.348646411855498,0.8214561726070387
1.9412499,9.04835142247753,-4.039241321432486,-0.23336312038384546,1.957018438799726,3.114598571537987,0.7029058514626496
1.9512499,9.039750792850402,-4.007503575360509,-0.22608896807939693,2.410541785371316,2.879577279615807,0.6026097852633673
1.9612499,9.028053535844897,-3.958019430188791,-0.22472234483180614,2.591861053486245,2.4794181983143906,0.6670289250989949
1.9712499,8.973842864164096,-3.9157632286222506,-0.22594143574416872,2.1506206385107745,2.090867899668115,0.7073422211113101
1.9812499,8.935284362504794,-3.8679199199193337,-0.22655128659885881,1.1415413739165734,1.6807126134904664,0.4695160594983352
1.9912499,8.941572616107974,-3.850398702961822,-0.2183231467106497,0.23275707307696092,1.4642321884465868,0.198802119486112
2.0012499,8.992808383889816,-3.8913610886694334,-0.19148171502219696,-0.28231485350830493,1.4980181425367687,0.12316021412813874
2.0112499,9.042376164795174,-3.9370114297055716,-0.1806043650757555,-0.2768526373731769,1.5492188321700209,0.1991849171755238
2.0212499,9.034617655706947,-3.9514393701110686,-0.16532829679282873,0.22415355791005018,1.4827427317347424,0.32638570507809495
2.0312499,9.010781520735241,-3.983233543264389,-0.1621119856235983,1.0252817874138298,1.5012149067150147,0.390170126974632
2.0412499,8.966017549215895,-4.020602033122812,-0.18656945464805785,2.168285616574733,1.6449336335740017,0.6606727613950968
2.0512499,8.907149492022908,-4.0001068242661955,-0.18380029058820693,3.2028668368238673,1.5815791162682367,1.0745968471886966
2.0612499,8.893951813710425,-3.9646736868502424,-0.17312389048200288,3.61795510047205,1.4400829058744873,1.2426479031903546
2.0712499,8.885727573189378,-3.970359400498929,-0.18030765059210754,3.5881084448941047,1.6022406431542888,1.4028001116587931
2.0812499,8.859550623722985,-3.978162021039125,-0.18731574167375128,3.313823403530436,1.630176869693366,1.5936212778770875
2.0912499,8.843934759782556,-3.9814897345423557,-0.17460045076012426,2.532782682725495,1.588796877231991,1.8024963172870243
2.1012499,8.824603651177037,-4.025512473497781,-0.1691903463866875,1.7325322223028305,1.7160671908466596,2.0562199138961095
2.1112499,8.802407327419504,-4.08748627060963,-0.17363589818361588,1.1882403588699049,1.6982171396846983,2.2226800999960012
2.1212499,8.785992128178314,-4.117318483553197,-0.17994865722096026,0.7063503715321858,1.683144739122403,2.450475305657874
2.1312499,8.776245093487235,-4.121603204897458,-0.2224456856626695,0.2285824390658078,1.863559891821527,2.8993427779044296
2.1412499,8.753071614586954,-4.1173964416621835,-0.2528558507341282,-0.47454106267010376,1.9928944001512616,3.4829822605152905
2.1512499,8.708202159181734,-4.137575221862942,-0.2529757939985644,-1.0865659655740383,2.1246691761015124,4.197029874576008
2.1612499,8.690471961963983,-4.153776870922931,-0.2763012957179399,-1.4333190791936647,2.515489431673669,4.984402534809944
2.1712499,8.683639585395252,-4.161399985087027,-0.3112620732161905,-1.909944685355224,2.8741132243675684,5.668762932215205
2.1812499,8.664619911473178,-4.208697109520395,-0.32575274297101525,-2.330565478068825,3.252615636858246,6.487794790446554
2.1912499,8.631978390639789,-4.255748971110645,-0.3392672329030671,-2.6474151452071557,3.9460956822082376,7.672913589435855
2.2012499,8.585368245496321,-4.257111677105814,-0.3785000395933883,-2.8138009506344037,4.293176016484309,8.947328515074565
2.2112499,8.524353962431627,-4.25921242764224,-0.38409763928446505,-3.2215514065520403,4.295327937602273,10.100907604862208
2.2212499,8.48571269993624,-4.2364470165094295,-0.37430509976027304,-3.9039942482282615,4.232915403290532,11.650888348839587
2.2312499,8.489702727132995,-4.1802112808957155,-0.4070422706410117,-4.954171722445861,3.911418836987297,13.548447168068078
2.2412499,8.476664143092767,-4.118909191067129,-0.42507079388238,-6.584928847447408,3.259062901859375,15.38125669552554
2.2512499,8.442437501455634,-4.06772114131592,-0.4361853813041272,-8.564890089355474,2.5849745054235593,17.22255446688849
2.2612499,8.446489145155427,-4.045677360523693,-0.47133040284310984,-10.646892619926037,1.8784636586346157,19.365656006618625
2.2712499,8.464723007362227,-4.034947340207254,-0.5143195980415746,-12.490421676868934,0.8373303599716854,21.787878504294426
2.2812499,8.449310847890283,-3.995030793168349,-0.5405726762130562,-14.16243764578083,-0.10825275056133896,24.314039077399194
2.2912499,8.469979536269582,-3.909139462925237,-0.5817772509586622,-15.779511725125433,-0.9038100326738735,26.802624824880926
2.3012499,8.49852634149709,-3.784220968274485,-0.6249909069565943,-17.0631826106838,-1.8482905564329848,29.09758921571397
2.3112499,8.560070877258978,-3.6510521637488793,-0.6539960845721012,-17.96984348228831,-2.7042926627297694,31.31583604532517
2.3212499,8.674088141274582,-3.524257184894223,-0.7129703913876724,-18.619990221152303,-3.5496731189966337,33.527166500745665
2.3312499,8.725241982956629,-3.3860519005300445,-0.7574555177856187,-19.009242372383117,-4.447361408778944,35.95766768916424
2.3412499,8.680704730560356,-3.173244609890783,-0.8171816844795385,-20.02314407833254,-5.596000109435109,38.78433323131141
2.3512499,8.603496441596215,-2.8977131330884762,-0.9373745852920713,-22.128806737501947,-7.107560584478943,42.01926602353681
2.3612499,8.505797175120103,-2.673587655989716,-1.0015206426985075,-24.956451028817586,-8.915254124575611,45.481707138251636
2.3712499,8.476230897445241,-2.559691585300586,-0.998740005186321,-28.03722121886223,-10.686739549981128,49.44568985689187
2.3812499,8.760830762827199,-2.482384271823601,-0.9601912116178141,-30.952622618940303,-12.011670713690975,53.86201735493513
2.3912499,9.24946046739774,-2.3796665176324057,-0.7857266404290636,-33.93043386476779,-13.018401115948803,58.707298270866225
2.4012499,9.501027419521549,-2.280750110812481,-0.5464070829921124,-37.07581780491849,-13.933220376119579,64.40909198459586
2.4112499,9.54026741992457,-2.1872079166626928,-0.4086143027081682,-40.183530085094425,-15.065260901831943,69.41754375848707
2.4212499,9.57913131826,-2.105323997032635,-0.40731381121728955,-43.36057083887709,-17.242487965753277,74.42019817766933
2.4312499,9.687355329768373,-1.91846569536337,-0.5677301841454817,-47.15722138181612,-19.938556248966236,80.08655775410078
2.4412499,10.166190772359856,-1.4748738196195201,-1.0193612608052636,-51.10497482456586,-23.135345991118406,85.59999720773416
2.4512499,11.158955454636963,-0.8880074950172266,-1.5133836131423188,-53.52630038322583,-29.247399564588736,90.7561944225054
2.4612499,12.950243560590806,0.24769086355227787,-1.5127308379950932,-55.82717432333228,-37.75949850453016,96.32244019924273
2.4712499,15.975183558696095,2.131301010976519,-1.2898648160117414,-58.97079592329086,-48.2842984894601,101.73504215293676
2.4812499,19.842657829552927,3.8412879521702794,-1.0398300004559342,-63.640217362227986,-63.91053445391378,108.24267833744688
2.4912499,23.642612886761583,4.894190769733652,-0.8044910095548707,-71.32167911635143,-84.6829153280795,121.48692848645375
2.5012499,26.90847487669763,5.978676444450999,-1.3649916022995574,-87.96322967290203,-108.30208452841767,142.488626384522
2.5112499,29.897694824656906,7.802025347824715,-2.4435920819439736,-121.68036852507095,-132.73452517381654,165.70176258557146
2.5212499,32.5434208231335,9.964802341730504,-3.043637879786512,-176.10851329618427,-155.94593254436433,186.17448724982575
2.5312499,33.75244827449789,11.426661383053256,-3.236969083646867,-250.7505372709573,-175.5386059824444,205.55416171327957
2.5412499,32.16665671385085,12.216589449204166,-4.129370319151328,-351.09492676822174,-188.3451513809502,229.87117944405824
2.5512499,27.51092376483559,12.558005261809301,-6.605156519673632,-459.40163020767426,-195.27681472979734,259.6512155907854
2.5612499,20.85123147106013,10.351047965501838,-9.134799587277803,-504.02609073787033,-208.39354793533815,289.19151580417076
2.5712499,13.24086532568141,4.986820767141647,-10.192564048045588,-499.3391024120008,-227.27397353603683,319.37543979443245
2.5812499,3.276010127450754,-0.1588576872426013,-10.799965356568588,-499.53663841414834,-249.1709794417874,355.2585600230221
2.5912499,-8.936808277974086,-3.90896928140833,-11.091460085648276,-500.9217618380404,-280.8892878772421,389.3541916604198
2.6012499,-24.927769766144827,-4.737459850146554,-10.627847075452737,-498.28524009086755,-318.30913345815696,406.20286637405155
2.6112499,-47.62505831638694,-8.78515034723101,-11.963758941418213,-502.367135731679,-356.1853635684381,413.85075651034214
2.6212499,-63.50729704752247,-19.948366484735303,-18.819735904760478,-497.58124344467564,-348.104914654547,422.0720912218312
2.6312499,-58.07474685785689,-24.822225827897864,-24.44948731364475,-417.96089980023845,-263.3710224245913,405.4178137530508
2.6412499,-33.56561381311395,-14.795176716964173,-18.536005430114074,-326.3454570862479,-126.4220147073387,321.7155011064531
2.6512499,-13.14627714333497,-5.569107289078089,-5.468608562160349,-275.2043044662127,12.39782094294506,183.38084630920204
2.6612499,-8.793647148514472,-7.550173277230455,3.284527112480946,-200.5860327635939,98.41520877249988,43.533682923809344
2.6712499,-8.278567837944127,-13.666408027882808,2.9482434097519907,-48.39586098366491,136.60027847706172,-79.76452048060244
2.6812499,-10.133195496079274,-17.791502897025754,-3.1315295388640547,154.959783907393,147.70978522662836,-174.00175357432713
2.6912499,-15.774369792544272,-18.776530436723164,-7.9062198482270905,336.36606411589105,143.39738564367815,-220.52638438958869
2.7012499,-20.461584499948266,-14.463915000500766,-9.41859098260785,447.4392072687552,133.73562423989708,-225.71531514186253
2.7112499,-21.65255616108264,-5.190903815262371,-10.048513411420936,475.02466495638595,118.88893351061868,-218.04182488949743
2.7212499,-18.867840308797177,3.180355670943451,-10.430681415330033,440.3037091372932,101.90408812959221,-215.9510828629872
2.7312499,-14.843001332818647,6.880034738153767,-10.093095132140645,370.3863138170633,87.18579150660395,-215.95910943846525
2.7412499,-11.5558393066607,7.351695882658586,-9.470335162188649,285.1819546461135,77.47677991169505,-211.88955827305247
2.7512499,-8.675109913286128,6.561794276841945,-9.055475290156506,201.85975747232507,71.51684524917968,-204.74885343205898
2.7612499,-5.667015540672196,4.631485017483628,-8.590763981835895,133.55329324103496,66.28744455345571,-195.39641823724094
2.7712499,-2.4266897975122896,2.2384561813335804,-8.086127367753289,82.06333100547636,61.174368991460085,-183.99453169299915
2.7812499,0.7027853614967489,-0.025259814192570826,-7.736617548356026,48.33794252579311,56.66495440314887,-170.88791842673834
2.7912499,3.4595352906534282,-2.005896232622184,-7.575356659390479,28.735717803584063,52.796600457508376,-154.05240568900396
2.8012499,5.780708581077927,-3.349946821820223,-7.364115712807704,16.347526349015553,53.08085428704083,-134.14965672963038
2.8112499,7.060822155075559,-4.142979011492151,-7.3583410813885095,10.659014541338303,57.64213885801777,-112.2809076910053
2.8212499,7.575927593536236,-4.935160558657364,-7.805175970294559,12.590187416650286,66.42806127254369,-90.06114352561436
2.8312499,7.832789779927035,-6.080273579795139,-7.89463389191971,24.31952971074134,77.27474875836721,-72.46849392540551
2.8412499,8.213654459342044,-6.836852615546852,-7.276706590845682,43.327341607084605,88.03206661155872,-59.29631813014201
2.8512499,9.421617983106895,-7.465314982551206,-6.678068122061038,71.90602324928525,94.91247275680715,-50.551786712363004
2.8612499,11.131455741672921,-8.493806065694612,-6.524464428089377,110.57351779094822,96.62547620640734,-45.881875551856055
2.8712499,11.978952289915151,-8.658468680131886,-6.942786856318257,148.17718503536477,96.33818182831781,-43.46346895726898
2.8812499,11.845862147226109,-7.573453381533044,-7.634420779643419,175.26619439057512,96.75483230779638,-42.8743847719921
2.8912499,11.433615385142335,-6.443556288997065,-7.845952326635578,189.0996467463279,99.53238923816596,-43.758112331626585
2.9012499,10.868699302697003,-5.262297936802904,-7.71867100295592,189.64954861889757,104.38785291842507,-46.43224648980007
2.9112499,10.558149064530111,-4.20079905758758,-7.757498564944192,182.39742206203223,110.93308705564588,-51.73142413242328
2.9212499,10.557453539914972,-3.897890466472304,-7.530123759342947,171.8475423950882,118.20538766109604,-57.691926532089376
2.9312499,10.679742646595296,-4.164180238993373,-6.803632199985323,161.6562994744626,123.24484346130541,-61.91741700913973
2.9412499,10.9120855031602,-4.714148319573672,-6.250086106417019,156.5166208475105,124.50563457490885,-65.1620077944871
2.9512499,10.707043938068155,-4.941877632209434,-5.92600468793132,153.57246120124626,122.34890111431794,-68.81824241019774
2.9612499,10.253139622921408,-4.690152150761365,-5.641334487330779,149.76690674382667,118.58034208617356,-73.16172937202798
2.9712499,9.859204996823358,-4.54293496854342,-5.568187297966711,145.96877199388206,114.58399289955982,-77.31122564530851
2.9812499,9.180118993726824,-4.251690730733562,-5.488215361080524,138.525445225326,111.60093517759358,-81.50813880623788
2.9912499,8.41752947182663,-3.5194105010618397,-5.197981854552325,125.85429264036395,110.37301936954144,-85.69800819195756
3.0012499,8.068352085278885,-2.9097038884150592,-4.9678023586634374,111.92984934070192,109.6313714156581,-89.50696527007632
3.0112499,8.089512890382178,-3.0135303390256416,-4.784718960916765,101.03324481899827,109.01555702088967,-91.9014560595581
3.0212499,8.106167734420174,-3.654283399202702,-4.472522783392057,93.79842206895619,107.85803830777272,-89.6156762437504
3.0312499,8.18087774795163,-4.247629936214919,-4.139940051851999,89.27182471182287,106.74424484629293,-82.61536619250977
3.0412499,8.351745670074033,-4.593696318252544,-3.8633030086995657,88.66073393012584,106.10275781311506,-74.81191636193964
3.0512499,8.351836977794251,-4.643184747940903,-3.5256243564321252,90.03815519398324,104.43773756179547,-68.4470876078816
3.0612499,8.25560620766342,-4.591977250868649,-3.2911313183747173,91.69388661048212,103.17766168920559,-64.13229501272231
3.0712499,8.133203558902043,-4.557855507080447,-3.2625416739062048,92.35800122390053,103.31117282009288,-61.349544162762584
3.0812499,8.15036049521431,-4.338808633788532,-3.2593922407614455,91.05386518321907,104.86476791361623,-60.95319478063559
3.0912499,8.033901325308575,-4.1077777589807845,-3.0879000486219623,89.24450382398932,105.80469841949682,-63.31114090320608
3.1012499,7.906463135931028,-4.012276845206104,-2.793145561276158,88.37090509468976,104.94695609603639,-65.49196956129089
3.1112499,8.41044835910942,-4.11227122536615,-2.7662329863126245,86.95190305185106,103.01837795845316,-67.2453128519194
3.1212499,8.470185936646411,-4.148429297390292,-2.94048995096931,82.41237380051689,98.93340253661223,-68.84585634755526
3.1312499,8.333105653330836,-4.369544163964465,-2.808476936181431,77.78522661158418,94.73551083995162,-68.07947930965737
3.1412499,8.54260150216442,-4.5389483633730965,-2.44935500936101,71.69586798112229,90.86163134317766,-65.87561058993384
3.1512499,8.560200245567339,-4.481176969789863,-2.1325223861170346,64.71175911507828,85.48549634740776,-63.32409502619101
3.1612499,8.446788853192206,-4.461863422022232,-1.6827883007582871,59.53601536283979,78.88437165242317,-62.04474279881396
3.1712499,8.357575522538568,-4.447616773695748,-1.1687278988907694,57.27825889572822,71.46575834907487,-61.69690295831132
3.1812499,8.30345720957145,-4.418687106165748,-0.7664210283312154,58.54358553407988,63.09642668486302,-61.481377027536155
3.1912499,8.421237436628818,-4.521017487494307,-0.40847350949999733,63.37317709890439,53.99234121932822,-60.20376937805302
3.2012499,8.803413962585415,-4.775976506760225,-0.0420346943611663,70.02823207092743,45.01023522247757,-56.17338882375002
3.2112499,9.193214093021952,-4.807261287486787,0.17530559320051545,76.04495792968558,36.70700406667891,-50.02847773598967
3.2212499,9.32554677710053,-4.419928467676155,0.22299727870418845,79.0869244101758,29.041825015939363,-43.60588335949569
3.2312499,9.22345323489702,-3.81403684265685,0.26840908435725935,77.57850438471262,21.76282605344705,-38.44544953897365
3.2412499,8.988867549209687,-3.170035047679908,0.33990101075619983,71.45080199708286,14.901224788156565,-35.29981208404203
3.2512499,8.843900499133957,-2.834736811495166,0.3952321062903712,63.97373779319357,9.416652407758258,-34.138167485983075
3.2612499,8.872545919122281,-2.7055528669017352,0.46176200559684766,55.80045095770298,5.199582602741157,-33.45050697497928
3.2712499,9.005509671595686,-2.6336551169503277,0.5968344744721851,47.28389147945244,2.3349466638853555,-32.3658305038254
3.2812499,9.05248992752152,-2.541429964628337,0.7968544114089634,39.217723958172385,0.33831784229054196,-30.7911693495995
3.2912499,8.912743413426465,-2.41149647993737,0.9204224838151309,30.975750767748305,-1.4570633363368943,-28.792673206596284
3.3012499,8.699205798674729,-2.3427225582114204,0.9313438574353429,23.153605040192893,-3.0444323654548398,-26.723110987333325
3.3112499,8.49325294274624,-2.333316977403664,0.8993172788139535,16.753344195803674,-4.491891894909861,-24.6261575152559
3.3212499,8.395299154183194,-2.358535024408975,0.8933718561476908,11.851137698066456,-5.605757131791225,-22.70413428330504
3.3312499,8.449134226887672,-2.412875690164947,0.8552383511049013,8.222400400535923,-6.546849979539984,-20.87725606430255
3.3412499,8.5203456669536,-2.4882145094436865,0.786405138298259,5.303458909978079,-7.4910371134736415,-18.745003354147812
3.3512499,8.493728720760036,-2.5294831024196185,0.7379985563511159,2.368082161544958,-8.132294341615262,-15.940870203622268
3.3612499,8.403115686510127,-2.6349086185329833,0.6634021791383501,0.18471012332721246,-8.70845808486725,-12.68003452852623
3.3712499,8.370495004607971,-2.8530036598924005,0.5944275742378407,-0.661611110418129,-9.087684239432996,-9.036592329067453
3.3812499,8.375490769699887,-3.0242738305529158,0.4865591126283103,-0.7827957919591086,-9.017568106862521,-5.140779819948357
3.3912499,8.444442514420178,-3.0519431875369425,0.3580087749185571,-0.033388688461959914,-8.927286251074294,-1.7839705879098053
3.4012499,8.652151174420677,-3.0167184740983615,0.317851698361962,1.0053755694906052,-8.415335474729954,0.6232838553047936
3.4112499,8.902508917388765,-3.0342420778384454,0.36610212944469933,1.791929595196704,-7.25648976234147,2.3444826167490844
3.4212499,9.066074752307681,-3.093052704084663,0.441705536480101,1.9868310125589612,-5.9432884767062975,3.50838561051184
3.4312499,9.123094456787879,-3.1609206605737232,0.47277674201056324,1.318074138017451,-4.834470723607081,4.420868041580796
3.4412499,9.152755730535924,-3.302971164606021,0.36281595713820364,0.7115652029502239,-4.004203254634112,5.244234323362746
3.4512499,9.1774081363588,-3.491239784215075,0.2355051314825129,0.8196108736397016,-3.8535330025086347,5.713069841919593
3.4612499,9.158398390830632,-3.6643456739702382,0.30997933046510756,1.7152265082683429,-4.491010463881069,6.1563329687793376
3.4712499,9.179229570912492,-3.713869256960349,0.35539834443572765,2.7748497815536384,-4.861275287006364,6.507522301278519
3.4812499,9.327344308367994,-3.6325725067508143,0.25353711076315694,3.3267000287287134,-5.23953427886645,6.40601594036114
3.4912499,9.536877748230319,-3.599079899714271,0.3259102683308507,3.328759679650176,-5.618402086199715,6.358206830482359
3.5012499,9.561825135142245,-3.616559059070256,0.48329788170267995,3.1289948314276823,-5.733267057147341,6.433348414924188
3.5112499,9.504488597742577,-3.6631267972259502,0.4642479897324699,3.2751457442797456,-6.037919870751726,6.247475088265273
3.5212499,9.502810920742778,-3.742528116176011,0.4089427708537338,3.908730159003944,-6.60208266870618,5.578767560217032
3.5312499,9.459440400329196,-3.773133731108319,0.35763574563479295,4.132325194408058,-7.321046869275868,4.538102201346652
3.5412499,9.452458868576686,-3.779470580021894,0.28724659951494247,3.630828751772853,-7.572850003065969,3.4776450044345144
3.5512499,9.409489963701654,-3.7839254038584604,0.24016330003765948,2.2659779203024506,-7.609951628152534,2.3294263293559796
3.5612499,9.315085003643338,-3.7968012153822155,0.20261122350120928,0.5171901936558838,-7.342191016119598,0.9963973184786776
3.5712499,9.237264963276719,-3.8349659139182135,0.12620531117745967,-1.044089489796607,-6.736313693962879,-0.32860816469301896
3.5812499,9.198106764508502,-3.8642115195144737,0.07266520326695541,-2.296868416480238,-5.907639558954509,-1.58690303578865
3.5912499,9.1955594415217,-3.9392877313000882,0.13070469112360786,-2.6024128608495043,-4.915653349240829,-2.451296481601026
3.6012499,9.135371912181922,-4.001166982484363,0.16120255567698893,-2.617796402961423,-4.233314243406323,-2.730945972227549
3.6112499,9.047628011562876,-4.0540141589925645,0.13517435824495322,-2.189749330535058,-3.7027188829385747,-2.8081804839622584
3.6212499,9.012809360921722,-4.0953345023734915,0.15764403820913359,-1.1210090781480595,-2.9914398403962648,-2.9496323099337247
3.6312499,8.9707538337895,-4.09402410790782,0.19787236836594627,0.12224324960669952,-2.571013953260225,-2.9551198047369827
3.6412499,8.907191806149264,-4.072781213778823,0.21961783065203316,0.8805965443355592,-2.2948585550869725,-2.612612784475249
3.6512499,8.867001347713174,-4.00874539603972,0.1715646152712647,1.0468066786242438,-1.8830003433369982,-2.2807803861273253
3.6612499,8.872099734730929,-3.9344103330682194,0.10445863984546742,0.6486888433502744,-1.9763218984184592,-1.9086484311572305
3.6712499,8.86606119602614,-3.875376289773217,0.07871668542464462,-0.6201909875499223,-2.222044299256827,-1.4097917434874885
3.6812499,8.808552822593116,-3.7982465649668473,0.016557282552911775,-2.5847437976536667,-2.2450524810312245,-0.9509783938727808
3.6912499,8.826433446467837,-3.7770130205912014,-0.03867490654352222,-4.80626288685131,-2.3677922409648735,-0.5759810674693895
3.7012499,8.928230953115987,-3.8331127214500045,0.018592834615363724,-6.433687771114318,-2.4213527461523863,-0.1304105674218473
3.7112499,8.9688150622692,-3.8628993203124313,0.0834339958049983,-7.199453209396727,-2.145113700061046,0.3622804362817569
3.7212499,8.938955310507733,-3.8424374327552444,0.05567037305041557,-7.623395420143707,-2.066004566512904,1.0269466270155023
3.7312499,8.911173548529211,-3.844752893494307,0.03293495911126973,-7.832442311893435,-2.190077274566497,1.693747013204669
3.7412499,8.856922524042057,-3.831616780791663,0.03130172905946698,-8.116124555088671,-2.379637831387221,2.3093861017352024
3.7512499,8.831810288186503,-3.7498795227801924,0.008123245795448354,-8.50257784153105,-2.754633800429514,2.9850399198851103
3.7612499,8.94730058709538,-3.685544494903284,0.002789812729049678,-9.372556165423413,-2.92937776544599,3.4493925033702544
3.7712499,9.101494138012137,-3.642998086092429,-0.03079437023234429,-10.39512719005535,-2.8320870570410848,3.853185987883486
3.7812499,9.16436566740999,-3.5974140347639256,-0.017985693003342317,-11.803497962565812,-2.8055446459751043,4.242245941384719
3.7912499,9.190856449031603,-3.582128835555452,0.060953508072898205,-13.654364279762087,-2.4055966276326064,4.64679899073387
3.8012499,9.13069798474312,-3.6469955002483228,0.041802596426453176,-14.875616097182716,-1.7268237386035783,4.790726705709017
3.8112499,8.995094377396155,-3.7415117831453917,-0.05023947876381668,-15.537747672945782,-1.486121490427277,4.729895214348726
3.8212499,8.94980699003337,-3.785022445343702,-0.09344320985124449,-15.679000078073976,-1.4804662895512217,4.781849207643625
3.8312499,8.927142147518296,-3.7526150541502563,-0.06196571502941921,-15.38309232865589,-1.6281615503628586,4.789232708557407
3.8412499,8.900991387577669,-3.7563714737216105,-0.010093599457000517,-14.82330230862829,-1.7987119101580908,4.977762969054325
3.8512499,8.965385771701786,-3.854273049512565,0.02754616178166476,-13.668740541136613,-1.6935818988714308,5.491033333887106
3.8612499,9.03335969727407,-3.9081275718702693,0.043867987633564635,-12.158666706069967,-1.4727765779943893,6.100776203835463
3.8712499,9.022710466218806,-3.816126321235544,-0.008026234777775483,-10.661763385394622,-1.2986867813789513,6.506057075215018
3.8812499,9.037687176906463,-3.7187488496564454,-0.056961452285377676,-9.715909118910528,-1.0216664884845816,6.733468144720745
3.8912499,9.019999824408304,-3.6517863184821673,-0.06206563239952859,-9.619016624882496,-0.9414288368460448,7.089478239786419
3.9012499,9.029142717117432,-3.574719860527685,-0.007788280572260348,-9.963565711216022,-0.7037435964514555,7.279743447579732
3.9112499,9.07417044407404,-3.548957094454853,0.02759658462404714,-10.09010710375235,-0.4814484372852895,7.214502971107229
3.9212499,9.089231146114578,-3.5953002854600826,-0.02822412607707487,-10.083136948550987,-0.6233794336413832,7.411863047578401
3.9312499,9.14612418926295,-3.60006508796628,-0.08068706190848121,-10.449314532544914,-0.5961873407592722,7.935532799061011
3.9412499,9.181827612368162,-3.594700648395017,-0.04630154835223561,-11.190158992153513,-0.5692435256821227,8.186322662252222
3.9512499,9.136604119338772,-3.635877419999312,0.011179403932746872,-12.07283636749018,-0.7418416402104792,8.282238938091732
3.9612499,9.095058028271437,-3.6661489194729104,-0.012358082134911772,-13.168348771420607,-0.6957284695426202,8.475260868976987
3.9712499,9.070426457047668,-3.743319810359645,-0.07022677698124742,-13.606650621221172,-1.1129919893261067,8.404691751038289
3.9812499,8.971080666179178,-3.8578047070802155,-0.08645114121201743,-13.405417794929892,-2.217780993374293,8.506056352843997
3.9912499,8.864394797433919,-3.8944612763264743,-0.07887176156611893,-13.202712524063354,-3.2383482288964185,8.78213710942241
4.0012499,8.774789126574428,-3.8231720265140936,-0.1531622598185366,-13.356331666532883,-4.388955948740509,9.154948302756232
4.0112499,8.695190166500112,-3.7626286139591065,-0.2742505827535626,-13.957219792451275,-5.94123137231054,9.745392599856629
4.021249900000001,8.668608516771576,-3.7349099806134145,-0.3216621152920129,-14.782745831579243,-7.481951677074938,10.802785427023633
4.031249900000001,8.603425293843088,-3.670193065547209,-0.37806037354848576,-16.13891708845212,-9.095996808126102,12.261993965543983
4.0412499,8.546344408902877,-3.605224926039997,-0.49293875014224586,-17.98797310105826,-10.743679470334062,14.002410782100391
4.0512499,8.478660825526047,-3.551959717376442,-0.5817099679741372,-19.88683387469076,-12.2841063359786,16.040578582505077
4.061249900000001,8.314242868163568,-3.535361548820566,-0.664563089833217,-21.850211610027856,-14.205510367918084,18.216705943729895
4.071249900000001,8.112832779625677,-3.5552968389491655,-0.7820322901111835,-24.14383217615419,-16.638016963676385,21.33902870799309
4.0812499,7.915050248780451,-3.5413978168938343,-0.9677593717123518,-27.242114412906037,-19.468228210661763,25.766262176614156
4.0912499,7.81129585370456,-3.52191605669564,-1.2077136604535956,-30.1837068070286,-22.5447316462218,30.340039180553898
4.1012499,7.741040724778366,-3.448397706662476,-1.3911893016229926,-33.50515040508678,-25.641555349859964,34.85379145276099
4.111249900000001,7.616300767703934,-3.263897801935875,-1.5256705579017011,-38.12477426595716,-28.59172592830393,39.82467277311508
4.1212499000000005,7.420668628783288,-3.0966957183763424,-1.6733300191302656,-43.42707332931206,-32.000656157278435,45.091449325450135
4.1312499,7.196510344777209,-2.9843051982651634,-1.830287692769341,-49.07877009115297,-35.68707705411455,50.45936049952864
4.1412499,6.990541736829028,-2.832586441152904,-1.9904753216496804,-54.867594480905915,-39.62076547285409,56.01814631021765
4.151249900000001,6.7641852320899,-2.6748616546722213,-2.1299374760367678,-60.31468811618318,-43.90507456273483,61.74479371546588
4.1612499000000005,6.591163406472008,-2.606883701916204,-2.2338774732662032,-65.02153463060334,-48.11464515026453,68.02550057195273
4.1712499,6.506029368074993,-2.5613731015771757,-2.295535050576922,-68.87193913458117,-52.0246620798182,75.30588261843944
4.1812499,6.4545867518326245,-2.52464350446745,-2.34743634845522,-71.70461398465956,-55.68980014802286,83.78788787761123
4.191249900000001,6.3834545440055965,-2.585079085121399,-2.414398315071239,-73.28311572451294,-59.64276150386964,93.72902773954763
4.2012499000000005,6.323776824508649,-2.656857736049376,-2.4887529542846925,-73.95394409525099,-63.67409596763447,105.48854930796588
4.2112499,6.419152455895913,-2.681681475214787,-2.687598956674398,-74.90598544403748,-67.96894102917952,118.65803978381325
4.2212499,6.912424006551059,-2.7544164693924076,-2.9000937935917284,-76.6972373819947,-73.0640750285344,132.10633672329558
4.231249900000001,7.872136569099769,-2.8391501179852425,-3.093323386154216,-79.78055701536736,-78.88980028903411,145.23749103032716
4.241249900000001,9.033954658622458,-2.902828511019226,-3.457134570614043,-83.71976509406,-85.84679935557685,156.71657061453854
4.2512499,10.366075701821957,-2.9823478403469204,-3.9205123031185827,-88.33503814980567,-94.85343561933577,165.45233671223488
4.2612499,12.533384949059855,-3.110000827368975,-4.18922797613489,-93.99810125560506,-105.82657953742843,171.04338779411003
4.271249900000001,15.816981652896088,-3.073986754615117,-4.242825554349781,-100.96928576456119,-117.36984278821943,173.85413600987357
4.281249900000001,20.290080775872813,-2.7737741438665013,-3.8750572807015606,-109.87256647370322,-130.87932987263508,171.96565607284896
4.2912499,26.7099400407142,-1.9898425023854385,-3.0013597596858803,-125.02013518335839,-145.83860279164367,161.48402155883443
4.3012499,33.27853226487339,-0.162422630971261,-2.426164551920498,-147.90339110558884,-157.2700599474689,144.57236497733786
4.311249900000001,38.44502881873152,2.1230156319565623,-1.533419575633757,-176.50000854464693,-164.01369916683765,124.78130019672798
4.321249900000001,40.90281038927049,3.0292015349964716,-0.211344685572712,-207.48448467932397,-165.65069984484512,105.37440337509084
4.3312499,39.82128877880895,2.570159394534947,0.29408497099800673,-239.94603912785303,-165.33189939630753,93.79441301699559
4.3412499,36.66734951012506,3.2052642724565654,-0.23982853257629333,-275.76527569477406,-161.82556564107088,94.34690403214712
4.351249900000001,32.24820813048996,3.680378482368598,-1.2322641484642631,-308.54522271452663,-157.59211348365844,104.52517182565522
4.361249900000001,27.061023184276415,3.3803607275058156,-2.2195206073260167,-336.6950285632489,-156.66695355890118,127.23502748802352
4.3712499000000005,20.489624694600625,3.0681093655751566,-3.09878953743472,-366.21182951831867,-159.7437670909957,163.855128916193
4.3812499,11.478973271158385,1.4420851305757314,-4.0625702794458665,-395.6850614118444,-169.44607818151903,212.63160395825312
4.3912499,0.23509023704309026,-0.5727466900942099,-5.268372847834172,-420.3323629379338,-185.8941326150838,272.70048166768095
4.401249900000001,-12.503638980610294,-3.086817906814238,-6.328460483804705,-430.48325912750295,-210.5745246717964,342.05122291194635
4.4112499000000005,-28.120154953302848,-6.650106311481626,-6.23891526372166,-409.70451009476966,-250.27656898634487,411.8037158402539
4.4212499,-47.645448297187826,-9.891619360313099,-7.818352714865803,-364.82078494524114,-293.35046661946126,468.60462965459465
4.4312499,-64.7061432063607,-13.944782248819894,-15.706453707687107,-297.8578876965335,-285.8293166265865,500.429296677711
4.441249900000001,-65.0935274409373,-14.068423123024878,-21.488829133773837,-221.44949852449105,-195.59684496022322,478.5174535096327
4.4512499000000005,-41.08129128818139,-5.565113012167378,-15.169276330836178,-175.34512533854013,-46.259139521934756,361.6705682790229
4.4612499,-17.109623063743253,0.039632687667723016,-0.8476486595029048,-146.54133118866994,83.36410229914009,170.56772635195014
4.4712499,-11.500468327191474,-4.461569996866939,7.974189601748853,-84.00072743197127,122.22213779458265,-24.332881531147116
4.481249900000001,-10.170020033507255,-12.89640367951796,3.6999742985475685,54.850102998685635,107.58166892195328,-188.52969742962725
4.491249900000001,-13.730955756257059,-17.228694384902276,-7.3712089613605265,233.1981865810993,89.0792958334605,-295.89588626652125
4.5012499,-24.356966003725272,-13.91325164587315,-13.141231191786547,364.75357117821954,72.2571406312238,-324.9929922131863
4.5112499,-27.781174502897773,-4.8777319826956145,-11.055811467044549,394.72870492334476,59.285703328744304,-310.54240360289606
4.521249900000001,-22.781429474697756,5.015137625021471,-9.191425491873241,348.16700913846125,45.947507470510814,-302.5671660330841
4.531249900000001,-16.948804413772812,9.066846423745227,-9.569417113662432,271.71505840015317,36.90511104591863,-303.43945927182176
4.5412499,-12.755009959785955,7.096862958830453,-9.167284882718524,190.72156501873104,37.22354185875187,-293.3513916881662
4.5512499,-9.344914363169487,4.692764937220243,-8.174154040868912,115.32448175107373,44.4871215704081,-269.99635220376746
4.561249900000001,-5.807836092943877,3.6784366046512007,-7.8616848948053715,51.38089218438343,53.27857639227962,-244.30754680796028
4.571249900000001,-2.1172254979367473,2.579686718888289,-7.818240814257746,4.359444007552437,59.22906675674389,-219.55719218118736
4.5812499,1.5421255738073318,0.8316584860403065,-7.88022355213622,-22.16306702527194,62.144104948440145,-196.17028137389508
4.5912499,4.888256796744457,-1.1245700193478168,-7.926354157578228,-29.4654188691295,63.852571610273,-172.714832666736
4.601249900000001,7.178244837922104,-2.594223471735288,-7.884126349524722,-24.102145295138133,64.76143966963663,-149.03148301870422
4.611249900000001,8.721751339087586,-3.059967025644965,-7.7918952227546585,-13.672141219503649,66.18066181568798,-126.80297581476783
4.6212499000000005,9.563372466611659,-3.7002256070480817,-7.860677143309663,4.78706616755898,66.56206153187549,-105.57375607451941
4.6312499,9.513648155334256,-4.571823953688864,-8.079674734029833,28.108864307492702,69.8655981678098,-85.56548078786403
4.6412499,9.677864983456326,-4.918266188241357,-8.186310356366583,51.37553969845645,78.24625869145369,-68.79884047189186
4.651249900000001,10.775098207040848,-5.433622604028475,-8.24654845350119,77.22278342555579,86.46073397205284,-54.30697441171011
4.6612499000000005,12.032680623838514,-6.03723285606268,-8.222497672755033,106.28449160337982,93.59378602066518,-40.41906424643969
4.6712499,12.590280901542336,-6.167309086769625,-8.374205319156848,134.07524807197657,98.94823234775842,-29.091614068500643
4.6812499,12.462874221726501,-6.062259709014157,-8.67736648340869,156.8050409596811,102.93301157248581,-21.86795090578117
4.691249900000001,11.50081760404395,-5.844081511961148,-8.853932707293724,172.2211303215448,107.05517017928092,-19.023506557232768
4.7012499000000005,10.106913317418904,-5.032277089620347,-8.735958222763768,176.50417848617155,112.40649926839004,-21.556035738277004
4.7112499,9.073617085379608,-4.273136190833079,-8.455240992424555,172.07972331105114,118.69200623911715,-29.900542168690382
4.7212499,8.71587965964232,-4.124833479940453,-8.209829423043104,163.91650237139646,123.9126465885003,-39.78723718998398
4.731249900000001,8.940597971695915,-4.252692813766272,-7.701783069992387,153.78144655163467,127.74557969823334,-47.835436404511945
4.741249900000001,9.543305819863102,-4.301721955352591,-7.0513354469975456,141.9761839368077,129.9002016542622,-53.392827840969154
4.7512499,10.029084173601827,-3.986554191262029,-6.562468369210935,128.91377358607673,130.5098530457963,-56.80373898562168
4.7612499,10.101972106898277,-3.6061590672804624,-6.109560892846965,115.49236369355332,130.8425115990935,-58.8851295980505
4.771249900000001,9.747105906926386,-3.555864731174725,-5.569646176896023,102.24656759437875,131.4087506383623,-59.666970261211326
4.781249900000001,9.118015282122458,-3.619345325598156,-5.165324000620382,89.79912553614074,131.94662061514583,-58.94717145544917
4.7912499,8.432600809654652,-3.79992561071521,-4.919466598037369,80.31900228640595,132.7463840979319,-57.65393523892138
4.8012499,7.925223930180667,-4.24919685009721,-4.6093285080703295,75.55107293495641,133.44300961577406,-55.86888157412494
4.811249900000001,7.732050064505472,-4.9335060796570405,-4.299787645731878,77.33296339976748,132.5464335879368,-53.33042823091766
4.821249900000001,7.654075089255878,-5.644800282595624,-3.9115038314360455,83.8141284728145,129.5647043101636,-51.33013647944303
4.8312499,7.694606596870885,-6.143226668884793,-3.327290837381726,92.64006738967782,125.43660897481598,-50.446957343197774
4.8412499,7.860293050115477,-6.374668736218162,-2.8641266894469397,103.50418196088123,120.6917631975161,-50.650201472328476
4.851249900000001,7.861075179647311,-6.102091108341096,-2.649467724265489,113.27307083327074,116.18963437865669,-52.541322296977214
4.861249900000001,7.743286458829099,-5.683097906538339,-2.4795812699170727,119.94704585565533,111.68879214720508,-55.613329666980505
4.8712499000000005,7.727363146111655,-5.603355205493019,-2.408243335312193,123.73358950414045,107.25652213447772,-58.514731325197225
4.8812499,7.646796320686012,-5.332284931010104,-2.330762025048358,123.14956588160642,103.80442633732686,-60.6572468809366
4.8912499,7.559485969910553,-5.080938825777259,-2.0852950459712116,120.61789825716404,101.86251712841228,-61.8943283367378
4.901249900000001,7.594233809606071,-5.053299041968643,-1.790444942066733,116.3962637270031,100.7449359220608,-62.213192033661144
4.9112499000000005,7.61863055179081,-4.742582977443387,-1.5154960765488539,109.26499774925303,100.14177311565206,-62.6879075793657
4.9212499,7.6079319083445585,-4.5001556204324284,-1.1699565064646664,102.69727281596123,98.22252483106958,-63.32553582158918
4.9312499,7.729537041541527,-4.497833582615517,-0.8518100580554844,100.35287559500395,94.07607119796941,-62.96580103435298
4.941249900000001,7.810520001647461,-4.4652746465756445,-0.7907466747645084,100.86968403089179,87.65013887929483,-62.04755115023066
4.9512499000000005,7.766804179727929,-4.265382272060608,-0.8621906110781862,101.98347187797876,79.43545716984522,-60.75585869974786
4.9612499,7.798239260695234,-3.9901411273453524,-0.884767527496073,103.04965556404343,70.17444966412435,-58.81705992659616
4.9712499,7.939349438569792,-3.7323528230489273,-0.8949796868558155,103.4933862467185,60.03960275077718,-56.26303743377783
4.981249900000001,8.19414137997106,-3.5867883792687265,-0.7952534342764099,102.58155962439321,49.884577922450006,-52.675479884604734
4.991249900000001,8.567298633180405,-3.553113945445166,-0.5216009604074672,99.80473562824722,40.84272267360851,-47.68752772879378
5.0012499,8.885402499286329,-3.296155098723899,-0.25433331404964116,93.7054529443917,33.18714984163757,-42.130525733176896
5.0112499,9.08653017280054,-2.9568209158863503,-0.09699099113996022,84.69269828911314,26.65803535537931,-36.87429850604179
5.021249900000001,9.245436326502894,-2.7827479494766543,-0.0570694941145019,74.2614743141616,20.960313560737504,-32.218129950222576
5.031249900000001,9.283806435098859,-2.595797402615346,-0.11715114753763936,62.548185227511794,15.782068487182276,-28.313618937928346
5.0412499,9.190379395092513,-2.48694436487349,-0.16453649033550952,50.29486878638516,10.776527511021314,-25.595137372619604
5.0512499,9.093265766432035,-2.5359241982159433,-0.13692401409794366,38.041756889405825,6.348567935593724,-23.853260209670207
5.061249900000001,9.024625108182457,-2.5684631550477937,-0.011127177108078019,25.328381739168737,2.7464940889647766,-22.601123966538626
5.071249900000001,9.073851639202653,-2.774026402930953,0.222778419638961,13.631207297130425,-0.037045168297216664,-21.855808898669647
5.0812499,9.18981166016086,-3.151986588625409,0.49390339870232625,3.7222245967552112,-1.816514711947418,-21.182273793490314
5.0912499,9.251584172429864,-3.453239857115141,0.7332942029698037,-4.03667726203036,-2.9368565942646123,-20.42293985640929
5.101249900000001,9.197883281818878,-3.6943385198976526,0.878713200053504,-8.204612584858795,-3.82075655953353,-19.59371493594202
5.111249900000001,9.020969948752247,-3.98544709301135,0.9677262416182197,-8.742954085645422,-4.618578063476363,-18.464362738687996
5.1212499000000005,8.835343196540377,-4.18288214563556,0.9251657810687913,-6.828926271958381,-5.2586621702670024,-16.398384741002303
5.1312499,8.615179015562529,-4.135226903497031,0.7000713023636581,-4.211417365449591,-5.85915149314477,-13.827939652858982
5.1412499,8.437587332410233,-3.975169496590027,0.4455321548802068,-2.3328665539774165,-6.485171448095576,-11.695423606043978
5.151249900000001,8.422553221876019,-3.792121974560678,0.33929431045930225,-1.5102123209315823,-6.983858016656582,-10.11508632694605
5.1612499000000005,8.611637781238505,-3.58945936038799,0.3981936850511831,-1.4620219447227325,-6.76781429833023,-9.178893490483988
5.1712499,8.89978156289263,-3.5280282322069496,0.5060226120422036,-0.7242106195399972,-5.915823911530648,-8.440681310028083
5.1812499,9.020638744915622,-3.592047708766029,0.6095085020177333,0.517417047929191,-4.739977276004036,-7.5586516723935455
5.191249900000001,8.93991871597917,-3.6369348312561307,0.6018733076223564,1.7286312782083852,-3.297475723294161,-6.0493366529616095
5.2012499000000005,8.791075025703043,-3.6145033747003463,0.4183860066016727,2.705046861649278,-2.1312552261089195,-4.04651918184995
5.2112499,8.64641550921404,-3.6576113281805096,0.27728405466420397,3.490834915177121,-1.8185279336612141,-2.253702276648518
5.2212499,8.559710454977317,-3.7390828738581967,0.25607430522564545,3.8711645238885417,-1.6665316218748043,-0.8041645590053053
5.231249900000001,8.617135873030247,-3.797327681020816,0.3043516558201704,4.109261728939259,-1.502861528989791,0.016381516986492314
5.241249900000001,8.70741776237534,-3.998123710213424,0.42013271034533756,4.822288680035654,-1.4176917315170399,0.4765585406676937
5.2512499,8.777221475046908,-4.196545723569036,0.4243012180827474,5.657678945209078,-0.7431947286122036,1.0904792042446279
5.2612499,8.795862973813895,-4.171341306044658,0.29599641195366816,5.704103333994638,-0.35296568563250813,1.5368468468365013
5.271249900000001,8.899223268344638,-4.154159617228051,0.2938396476843279,5.717442853454975,-0.2549213115922165,1.5044001232102673
5.281249900000001,9.068881131724892,-4.213988937304885,0.43245455332617366,5.77564483650061,0.2165087569154869,1.043373198356737
5.2912499,9.121906491661765,-4.288319319031366,0.4651551221521885,5.6934850074295325,0.7797961894530829,0.7251903876905685
5.3012499,9.092902884129389,-4.3640662771411,0.3815246717413832,5.342876306151417,1.048117285773187,0.579662316283842
5.311249900000001,9.089512074332394,-4.3182800989891374,0.31369387797472803,3.9590667856256436,1.217527607588122,0.26018992770706184
5.321249900000001,9.12554116167288,-4.272063057872065,0.32989567144866505,2.4987097374665526,1.1126503937908174,-0.15005605939864566
5.3312499,9.131855257262009,-4.321491314368001,0.43410095353355355,1.9194082874777723,0.5112195137747283,-0.8396953808328331
5.3412499,9.133092306690328,-4.3775817981333836,0.45490627406139184,1.9144233990842678,0.03309194221120281,-1.5353022883534497
5.351249900000001,9.125096791901935,-4.409263708212599,0.30151889995339615,2.2539485839604882,-0.48816788707452263,-1.7168826965273085
5.361249900000001,9.090316244389818,-4.439348464739454,0.21288714541304835,2.8781431205764947,-1.213966406359063,-1.7066409619532537
5.3712499000000005,9.082202723800291,-4.436911164763472,0.29979778211769836,3.4185785344405177,-1.7057721555577015,-1.7747907311638385
5.3812499,9.10532035978973,-4.401714023985147,0.4639034196637156,3.4188280943224365,-1.902611429930571,-2.0799400239591015
5.3912499,9.09990356143003,-4.394506549344444,0.5852429613632271,3.5465034088235106,-1.888636598151301,-2.4441315623272577
5.401249900000001,9.049276629296655,-4.458209172943472,0.6383652407215571,3.6647728443625827,-1.935177026879811,-2.584650698555898
5.4112499000000005,8.998425749450611,-4.518547513081278,0.6290229852222525,3.1176604756774053,-2.056744514907621,-2.772947119161063
5.4212499,8.87989501823329,-4.498954897482202,0.5574753878262162,1.9984068128417245,-2.5494861563237965,-3.1067175932215436
5.4312499,8.807420850328091,-4.466236524199,0.5394778407764238,0.6849932128396106,-3.4015516442672094,-3.6839708576467376
5.441249900000001,8.819589646738399,-4.405693306721048,0.5472156365541389,-0.8952827496842565,-4.188069093884845,-4.490181947617657
5.4512499000000005,8.785514366604891,-4.346112830242259,0.4841814799352101,-2.50146103506367,-5.234526061513019,-4.835556680954455
5.4612499,8.765866662243655,-4.287888556924211,0.397324434615256,-4.189322408663496,-6.242067622228256,-4.727883280828482
5.4712499,8.789240344218012,-4.276421452755163,0.39019900198003254,-5.4428249718411355,-7.009686226497593,-4.331084572377671
5.481249900000001,8.851643684027776,-4.343851504663263,0.4440115948803661,-5.960342665603758,-7.449878927343137,-3.6529787897506956
5.491249900000001,8.857669152044664,-4.373714590254573,0.393128583390624,-5.973416230983859,-7.671677171222326,-2.7907995415252715
5.5012499,8.80849963383216,-4.311130042181094,0.25451346943790026,-5.973925684729768,-8.118036886985786,-1.9097893710279734
5.5112499,8.7923741938204,-4.2568426577636735,0.16926097269059703,-6.358917747057823,-8.499789891659656,-1.3720458876774881
5.521249900000001,8.769838943147152,-4.219841938275282,0.12446928786748132,-6.87493280870201,-8.545266652086033,-1.0063143861925445
5.531249900000001,8.753006436016433,-4.186363706113802,0.06979318385583494,-7.795662788709685,-8.433623113267549,-0.37741907630727123
5.5412499,8.873654130459105,-4.210797990187948,0.014128845711595365,-8.817923531026235,-7.800437986469628,0.4724622568513261
5.5512499,9.008026415512228,-4.222330970407322,0.0639832220593186,-9.46087739942797,-6.634113977870043,0.9643108320470241
5.561249900000001,9.028800531468159,-4.235354029122295,0.19274050033024903,-9.345480018260282,-5.576751403723669,0.9319734019232153
5.571249900000001,9.072888229646694,-4.31852575257816,0.25212121980177493,-8.261411423052882,-4.394728954093991,0.8802530467233851
5.5812499,9.040793646287526,-4.413836143153072,0.21904411215664246,-6.600663064265618,-3.154476315192415,1.0088421074685094
5.5912499,8.956640419696338,-4.435670196980137,0.1909388724341469,-4.991768085926599,-2.144566350603991,1.0277013210247703
5.601249900000001,8.91037232258669,-4.345023285401069,0.18656706750161964,-4.036039579210423,-1.41839238547147,0.5064100565341614
5.611249900000001,8.864068209113611,-4.247498083834524,0.1857124730678028,-3.515985511064202,-1.161221816615093,-0.3215091913922648
5.6212499000000005,8.805226646021465,-4.20253817133214,0.20518556629540383,-3.2941910530604828,-1.0884926969838418,-0.8321947699884502
5.6312499,8.733915298675235,-4.199334455654097,0.22469785225657585,-3.437940946009983,-0.9487861095227762,-1.1192467697825048
5.6412499,8.613481430531245,-4.148597643163707,0.1828758488499234,-3.848526682076466,-1.1748663757314457,-1.2357959432080778
5.651249900000001,8.522581998685418,-4.120156712216085,0.17010849596050195,-4.150560001821234,-1.7884695639765475,-1.2928584621455268
5.6612499000000005,8.547362187389945,-4.1531287197361495,0.23176723571564592,-4.12043212627413,-2.1816346230694847,-1.2340855140113651
5.6712499,8.52837979106802,-4.136987873510319,0.2321587873904123,-4.319982478427707,-2.4203790944346686,-0.9083978195323847
5.6812499,8.475340746794418,-4.061216933085359,0.18640259227541497,-4.741434052097633,-2.8092764220114423,-0.35713750806981515
5.691249900000001,8.475190150261675,-3.9984319315950825,0.1658714999774995,-5.084764086194689,-3.107849845958964,0.5405743017062872
5.7012499000000005,8.486976184300696,-3.985551847873912,0.1700434828498303,-5.449276901464314,-3.3680655137650595,1.7524374907299383
5.7112499,8.476659191751722,-3.9804725179128844,0.16768917622918383,-5.687088295231052,-3.779236620911125,3.395365131948007
5.7212499,8.447201222860652,-3.9748631619145676,0.11348329771238592,-6.0329822929610035,-4.303282985503848,5.2143109456046695
5.731249900000001,8.404179146460416,-3.9719206095854926,0.04193811700769205,-6.143274730296631,-5.186802008887041,6.999231509857504
5.741249900000001,8.35607408860623,-3.9280507196653818,-0.017254609037050027,-6.32113337826817,-6.298267597671907,8.291766327760527
5.7512499,8.362739426734366,-3.8354013338541466,-0.09492777257567987,-7.075181059538964,-7.259536759368477,9.756087448009483
5.7612499,8.40854106356911,-3.7627874728610515,-0.1567583586800561,-8.658922620664065,-8.005649333810027,11.494537892823002
5.771249900000001,8.45916787237552,-3.6770415069217597,-0.1892181182783809,-11.210381046070555,-8.136741046518088,12.816125660498399
5.781249900000001,8.590753695149742,-3.63744910124163,-0.22257927608048253,-13.775929166161447,-7.648587587591429,13.874223275774856
5.7912499,8.706112519947583,-3.670515700480198,-0.21234460001636754,-16.182700983239943,-6.789978435021908,15.191070237769614
5.8012499,8.765933396212727,-3.654922587857829,-0.24113108529887034,-18.490401835876938,-5.146019210354628,16.431734284247288
5.811249900000001,8.828473019892362,-3.5611499596017153,-0.31663712142540823,-20.5522811709629,-3.0856775858569043,17.31859086297489
5.821249900000001,8.893485622697499,-3.547422500667057,-0.28995200452924313,-22.403457237696312,-0.9214607621428986,18.11222418829322
5.8312499,8.85791324309671,-3.6196521409151123,-0.23211749403525167,-23.484335375454496,1.4375115164648378,18.646613167323398
5.8412499,8.736871063998057,-3.668279065436626,-0.2632660478055846,-23.40192074806485,3.919102661576962,19.120194955931527
5.851249900000001,8.599986573658045,-3.696320479067689,-0.31434713596694036,-22.371517910307638,5.846722292714037,19.912391441969504
5.861249900000001,8.492271105513675,-3.768571636908461,-0.3136783814287234,-19.972286481659264,6.790083901617432,20.7930830928771
5.8712499000000005,8.42095197760864,-3.8318576105884286,-0.30405243085326916,-16.20767838869444,6.806370264070471,22.28510639769741
5.8812499,8.350948061388678,-3.8357435331431304,-0.3160034710171182,-11.562753254853492,5.968237795189859,24.50208386319548
5.8912499,8.321173585933492,-3.8109267605928583,-0.29683982319381397,-6.418452245686047,4.029591716475582,27.253618016028106
5.901249900000001,8.349777366419397,-3.727130123061624,-0.19618971733491364,-2.003891282827061,0.8865445177935581,30.80932662952784
5.9112499000000005,8.281790674814408,-3.440133720675773,-0.06351598201217391,-0.6155184143501417,-3.365475011543395,35.022779287446085
5.9212499,8.190339199704427,-2.9402992769750322,-0.04056060685125536,-3.8082220632850152,-8.718539346139561,39.884900610636805
5.9312499,8.14794822807358,-2.4489868204409206,-0.2943865680690581,-12.725725555031639,-15.89461809527154,45.292769146402556
5.941249900000001,8.080586859253316,-2.112263703846633,-0.7145087849900758,-26.017563463588697,-24.81503191042012,50.29843224106021
5.9512499000000005,8.132361443267575,-1.92635640016716,-1.0947419170790667,-40.49574583597276,-34.45629399321462,54.28109522877602
5.9612499,8.506820113945695,-1.978226366485621,-1.3771053470102448,-57.18575122702853,-45.225099384818606,58.32926287384459
5.9712499,8.98491196025355,-2.132917183597187,-1.5031301082163486,-76.55402006834194,-56.88446866493147,63.084197281737765
5.981249900000001,9.443708282681046,-2.1296200390785023,-1.6346944719692271,-93.29083510536852,-66.69062835876058,66.74903956406871
5.991249900000001,10.132019132065793,-2.163230356836205,-1.9043552580948704,-108.18979212726173,-75.95033415635176,69.4054578310503
6.0012499,11.135154538337092,-2.223268628273502,-2.2036989891562992,-122.54562729544385,-85.03303322738574,71.9031816653742
6.0112499,12.455402726748547,-1.9094072209709818,-2.475275300189357,-137.25714800089565,-93.39848569236685,74.56165848085514
6.021249900000001,13.941023002438904,-1.3397324447370977,-2.86306497433037,-151.77167415711457,-103.33584435278331,76.1607778562294
6.031249900000001,15.53559540172192,-0.7284505840359328,-3.213308106702842,-165.37066377595266,-115.43554817612653,75.15004947395742
6.0412499,17.528501674458955,0.13833072724133866,-3.1217957815277937,-178.0298571490875,-126.5573096334198,72.43119641510748
6.0512499,19.91735603264442,0.8014019021650579,-2.6848229605728524,-186.66547579767564,-135.81259020743664,70.049022915772
6.061249900000001,22.47553362721836,1.2434014083707765,-2.114791614951999,-189.27289405574714,-144.2474916849469,69.29487513398199
6.071249900000001,25.369772139857204,2.001481050673376,-1.167586742333208,-187.83800814832378,-153.53816046374914,71.86287358753209
6.0812499,28.814492484204248,2.5029145138583075,0.06126116549137928,-182.89554673794115,-164.7973618319414,79.40673160379895
6.0912499,32.29044874958142,2.2697033435405993,1.5179349863300682,-173.29075933956787,-175.28301230487554,93.65162749548861
6.101249900000001,34.10907553168124,2.099520881727017,3.6137225833478337,-163.38116535100266,-183.30396661061366,116.97446970408065
6.111249900000001,32.90405748167177,3.5431675760715517,5.4953255918161545,-165.97196474501607,-189.8653252055273,148.7839521349666
6.1212499000000005,29.44330819703706,5.878173968133739,5.74815201353439,-187.0888222783793,-197.27415771502194,184.95400144242592
6.1312499,24.871994539194816,7.492124189853458,4.132650702467516,-225.79835670387735,-204.7108663840449,223.89291557923798
6.141249900000001,17.433714649677473,7.988956135109757,1.1463805470783772,-283.1001156601475,-216.66449552735787,264.6893967916142
6.151249900000001,6.01072284258174,6.863174806133899,-2.516899598611672,-352.56099882403527,-236.01992180938916,310.969808752935
6.1612499000000005,-7.0285338203176675,4.524716336098214,-5.484479491402461,-417.3692331333109,-262.16670866424994,360.9316895458716
6.1712499,-20.90711553253211,0.6092364214943191,-6.220172408203886,-455.2631484589316,-297.6082929473874,411.31341845752866
6.1812499,-39.7119151491132,-4.989589084484819,-6.347015080754004,-461.3141940879773,-340.4032867637332,466.0170519128287
6.191249900000001,-59.538513673507865,-10.03284580311392,-12.55575393802654,-439.24888997917793,-352.2750368688958,499.64678404994623
6.2012499000000005,-66.30853655572895,-13.393481012422178,-22.23295706039433,-382.9554078487128,-288.16558192777114,477.79769860675225
6.2112499,-48.14352856711769,-10.900662603224811,-21.064874966929636,-327.10852987608945,-147.63270340649444,379.9120322501797
6.2212499,-21.514667727382907,-7.656413097919938,-7.7623909305195005,-277.5454897220834,5.8499609772306105,216.94011402840482
6.231249900000001,-10.76333250745178,-10.047893973933975,2.268332067844578,-190.39849399439896,88.38607073551802,31.790277768138484
6.241249900000001,-8.907003287703427,-16.8283784886727,0.3368365985681963,-21.55925138200558,103.23930968982376,-135.5816236149953
6.2512499,-11.168034056988686,-22.350894435890755,-7.371534994824382,198.6440694881994,93.77674170162823,-251.46159561303105
6.2612499,-19.017402275511195,-19.634178784170068,-12.10298389433831,366.097681661389,82.64709322274327,-300.07908079543205
6.271249900000001,-24.470784786278575,-9.22081468834114,-12.4276554901677,429.030991424127,76.58896514536883,-305.2205025335732
6.281249900000001,-23.381086512430173,2.58634092461488,-11.596310576821374,397.9343719209493,70.95514344209043,-303.3232980683967
6.2912499,-18.918354825474406,9.012747815476818,-11.71388178709707,314.0109226759118,65.55872422823639,-305.01600205064636
6.3012499,-14.363012889379327,9.02424469578992,-11.941043821560642,218.21942913122953,63.02874675045849,-299.69056220269704
6.311249900000001,-10.291133335000843,6.259456599616775,-10.85688040085001,131.95368621865416,67.2358683691098,-280.64039971673685
6.321249900000001,-7.121514989538486,3.6331499825952833,-9.493413507775971,62.98125433399819,75.82000504046638,-250.6795949923871
6.3312499,-3.924110312968598,1.9336056741861152,-8.89726878084163,15.506681769815794,81.5268948741272,-219.92981806972983
6.3412499,-0.2256359857261749,0.03603812478077918,-8.422744680925362,-6.062911608943547,82.3968057016524,-193.35860137340683
6.351249900000001,3.2157865593288735,-1.868416685628253,-7.646397684391189,-6.993560320969258,81.75625693780837,-168.7022636629974
6.361249900000001,6.015199882818523,-3.5758067774317253,-7.100236787656139,9.657144717387736,79.3011280935218,-144.6050146332828
6.3712499000000005,8.152483071550014,-4.923816537061559,-6.716295349681222,34.99848418386524,74.20800003978833,-120.83128155572324
6.3812499,10.23084223600062,-5.349298637350866,-6.340377325385837,63.030376333792894,74.9016731547233,-95.33468319658343
6.391249900000001,11.354463098766661,-5.675675048716049,-6.232944709870679,94.46932182949283,79.29470239031342,-70.883879580329
6.401249900000001,11.022199147527317,-5.9033163404532205,-5.962984913118397,120.64627177791768,80.73143428220499,-52.90473560300957
6.4112499000000005,10.544605069474423,-5.794561173766952,-5.950829789594798,140.75732281971221,78.13969245453819,-42.32257496077952
6.4212499,10.69512174424481,-6.048860550729843,-6.798111911518816,159.5988585592858,73.13630370125531,-39.18634876349892
6.4312499,10.657012310247627,-6.363538945591757,-7.772702871330643,175.51129490838952,67.84452815888555,-40.10494181633621
6.441249900000001,10.115946637799665,-5.749573262359864,-8.32215058264521,181.31338079920053,64.97185142984723,-42.179344314184746
6.4512499000000005,9.87239579879879,-4.8878044897002235,-8.495816585418918,177.84818773630337,67.35184911658722,-44.63414976722558
6.4612499,9.977179413322268,-4.4550061045537905,-8.247897992941326,167.78385836427702,75.08996687004633,-46.41358047841322
6.4712499,10.190761176707513,-3.751862874088491,-7.710019916396777,150.35899631528346,85.94396479988362,-48.12491841892919
6.481249900000001,10.81728602353096,-3.008697585986933,-7.24189848010874,129.30179159106027,97.3443758111382,-51.82877812755997
6.491249900000001,11.275921735205719,-2.896526689305704,-6.688348102573969,109.61484611461073,105.90176387556332,-56.879629205871474
6.5012499,11.193549202449054,-3.29101704881367,-5.965734220977584,92.37176555443855,111.65386486607319,-60.64665853053867
6.5112499,10.592671620820802,-3.8807547835136034,-5.552640302460558,77.86547295942295,115.71967774487423,-61.979847299172086
6.521249900000001,9.614138339453435,-4.281999403292327,-5.604568326374124,67.38499421032142,116.17970328659295,-61.556777317703244
6.531249900000001,8.976148422659,-4.562949066289437,-5.7752966640502885,62.31736686765821,113.04179711885575,-60.51487105255752
6.5412499,8.507016888981555,-4.900692144952521,-5.776577650616786,61.72054736606563,108.67878124253059,-59.540984285595975
6.5512499,7.839011775948753,-5.208648608037141,-5.511880841257963,64.29525044095898,105.2139410950818,-58.44527631673948
6.561249900000001,7.233419274870591,-5.633154253194101,-4.910972102401444,71.69313705247613,103.89714586021529,-57.084359779593555
6.571249900000001,6.863333192421552,-5.8151232541139395,-4.2290136900143125,81.2382426668676,104.58279242110002,-55.87627747684713
6.5812499,6.863445384439119,-5.6073982584695266,-3.799747222069638,89.79461542555674,106.04437330161389,-55.407044221341046
6.5912499,7.229358452121498,-5.458721253834487,-3.671909550918155,99.30838620819983,106.31096241705451,-55.968437671975934
6.601249900000001,7.654457554656475,-5.390719193670641,-3.718683136227519,107.99012753658275,104.38406430516149,-56.38182919419383
6.611249900000001,7.947268882750308,-5.222307740610892,-3.7446242553644122,111.47044221357257,101.1566322581655,-55.39586855878167
6.6212499000000005,8.03287796081159,-4.852214014751755,-3.73129992139057,110.19018769949099,97.70666916937135,-54.04488901249698
6.6312499,8.077450074718667,-4.588905647551791,-3.721934028757554,106.46536818989378,95.66970808373763,-53.000639211740726
6.641249900000001,8.141365893685633,-4.2486263394466395,-3.5467616480138573,97.88127442293116,95.55012062272196,-52.89482230340063
6.651249900000001,7.923218510608063,-3.5513429271257766,-3.1923042834848507,83.38888608448487,97.18945718771079,-54.42129439845304
6.6612499000000005,7.742181381076344,-3.220574575526897,-2.885468140100135,68.50956998677124,100.47095509875957,-57.48360961400123
6.6712499,7.884333270925211,-3.392906231012404,-2.6599992315045053,54.038772917698466,104.31964617519439,-60.01978004803055
6.6812499,7.994112969893065,-3.5196352543706513,-2.4090520156975295,40.41912954191891,107.35234363526111,-60.58897872456738
6.691249900000001,7.930761290038575,-3.8249556976630625,-2.14727071290888,31.973096300757685,108.87091795808207,-59.719628580511475
6.7012499000000005,7.803757436659919,-4.410844325389026,-1.8729609031981178,28.730410258347153,108.26346854842895,-56.789877544837935
6.7112499,7.744132001331786,-4.887875771393077,-1.6783497084435777,29.614537875099032,105.22061999491494,-51.991063877892735
6.7212499,7.773835580211144,-5.139105084749112,-1.5716005350897175,34.590359874911826,99.56713292005055,-46.89110369770494
6.731249900000001,7.804653144763797,-5.229157515725658,-1.4572692486957963,42.63461785343251,90.6997068072407,-42.826196454924826
6.741249900000001,7.911690962530983,-5.280001298060975,-1.259674452299458,52.69944370749563,79.3444486560145,-39.967756724100504
6.7512499,8.12050537945333,-5.318746515247245,-0.9745091078282512,63.16832095863537,66.46699105320981,-37.93162853549438
6.7612499,8.27988347356632,-5.332734050627824,-0.7505686671247913,72.58257199791943,52.8796012683158,-36.318193972049706
6.771249900000001,8.303953359535234,-5.159494478205922,-0.6620721658186758,79.73652586113069,39.20420596712224,-34.94017256602883
6.781249900000001,8.365129498402466,-4.922555247414075,-0.6322121664967243,84.4570142420213,26.30397918153055,-33.860836575350724
6.7912499,8.546457822532318,-4.735997103742548,-0.5718023207574314,85.97115255354444,14.966310261080762,-32.36616804853837
6.8012499,8.808642218778724,-4.339351018728372,-0.4229315632738641,82.21579008541761,5.535188019150631,-30.105445246856256
6.811249900000001,9.096272691672066,-3.8725559523251896,-0.17781787340623817,73.48194622503028,-0.7014446242368846,-27.571647012802547
6.821249900000001,9.341441969118708,-3.4660003582351018,0.18979692630285286,61.794568386226025,-2.80120009545311,-25.788750112987106
6.8312499,9.420896292125795,-3.1918389052124,0.6248490109261431,48.40208205909697,-3.001299295294958,-25.10165887694013
6.8412499,9.469009598734013,-3.1384771814435823,0.8701153955850335,34.9363009729705,-1.4762490690057772,-25.197737723572146
6.851249900000001,9.401746481072815,-3.137455681777507,0.8585080544740423,22.692948359547938,0.48398528905203786,-25.659343487217193
6.861249900000001,9.123240212561415,-3.1842539276262083,0.762353567132737,12.66566054842333,1.6040298186363393,-26.530166203578403
6.8712499000000005,8.884817915182365,-3.307141472900735,0.6651785183326578,5.097178287952161,2.5405583665226548,-28.00669566532902
6.8812499,8.782766021204228,-3.4876798313427035,0.6225810273904601,0.9544216226707043,3.1460337849508426,-29.888326832786667
6.891249900000001,8.70097148501453,-3.7404238791866202,0.6820449679687852,0.8979722846850535,3.100320961489979,-31.417456041778344
6.901249900000001,8.721604013831827,-3.945437901823258,0.7180892816364197,3.176557769837879,3.219725599637238,-31.447467514241104
6.9112499000000005,8.887604432439389,-4.015112801906107,0.7009823615643729,6.967244912974129,3.658005551777159,-30.093673520039047
6.9212499,8.94657474537315,-3.9751387852546616,0.7384944050437942,11.850449696762547,3.63093132491098,-28.21202363539506
6.9312499,8.876750688878827,-3.9144412384264107,0.7056031074636787,16.0698858966678,3.358505669101445,-25.839164749518126
6.941249900000001,8.812344236046199,-3.773350531874247,0.485301134607074,19.47893041479168,2.967360137917995,-23.315709372842765
6.9512499000000005,8.801427051650217,-3.5618570308030146,0.2861668179994119,21.62319434407477,2.13301937828751,-21.095867291922893
6.9612499,8.842337527120039,-3.4020507853571984,0.1647319753056719,22.08134055064967,1.092735844255436,-18.82173294656421
6.9712499,8.884428775473625,-3.253300208422075,0.059777941612512035,20.643231389414026,0.3299446334913008,-16.189783142356205
6.981249900000001,8.92505249108562,-3.050311691265544,-0.0028716266859013153,17.077584349942317,-0.23822015567066926,-13.373835674200812
6.991249900000001,9.083679853585823,-2.901816958407649,0.014717242819827196,12.288150390057748,-0.1993656592247046,-10.84261382360548
7.0012499,9.226372401450933,-2.8357704782028104,0.11856420479713978,6.950693244999626,0.11453628465814093,-8.931494043059663
7.0112499,9.206287532479971,-2.9953454143617253,0.2955780183447312,1.3947898151467064,0.36389466978856544,-7.156293053729962
7.021249900000001,9.147283234699264,-3.3752567560148115,0.3810189703938819,-2.5805427444261215,0.7761736335610835,-5.359025187309488
7.031249900000001,9.09197651978717,-3.7127867652169892,0.255114175900017,-4.146295814794097,1.225985236225503,-3.64529179380816
7.0412499,9.032427275390258,-3.970168966154617,0.14566503085907154,-4.098393413422937,1.3784654038815196,-1.88269095640619
7.0512499,9.001706759851496,-4.131728854252091,0.18376039348393836,-2.3603411056003543,0.923346824323706,-0.6952279512083795
7.061249900000001,9.01518940042748,-4.242584358281083,0.2571320843378656,0.8033559444808569,0.3444005501146092,-0.22371529719793004
7.071249900000001,8.991864192678975,-4.300189332810771,0.30554762049155204,4.185739182860338,-0.24033106472241603,0.18400193999362
7.0812499,8.952615080143248,-4.283872092468859,0.2553639425067062,6.980639445803467,-0.8423873643540781,0.7500806944595496
7.0912499,8.910057127070203,-4.151111219439479,0.16301252641072397,8.259206754038077,-1.46716525284103,1.1508872829610752
7.101249900000001,8.810896034913492,-3.9679786796210967,0.09246809065275283,7.992616944119195,-2.2714117508903766,1.1390608226954957
7.111249900000001,8.711439772362931,-3.929369170055477,0.02435741361903001,6.643406286910462,-3.3244947320681337,1.0422282190632162
7.1212499000000005,8.732734721760192,-4.008541101691862,-0.013601664939897262,4.5907124094259055,-3.874532937718758,1.245542371263741
7.1312499,8.865475041091045,-4.0619309438202595,0.029398245704345852,2.3955017788808757,-3.654273984985874,1.4273692392278872
7.141249900000001,8.939586240658342,-4.052204197215476,0.06648098157912431,0.47616181663816504,-2.95796441801529,1.5946496816068974
7.151249900000001,8.883924378235475,-4.0004166608287415,0.0032279365750838905,-0.9309758984410582,-2.363542579486503,1.7248281865764505
7.1612499000000005,8.848433816469154,-3.930267777141494,-0.07054399268382366,-1.9228190862269696,-1.7840266508899447,2.08108275078158
7.1712499,8.933007903612745,-4.01064400450426,-0.02719334381822521,-2.4144435073333654,-1.046837438809985,2.807948944944095
7.1812499,8.943815313315522,-4.1236382901547195,0.09816883696573245,-3.019790776553064,-0.05219820835351542,3.5279742139076817
7.191249900000001,8.798865828966193,-4.188575445768327,0.15453610768419124,-2.753318660896911,0.9727920005133404,3.507853842268967
7.2012499000000005,8.691201812335775,-4.308990853805163,0.1068133339607095,-0.8453482075688344,1.59190679548643,3.3506209114674306
7.2112499,8.780026948612893,-4.421803334658406,0.05676969988297654,1.6488755637726031,2.0200229709440505,3.650038745930859
7.2212499,8.970930498708986,-4.416332804669478,0.20179131005351936,3.761272052399032,2.746774314433077,4.205129394221243
7.231249900000001,9.045353246593868,-4.410881274105766,0.4876269775593484,4.975286933327096,3.914754158274314,4.348913369093418
7.241249900000001,9.03049510072224,-4.468014299714276,0.6170334961333328,5.9922728348584915,5.037560499798093,4.069568972412659
7.2512499,8.978886413456092,-4.433597141602323,0.5156978930855206,6.661691339856217,5.707093217479946,3.8180258142229944
7.2612499,8.916827594952052,-4.303638218827793,0.3558113327143336,6.547459280148511,5.645920933009162,3.688920707191077
7.271249900000001,8.88548565351201,-4.147567770671584,0.3608874567549112,5.927369255996696,4.957567725152527,3.4406328050917723
7.281249900000001,8.896785265476968,-4.074528885113872,0.4978682947355082,4.605973395252403,4.234232019640062,3.116492705090751
7.2912499,8.975385192373992,-4.124752949811148,0.5244633602077761,2.895648481947158,3.7458308697286067,2.913017161991175
7.3012499,9.008789575519812,-4.117864326075441,0.431149526453888,1.004320079987489,3.1524739331614793,2.9890945690820985
7.311249900000001,8.952736847856327,-4.0038418115555245,0.3575928071799103,-1.1567687021084372,2.146100534088544,3.226292433654039
7.321249900000001,8.916000672609838,-3.9391748278407777,0.31249247518209167,-3.5183824272050117,0.9917253021012763,3.3488005060455657
7.3312499,8.890875898773475,-3.941576471720228,0.280183012283894,-6.015501347359734,-0.03258459791140847,3.753305919229452
7.3412499,8.803545429520923,-4.01148783452137,0.24684599837885302,-7.856033569724397,-1.064151171646153,4.355786476653578
7.351249900000001,8.773531322216336,-4.1900883643868925,0.21385111267965443,-8.378640295999155,-1.8153672508778032,4.906946727557259
7.361249900000001,8.815108126352612,-4.369243715230157,0.23010397094065313,-8.115504804002938,-1.8824726573616952,5.361635579065322
7.3712499,8.814707750779476,-4.404540042579313,0.2441260605856272,-7.370885201631531,-1.5861144862316137,5.700977445824826
7.3812499,8.88219043689558,-4.412841600265534,0.24593798361750657,-6.271731189786055,-1.2108081843099494,5.956088160699911
7.391249900000001,9.011904987631937,-4.5182197439962195,0.3020999033327401,-4.756235299267243,-0.6008711863131551,6.276265317394943
7.401249900000001,9.044367166818855,-4.542683261285308,0.3448798626500761,-3.0909193835902973,0.3542557544392702,6.617303362215177
7.4112499,9.029172800689299,-4.486863407345398,0.3719583966838458,-1.5284852963686673,0.8935960899370217,6.687275059238775
7.4212499,8.970780916594109,-4.443902897099319,0.3671645018598296,-0.11351925666634045,1.1246546148292744,6.2161224461356985
7.4312499,8.814733166015852,-4.370627071266959,0.23032404001709897,0.22066995867489164,1.1273302868396202,5.427957321363794
7.441249900000001,8.683474376840236,-4.328969019241355,0.041522504976610065,-1.2476308423761333,0.910364784237967,4.988324695753335
7.4512499,8.621474214766543,-4.261329891119604,0.004485892766911755,-3.8951001576897366,0.7184519577388037,4.662705760466183
7.4612499,8.58206926835735,-4.176134191195719,0.10969900027799054,-7.134875434732771,0.3060711091668109,3.9706598890247924
7.4712499,8.663190828219113,-4.228955052206865,0.2204718174719875,-10.008677646928371,0.43013322549638594,3.0150517797728367
7.481249900000001,8.782374672266167,-4.349884237492875,0.24410054901435718,-11.726105120134786,1.060466916232043,2.3630079333992344
7.491249900000001,8.806884901462613,-4.470166453447541,0.2089105651223857,-12.303229021738067,1.532075998798989,2.1858411390447268
7.5012499,8.73535088060416,-4.513465414713921,0.1886473120892159,-12.243976939799639,1.7143119599013907,2.2862354524776345
7.5112499,8.725302615855085,-4.531489856339197,0.2346459338981774,-11.368226883173232,2.2119050330827226,2.609538909533062
7.521249900000001,8.73394691765172,-4.562191908617903,0.2554800353273605,-10.02803539040443,2.666166522589519,2.685900341218253
7.531249900000001,8.730985628469032,-4.559876690115924,0.2235631982750215,-8.25084555321888,2.99047001308884,2.7893805957002225
7.5412499,8.758072916501563,-4.539188573825387,0.18799397041485452,-6.113103800725863,3.14924301822675,3.2518688854072946
7.5512499,8.723457091320276,-4.462331577267141,0.1853126936322481,-4.903707413555053,3.105843431214375,3.9222636079384405
7.561249900000001,8.684803244629087,-4.390082809481216,0.2092399978443997,-4.409891952755854,3.0601704905760867,4.628839138349542
7.571249900000001,8.678938821213636,-4.348984094454049,0.2406173958250024,-4.605648025252662,2.840184355640369,5.058179747207352
7.5812499,8.660705727138875,-4.232813014170035,0.2250550601793757,-5.667836312365961,2.2812275284419714,5.0218191638587415
7.5912499,8.67739691368749,-4.119185838545316,0.16519839350930218,-7.087581618609034,1.4346892617137843,5.0122327891725424
7.601249900000001,8.720645597160816,-4.066604786304935,0.16988777570143246,-9.022587759958324,0.473513242491498,5.064553839428596
7.611249900000001,8.73034454237497,-4.072806182296039,0.2198890979820304,-10.689437538378622,-0.2878183100613382,5.15498675112938
7.6212499,8.72011279962978,-4.099779313667717,0.23468528400455463,-11.787867287698228,-1.0352152066594742,5.313662691614378
7.6312499,8.71860711902492,-4.171787812458651,0.24660415375270262,-12.229237531339708,-1.9330871621823293,5.620840261955483
7.641249900000001,8.696027117941199,-4.202194604986241,0.22192915026497725,-11.705680710225765,-2.7811886228187195,6.400708510215524
7.651249900000001,8.6519818770284,-4.165384500407819,0.14112279946271586,-10.560014973246068,-3.5087072775265518,7.419350634446345
7.6612499,8.633467527147195,-4.1130744990656,0.08061754718961138,-9.854111816346078,-4.259320851558107,8.732818059543298
7.6712499,8.580605724006501,-3.9764664717354914,0.016952430660436495,-10.10349984039244,-5.116510801203231,10.179218213570667
7.6812499,8.519462256272895,-3.7774598225401235,-0.046862902917317664,-11.097797219971737,-5.894551756912298,11.925699630387106
7.691249900000001,8.4358817463467,-3.520719276285402,-0.12108541059229144,-13.385531628723744,-6.8845662064396835,14.082966166212671
7.7012499,8.285426728071725,-3.2331157800825205,-0.22853481320780603,-16.936629735921905,-8.058350125393584,16.453502293008867
7.7112499,8.103705316287272,-2.9250477770887797,-0.33701368178927554,-21.765878664314343,-9.26602581863935,19.43757657363425
7.7212499,7.954957742012583,-2.6392403909026476,-0.4088563082927968,-27.363308269605696,-10.45148048205221,23.34031194115734
7.731249900000001,7.829336122877316,-2.4304311263281666,-0.4651204933548995,-33.36663526656296,-11.539104455437418,28.320664784865208
7.741249900000001,7.666452665252022,-2.3679124610889257,-0.5156746182727344,-39.33321234552637,-12.787293627132776,34.69990268155282
7.7512499,7.469250034346894,-2.458792873057609,-0.5388415007527207,-45.53340792536733,-14.430831670767825,42.24605957182393
7.7612499,7.3794783677960885,-2.694777112072767,-0.5624435450009346,-51.38845125109681,-16.05517912339897,50.35090114395227
7.771249900000001,7.470456647642096,-3.141142140519961,-0.5859072671800055,-55.26043631402693,-18.165889792954623,58.01355814927831
7.781249900000001,7.634300689971992,-3.6163242565503086,-0.5569658287881071,-56.140381343535964,-21.625641241389737,64.47744517588147
7.7912499,7.812151083349524,-4.055442602744019,-0.4829777314011237,-53.812572597515285,-25.670411505349886,69.40541241093158
7.8012499,7.908026035557307,-4.586975916139753,-0.4508325691647629,-48.845008597060385,-30.449310124115726,72.90627016552546
7.811249900000001,7.924256226158437,-5.057862822073553,-0.5228018278783557,-42.37511241321901,-36.0403390760344,75.3709722578406
7.821249900000001,8.025078345886357,-5.303836281591342,-0.7564256631682176,-36.03345605881961,-42.348129491804926,77.02479600210383
7.8312499,8.29691009701665,-5.384336638179825,-1.1396098531304728,-30.559724459454124,-49.044650329483574,77.6780547765566
7.8412499,8.766238854613876,-5.278141081743941,-1.4757617916076962,-27.09262906460035,-56.756022822133225,77.0148772629911
7.851249900000001,9.592291911868207,-5.000699634529979,-1.6488751387696867,-27.707891982596998,-65.34075129947671,74.77320213045297
7.861249900000001,10.764282721107046,-4.787741767200432,-1.7016605684491892,-32.192590958197236,-72.01721043459396,71.99942178717235
7.8712499,12.108418287933015,-4.5906595870621265,-1.8184638052187665,-40.32989511274324,-77.55564378589487,69.52050152433794
7.8812499,13.247939403837695,-4.245345386129056,-2.024500587909385,-52.743575378159605,-82.88872926880313,66.29859614074185
7.891249900000001,14.193576394926003,-3.819107514976648,-2.1753645919642177,-68.55214460274624,-87.62319511134608,61.326616995661674
7.901249900000001,15.515547553602707,-3.4305175702577015,-2.3112609864533664,-86.35812105960333,-92.23583849806597,55.050586115317294
7.9112499,17.27458274724507,-2.7075803915486993,-2.5529539646916155,-107.19173191613417,-97.57874464209777,47.89762079664548
7.9212499,19.150720161992925,-1.2091279876896581,-2.7178840445001082,-131.35585562239987,-103.66393389997553,39.046157486202475
7.931249900000001,21.3076849530932,0.9343249190962171,-2.547074970696404,-156.7567313275975,-109.66797592414551,28.658535020461407
7.941249900000001,24.05428116623274,3.010713010383845,-1.805547503911414,-180.02893961045856,-115.2193654356089,19.267779853804047
7.9512499,27.418209185024946,4.421631296200676,-0.3563909204468681,-196.29584100933647,-120.53022365356512,15.418634484787939
7.9612499,30.845999294247232,5.6122055013082885,1.177944514281994,-208.22904672570093,-127.11790368916863,20.587320747445087
7.9712499,32.61965156141792,6.738750092385967,2.556959885727035,-218.91808098394267,-136.18876133185628,35.644126769960764
7.981249900000001,31.63149105298759,7.430783702730528,3.8474009329435597,-225.8008347593887,-148.20593006939023,60.484134232945664
7.991249900000001,29.602311516460286,7.5435693880405035,4.396558720222231,-232.8849542527255,-162.91245210932837,95.81762258618437
8.0012499,26.936113948269426,6.363518677291861,4.3125817302897715,-244.8184484728581,-180.86399554290463,143.00681511432967
8.0112499,22.031511409250577,3.791214942602525,2.8316939176232045,-263.7301006669531,-199.81222403766498,202.6254535302785
8.021249899999999,14.699475177244075,1.0487477212509775,-0.5698103135991406,-292.0232015202923,-220.49539261045047,271.80786684477437
8.031249899999999,5.224518309527764,-0.7847808155791843,-2.796652894530822,-329.45528188923134,-249.03820828969492,339.397840587665
8.0412499,-5.495113930727261,-1.3749729129353867,-2.6600127693716256,-369.6987663774106,-284.2223640408618,391.8458404372594
8.0512499,-18.06872424983846,0.2075670840578078,-1.9233701675389,-411.76898504253637,-324.06758639774534,422.28072619834103
8.0612499,-37.034765839321864,0.11543097109854158,-2.1530507973063657,-447.14684454909457,-363.52206171470993,437.2561542703988
8.0712499,-57.49916837607382,-5.723846005849511,-8.935339287587734,-450.0603573030418,-368.44930286070394,445.3323816865941
8.0812499,-64.48284578970296,-11.572880140281775,-20.58615760859429,-419.12661632770255,-298.25527386350313,423.6656075813415
8.0912499,-46.73555237106776,-9.759369408942234,-21.617795878519413,-377.39715452542305,-161.84619190020317,332.735989436439
8.1012499,-19.873015242221562,-5.889024455000548,-9.580104835563118,-332.6669373621201,-13.96983713078878,179.6383734344587
8.111249899999999,-9.735761838533653,-12.204858541685235,0.9538803685902529,-221.02336853711543,77.51221093776853,19.47178536683966
8.1212499,-10.358276711733337,-22.204079744482666,-0.20731465744521627,-9.836656542985384,103.79121991476389,-113.7316921178939
8.1312499,-13.127966009821755,-24.710466658207,-7.622426174445572,238.15328302937226,94.09618115100828,-211.3876999119605
8.1412499,-18.454655188641112,-19.033870854447485,-11.481384052898276,425.41587956227613,75.72654360729562,-261.9271261095681
8.1512499,-22.49364840533366,-7.2608085297958285,-11.476229281803779,491.9147783819373,61.372958232275735,-274.63648008817074
8.1612499,-22.006469024080403,4.552261581079501,-11.488192029853739,456.4336963386084,51.937804619219506,-279.1695697323165
8.1712499,-18.496894313844653,10.393427669031272,-12.198584250984979,367.8986445065029,44.29308732746819,-286.13742011926206
8.1812499,-15.129456763946388,10.488360976747812,-11.968865016046406,262.2155505132305,38.98198020001671,-286.1669163969593
8.191249899999999,-12.261172452895241,7.763456731583815,-10.247621275459336,162.36311901082152,42.14832204144678,-271.8603469586921
8.201249899999999,-8.846183477874385,5.101492732604119,-8.766603037787805,76.53940242055154,51.62816926611536,-245.937522874465
8.2112499,-4.702828087662799,3.5252298488382805,-8.491462011216903,9.90043460024603,58.97507125746538,-218.60948576119796
8.2212499,-0.8445807395084372,1.6182107207772627,-8.601244917826934,-32.679102162213624,62.16755768444192,-193.8934557358747
8.2312499,2.0255084035998405,-0.9969047613467276,-8.28713526406564,-49.66047132275303,59.93453066942684,-169.93474607705662
8.2412499,4.414720696426816,-3.505601900163493,-7.934926061046967,-42.70391914350685,51.10614946376454,-145.84447837168355
8.2512499,7.010796301087746,-5.025774586217871,-7.8408977731979395,-23.723712860670553,43.59485849302977,-123.85111342194992
8.2612499,9.219645968148669,-5.673160839615019,-7.821379976486142,2.4880674470605926,39.61683185261756,-102.78870340815804
8.271249899999999,10.50463916464011,-6.016709611169569,-7.728564928178786,38.78746762410849,39.29170005169542,-80.29683116706487
8.281249899999999,10.524995047132228,-6.3967050537494,-7.5060644800601235,72.88607336488141,43.79251465184691,-61.058752181079754
8.2912499,9.919004545865011,-6.410221553139009,-7.404642680449015,98.38111666207095,50.53000112377676,-44.34783125219405
8.3012499,9.98602215606243,-6.545616625839401,-7.519308757213489,122.60673445023667,56.637757138153006,-30.936578840007396
8.3112499,10.954105740303248,-6.925435304302891,-7.61597812244384,145.90932291178703,62.838824171482216,-22.466494471322953
8.3212499,11.89503970023146,-6.94746575164902,-7.879397602775778,162.88394598486872,69.75126243781051,-16.60241553434981
8.3312499,11.960651451574565,-6.347440471000876,-8.426456662794035,169.61570977627903,76.89433097293418,-13.997066188138689
8.3412499,11.121653650324715,-5.2033512986699355,-8.863311010262072,163.8693292703801,83.85326196626558,-17.18288555366804
8.3512499,10.228533517792531,-4.4708299797707225,-9.031837664605359,149.61956289728693,91.18114126811896,-24.86910482016287
8.361249899999999,9.533645233061756,-4.475874417332441,-8.883093415662188,131.75551094920232,99.15305647349238,-34.16929266459922
8.3712499,8.813878079406715,-4.523047752852994,-8.420254383576303,112.26911088707611,108.36250078375713,-42.63388450168544
8.3812499,8.387551142396934,-4.79287324751444,-7.8756145219888944,95.75911107085169,117.9281691215269,-49.227473255848835
8.3912499,8.421665193888025,-5.261647315909932,-7.449499111036562,85.73846128266526,125.23574880523367,-54.27271008970456
8.4012499,8.559841014157328,-5.500865480770442,-7.053443278041708,82.92318441891943,128.6595920366333,-58.90090583006603
8.4112499,8.608133930014223,-5.858247339877191,-6.369877012982843,84.96246793720138,129.2173331214509,-63.156287043366746
8.4212499,8.706265940293017,-6.359445754290198,-5.57990448455982,90.62482027159308,128.36658025783896,-64.89717707242058
8.4312499,8.686457174888211,-6.838332375499138,-5.319764563231779,100.81231686064757,126.20472412205055,-62.08931712628894
8.441249899999999,8.189681195608019,-6.793531390060162,-5.517741764248059,108.74512685354951,123.58537804354788,-57.16682813979452
8.451249899999999,7.432453401456294,-6.063121329821044,-5.575702077844571,111.7875949894442,122.09334956811503,-53.407737977336865
8.4612499,7.008860174201323,-5.336367510604683,-5.4643357932341345,112.27212528895194,121.56396732309943,-52.298346730248696
8.4712499,7.040455672267216,-5.2093067496422405,-5.096408451464608,110.8463612067987,121.62750655376661,-53.42792930327886
8.4812499,7.318862100106077,-5.664363581165597,-4.553353940959697,110.24381163672749,123.12377083185747,-54.88841579669304
8.4912499,7.5526124787127875,-6.107506859359876,-4.26152101667127,111.71825607722143,125.01871873661088,-55.851056661392136
8.5012499,7.825383034855827,-6.278053089092616,-4.156421319685123,114.3961920043316,126.70055679654817,-57.02110377519581
8.5112499,7.932564611020142,-6.115286738754333,-4.00165147175628,117.14488722517615,126.82822535496439,-58.988336025703234
8.521249899999999,8.10133114060582,-6.098052894622242,-3.65373059325001,119.46791009322014,126.9639864724626,-60.77339749380739
8.531249899999999,8.356712825449144,-5.990477318089981,-3.299282608036778,118.28665401712438,128.80251490468584,-62.18984212864363
8.5412499,8.010097175576053,-5.074436520912996,-3.0201735638519946,111.51182792638868,129.65469470106055,-65.7478180794662
8.5512499,7.719128750789301,-4.248436196061037,-2.6356502363202057,105.42492163197127,128.4502125821672,-71.95593826238593
8.5612499,7.943755025444759,-4.202472414356291,-2.167641029988949,101.28353113765583,125.88132646713754,-78.05281951784133
8.5712499,7.966279975626187,-4.358897214659261,-1.740284141309876,97.60924396270148,121.88361001176291,-81.74759815656081
8.5812499,7.741958214855296,-4.382321082875528,-1.4389476834502573,95.42072981899663,116.08981626522558,-83.29861702723429
8.5912499,7.608358784322665,-4.222135687255769,-1.11490376717777,94.28557798271487,107.51049881710858,-83.72659498235919
8.6012499,7.679896388675125,-4.105196259739218,-0.7023982838872715,94.8587221740946,96.7978604592714,-83.61624612446987
8.611249899999999,7.85586217651024,-4.183591918385873,-0.3579179398884901,97.07628025083625,84.87350060902645,-82.18713413390117
8.6212499,8.00527106518846,-4.276501644988399,-0.12368912386983368,99.40550345340242,71.81659346497138,-78.53081229331664
8.6312499,8.083772370543764,-4.163574525913171,0.09551999428228612,100.63164533096624,58.602332482494774,-73.39515138937085
8.6412499,8.18147077318286,-3.8534026637909395,0.278440674405109,100.41850680342677,46.060735814143506,-68.23091364418434
8.6512499,8.266059607089582,-3.732180059635081,0.4662699308065165,98.77937366894825,33.71421792996799,-63.42508737718509
8.6612499,8.306728893957962,-3.6629940551701305,0.6915401744304438,94.9683428645668,22.29757600347371,-58.55034684522968
8.6712499,8.251818730614703,-3.4655545878903697,0.8052313950631937,89.7899532308925,12.189793657422856,-54.3506956019004
8.6812499,8.183772401769914,-3.414340309951607,0.9431393746013381,82.54764102664109,2.303611701804528,-49.69437774392252
8.691249899999999,8.343637453752569,-3.3250227113397988,1.1703292358052633,72.09040568132622,-5.4709042018727025,-43.54793944852029
8.7012499,8.500466583301,-2.8689380574449865,1.257517071979568,60.07712902572304,-9.862777958827117,-38.67515119776685
8.7112499,8.645077631324247,-2.3516488689889403,1.3714329239473766,47.14320300753493,-12.589408163943226,-35.99219558528624
8.7212499,8.825360490357163,-2.1615679328353083,1.4541217908165764,33.97146553620408,-14.112560407947385,-34.3152529736112
8.7312499,8.974349716987874,-2.0434436570862826,1.3816679127383045,21.1669200534544,-14.478600030000331,-32.909696529514584
8.7412499,9.061991147603726,-1.9774198178444182,1.2584314589556898,10.31829321135955,-13.91448115682601,-31.96068879513647
8.7512499,9.06214991110516,-2.2256115776749743,1.0858430640532142,2.2197669624236545,-12.911732757967576,-30.103142851661914
8.7612499,8.965589768847462,-2.515759726424171,0.8746761424181213,-4.188458014936507,-11.781075322354663,-26.44198691046387
8.771249899999999,8.912853574189025,-2.590110782606359,0.6345206811760823,-9.33459323525614,-10.187475602793997,-22.19367898162883
8.781249899999999,8.884045069323726,-2.56978833072629,0.3488581423750268,-12.69734623214169,-8.700789893073354,-18.521946327801427
8.7912499,8.850275178167152,-2.5718583853499646,0.11528631184005779,-14.546637279972694,-8.07469890859883,-15.326412911000206
8.8012499,8.872251972308927,-2.663072029857872,0.07183891692051365,-15.271617532306186,-7.383716919726093,-12.523099175517055
8.8112499,8.89788586490304,-2.837676912831363,0.15573948785084377,-14.792294202307513,-5.9719489990609,-9.94361328577596
8.8212499,8.885908169109355,-3.041089489755477,0.171965396878796,-13.00250558524705,-4.663612758277856,-7.714310268308381
8.8312499,8.907909885837435,-3.2427078905220132,0.12130809581673353,-9.737327924821223,-3.4875662799508036,-5.482859288580313
8.8412499,8.91837405285935,-3.4894403458403147,0.10738987196726514,-5.6008221907271505,-2.260777937532873,-2.8959209152898837
8.8512499,8.910938100846115,-3.707156050513321,0.16935239462273516,-2.0023345525058516,-1.0791091684066862,0.03517608233684036
8.861249899999999,8.906719401370742,-3.8053260758982375,0.3235808007770772,0.9095569614135056,0.06131520306140375,2.8987417288386212
8.8712499,8.930889280259594,-3.8708820062940137,0.5063093945048925,3.150681297526415,1.2199192584668888,5.330077624271084
8.8812499,8.967864115880392,-3.9118875534423547,0.6592119196960666,4.134721782909575,2.408415385290153,7.057992397690086
8.8912499,8.860389109971173,-3.956631380015915,0.6890145607369642,3.946141923954208,3.1298072567472914,7.92648980267028
8.9012499,8.822171605057605,-4.021462842107408,0.6117140586509511,2.3627557562789043,3.478038694091331,7.670965188465107
8.9112499,8.888316609095462,-4.017911443575318,0.5800108380917003,0.17485382502173277,3.7725299996419115,6.374709870028085
8.9212499,8.824368112973447,-3.983338353511788,0.5811802558250184,-2.1688785832031128,3.608702880451716,4.922789409312481
8.9312499,8.779050065729798,-3.992072338181992,0.5780146886121855,-4.795783065554994,3.073713508631262,4.073913771937882
8.941249899999999,8.823904458001508,-4.0815822336272936,0.6021409740237417,-7.327780811297763,2.4156254684943064,3.711003980211612
8.9512499,8.969801065520654,-4.278240489012715,0.6364645229175366,-8.707086700896724,2.144526208589573,3.292487291104168
8.9612499,9.058054988207006,-4.480153384519867,0.6993533346419865,-8.224205666576964,1.7716048294499944,2.7495435384174294
8.9712499,9.037106168890933,-4.513487843852664,0.7081101302055303,-6.527889275937016,1.3037683888939429,2.420348807117925
8.9812499,9.04373607193998,-4.374351358672232,0.5095848129620654,-4.430554302510306,0.992830800846983,2.267582081431089
8.9912499,9.107987409434974,-4.151264713014416,0.3284175015890031,-3.007019724893493,0.30436369489590703,2.5104565848682197
9.0012499,9.193325738139244,-4.048351659593612,0.36440905711188704,-2.677988290550899,-0.24417217588783927,3.3635644100739346
9.0112499,9.210630644807376,-4.055162459739745,0.4603909118012224,-2.685942066793092,-0.1733872100786459,4.033272781861505
9.0212499,9.16938532003179,-4.073815529978849,0.5327385254304676,-2.219540592044852,-0.3833300799400819,4.246587035791476
9.0312499,9.123462386584727,-4.0666783882473485,0.4847677979737029,-1.8053958441693698,-0.8193255264494756,4.735249552259337
9.0412499,9.064138642980751,-3.9857106087236964,0.3096869895512071,-1.879557018377297,-0.9209401315490476,5.426615793178328
9.0512499,9.007340217195097,-3.886720627479309,0.2000105326281061,-2.6967494639209257,-1.1288326465759477,6.237487565564311
9.0612499,9.037968248585683,-3.946267643127965,0.35424363160584976,-3.856904919801716,-1.2749285222693227,7.095760213527551
9.0712499,9.126642224031944,-4.136429778216916,0.6340920136184696,-4.529015798749561,-0.6615417637467972,7.495937581672717
9.0812499,9.123878278781742,-4.381106923035049,0.8087646667693033,-4.157416231536306,0.17881655682748382,7.674159843761501
9.0912499,9.03293186220746,-4.5210053884840375,0.8422278904565146,-2.805377156845208,0.6371623227352596,7.851232018905016
9.1012499,8.8531483116451,-4.513180073720844,0.7184839688692499,-0.732699880707295,0.708224177155132,7.273876667794246
9.1112499,8.652398341178912,-4.541272434078071,0.5747931390859857,1.3860307579527626,0.02863683116182022,6.137535466861129
9.1212499,8.580674030377065,-4.515957328734528,0.5306666105195141,2.313116993261007,-1.0025092540649951,4.96874538128517
9.1312499,8.52841002639782,-4.364579912213892,0.49038823319150937,1.5816237580316648,-1.5378718705246475,3.762370507106653
9.1412499,8.509536072807597,-4.2211593997747565,0.36099148640411816,-0.7692976368094968,-1.7477919155071502,2.978721229730535
9.1512499,8.660607822973303,-4.158866792077814,0.2664061821491257,-3.673717836135665,-1.6724259089396927,2.7112029348292435
9.1612499,8.84029834795972,-4.127142191382581,0.34013573814509157,-6.206017406311159,-1.2882763360561482,2.39834352230359
9.1712499,8.959134994277345,-4.158888159054979,0.5602625445061186,-7.26701007352567,-0.6210360727350024,2.0872278252989216
9.1812499,9.005863327617924,-4.287755701105788,0.7155985967160264,-6.6017400544045195,0.37333390641856534,1.765527994029714
9.1912499,8.950703147374755,-4.404588338870058,0.6821740819134163,-4.71047689670537,1.1365695892466279,1.6717810904871655
9.2012499,8.827208984734993,-4.504385744321605,0.5541140632117403,-2.4642869273497725,1.4245634708538595,2.0789853470897874
9.2112499,8.636725508785116,-4.5340091940349,0.4556588271321887,-0.8847838255064395,1.1480212522683986,2.709798894608595
9.2212499,8.488519272604995,-4.438784562694002,0.42655700933269597,-0.14946945444164653,0.38409963250339507,3.3676781281423858
9.2312499,8.481048915945314,-4.279834196908545,0.41614398596562674,-0.8515653308976296,-0.2708595246716247,3.8114873963608775
9.2412499,8.542291849495522,-4.146099617197433,0.43177152114887846,-2.5712742980177477,-0.9289847008197808,3.9403119963778406
9.2512499,8.632327064196206,-4.143561616355009,0.4597071573730507,-4.132374690492662,-1.433696531875173,4.204166164329025
9.2612499,8.703031547840498,-4.193909224729108,0.42067599995109306,-5.368373998004942,-1.620333615237741,5.074269235412388
9.2712499,8.71914971489185,-4.17873811490141,0.4048954389675589,-6.166079387399325,-1.7784299686320386,6.175081170228914
9.2812499,8.732199472512963,-4.084840978557275,0.4663155537185187,-6.791068898211524,-1.8242841950899187,7.11034070623681
9.2912499,8.754421162366558,-3.985032367038009,0.51405302457502,-7.126376660765161,-1.6480706809021266,7.888466980442633
9.3012499,8.75080405160382,-3.9163633141060394,0.5011295946252641,-7.095400914899316,-1.3999061262629309,8.841979563260562
9.3112499,8.691931187487826,-3.8045199297678427,0.4768230058906993,-7.346545136650558,-1.117668594221109,10.338335868546176
9.3212499,8.61865029246965,-3.6983859861334296,0.5199345569047267,-7.968492008487413,-0.8005809714456926,12.06654963638627
9.3312499,8.589602224382961,-3.7426865811532766,0.653638246859608,-7.683157320562969,-0.47818461642091536,13.64761922148786
9.3412499,8.598910195450822,-3.8739724454224436,0.7724938720804607,-5.7065030520351145,0.04929110487044497,15.295694410315196
9.3512499,8.551009269312637,-3.9706193415963855,0.8226456350174924,-2.8574391414013727,0.26839911707873393,16.89046953093145
9.3612499,8.469812940897798,-4.0152096096476555,0.8402562214799113,0.007380959497832773,0.06021814713549994,18.416078325975196
9.3712499,8.410101489265552,-4.08885192795115,0.7858105456234376,2.915982621687106,-0.3603409968201927,20.064244028142323
9.3812499,8.378068967651778,-4.140077741866834,0.6462870344912004,4.8515654483684525,-1.3295624911788975,21.55950371888335
9.3912499,8.386858429212058,-4.12818491301948,0.47248143291264505,5.121430585447248,-2.722544887964651,22.710009930825098
9.4012499,8.426553271086108,-4.126622641846267,0.35403581415282587,3.731628158932656,-4.022373061138634,23.451432272380977
9.4112499,8.440168886190195,-4.120006450636965,0.2605433622694012,0.9145920353258222,-5.460964955417418,23.9924324768264
9.4212499,8.42689993039874,-4.1254579144963,0.09703387691560864,-2.8608262253775387,-7.259400694837083,24.526248576204647
9.4312499,8.469414313793523,-4.163545298749453,-0.08209151098874562,-7.532636288257707,-9.042097746242185,24.798047346781146
9.4412499,8.50855968162932,-4.156484525021207,-0.2409483360109714,-12.719902115642231,-10.864420031516786,24.935683973142
9.4512499,8.548173355511407,-4.137077700574202,-0.3249399932006164,-18.137561447673793,-12.78139707668863,25.169207713936572
9.4612499,8.58184625334206,-4.140004518724832,-0.37481820310641484,-23.887581559567757,-14.409626393282343,25.426044949033397
9.4712499,8.55177685376783,-4.147944654303094,-0.45128027373014246,-29.235162114156434,-15.967750304733432,25.75414369448488
9.4812499,8.49050002375319,-4.215804206342283,-0.5295044759993978,-33.95887910696055,-17.821571839085994,26.78513104876965
9.4912499,8.455930954478426,-4.308147537551434,-0.6063870343274107,-38.35034996739199,-19.688262598126855,28.502373145366825
9.5012499,8.511076011938284,-4.382434196770462,-0.6742714335045061,-41.704633552913926,-21.64202765790819,30.266921414550296
9.5112499,8.614580178561567,-4.43518581847819,-0.703953070775731,-43.67880102410066,-24.058534617766092,32.18515285383378
