# Time (seconds),Accel_X,Accel_Y,Accel_Z,Gyro_X,Gyro_Y,Gyro_Z
0.0012499,6.775590896606445,-6.7923502922058105,2.1739351749420166,2.288818359375,-0.4425048828125,-3.2958984375
0.0037499,6.768408298492432,-6.818686485290527,2.166752576828003,2.777099609375,-0.091552734375,-3.3416748046875
0.0062499,6.766014099121094,-6.8378400802612305,2.164358377456665,2.7618408203125,0.1373291015625,-3.2958984375
0.0087499,6.763619899749756,-6.852205276489258,2.1739351749420166,3.2196044921875,0.2288818359375,-2.899169921875
0.0112499,6.7708024978637695,-6.854599475860596,2.188300371170044,3.814697265625,0.335693359375,-2.838134765625
0.0137499,6.785167694091797,-6.84981107711792,2.205059766769409,3.8909912109375,0.3814697265625,-2.777099609375
0.016249899999999998,6.806715488433838,-6.842628479003906,2.2170307636260986,3.936767578125,0.6866455078125,-2.44140625
0.0187499,6.835445880889893,-6.840234279632568,2.22660756111145,4.302978515625,1.190185546875,-2.1820068359375
0.021249900000000002,6.852205276489258,-6.840234279632568,2.2385785579681396,4.669189453125,1.1749267578125,-2.0294189453125
0.023749899999999997,6.868964672088623,-6.845022678375244,2.252943754196167,5.1727294921875,1.312255859375,-1.708984375
0.0262499,6.871358871459961,-6.840234279632568,2.2649147510528564,5.401611328125,1.739501953125,-1.5869140625
0.028749900000000002,6.873753070831299,-6.830657482147217,2.2697031497955322,5.7220458984375,1.8768310546875,-1.2969970703125
0.031249899999999997,6.871358871459961,-6.806715488433838,2.2673089504241943,5.6915283203125,1.983642578125,-0.9765625
0.0337499,6.868964672088623,-6.773196697235107,2.2577321529388428,5.645751953125,2.1820068359375,-0.823974609375
0.0362499,6.866570472717285,-6.737283706665039,2.2409727573394775,5.6915283203125,2.593994140625,-0.885009765625
0.0387499,6.861782073974609,-6.696582317352295,2.2170307636260986,5.7220458984375,2.7923583984375,-0.396728515625
0.0412499,6.854599475860596,-6.66785192489624,2.1978771686553955,5.79833984375,3.11279296875,-0.213623046875
0.0437499,6.84981107711792,-6.641515731811523,2.1763293743133545,5.6304931640625,3.265380859375,0.0457763671875
0.0462499,6.842628479003906,-6.62236213684082,2.166752576828003,5.462646484375,3.3721923828125,0.213623046875
0.0487499,6.835445880889893,-6.607996463775635,2.1571757793426514,5.0506591796875,3.3111572265625,0.3662109375
0.0512499,6.828263282775879,-6.596025466918945,2.1523873805999756,4.69970703125,3.5247802734375,0.5950927734375
0.053749899999999996,6.818686485290527,-6.586448669433594,2.1499931812286377,4.364013671875,3.8299560546875,0.762939453125
0.0562499,6.811503887176514,-6.581660270690918,2.140416383743286,4.4708251953125,4.0130615234375,0.640869140625
0.0587499,6.813898086547852,-6.5696892738342285,2.1356279850006104,4.1046142578125,4.0435791015625,0.9002685546875
0.061249899999999996,6.813898086547852,-6.557718276977539,2.118868589401245,3.5858154296875,4.2572021484375,0.946044921875
0.0637499,6.8162922859191895,-6.53377628326416,2.1068975925445557,3.509521484375,4.21142578125,0.946044921875
0.0662499,6.8162922859191895,-6.509834289550781,2.0877439975738525,2.8533935546875,4.302978515625,1.2359619140625
0.0687499,6.8162922859191895,-6.490680694580078,2.073378562927246,2.593994140625,4.45556640625,1.0833740234375
0.0712499,6.8162922859191895,-6.476315498352051,2.0661959648132324,2.349853515625,4.45556640625,1.2664794921875
0.0737499,6.821080684661865,-6.476315498352051,2.0685901641845703,1.953125,4.3487548828125,1.5106201171875
0.0762499,6.830657482147217,-6.478709697723389,2.075772762298584,1.64794921875,4.3487548828125,1.64794921875
0.0787499,6.845022678375244,-6.48828649520874,2.0853497982025146,1.6021728515625,4.364013671875,1.7242431640625
0.0812499,6.8593878746032715,-6.495469093322754,2.097320795059204,1.3275146484375,4.3792724609375,1.800537109375
0.0837499,6.868964672088623,-6.507440090179443,2.1068975925445557,1.312255859375,4.364013671875,1.861572265625
0.0862499,6.873753070831299,-6.517016887664795,2.1164743900299072,1.2969970703125,4.2724609375,2.0294189453125
0.0887499,6.876147270202637,-6.521805286407471,2.123656988143921,1.15966796875,4.241943359375,2.105712890625
0.0912499,6.8809356689453125,-6.5265936851501465,2.126051187515259,1.0833740234375,4.5166015625,2.227783203125
0.0937499,6.888118267059326,-6.524199485778809,2.1284453868865967,1.1138916015625,4.5623779296875,2.3956298828125
0.0962499,6.897695064544678,-6.524199485778809,2.1332337856292725,1.1749267578125,4.7454833984375,2.62451171875
0.0987499,6.9024834632873535,-6.528987884521484,2.1356279850006104,0.946044921875,4.7760009765625,2.532958984375
0.1012499,6.904877662658691,-6.528987884521484,2.1475989818573,0.823974609375,4.7607421875,2.44140625
0.1037499,6.904877662658691,-6.53377628326416,2.164358377456665,0.885009765625,4.8675537109375,2.6092529296875
0.1062499,6.912060260772705,-6.531382083892822,2.1787235736846924,1.15966796875,4.82177734375,2.5787353515625
0.1087499,6.92881965637207,-6.528987884521484,2.188300371170044,1.4495849609375,4.8675537109375,2.5787353515625
0.1112499,6.952761650085449,-6.5265936851501465,2.1978771686553955,1.373291015625,5.2032470703125,2.7008056640625
0.1137499,6.971915245056152,-6.528987884521484,2.2002713680267334,1.5869140625,5.2642822265625,2.655029296875
0.1162499,6.98628044128418,-6.528987884521484,2.207453966140747,1.708984375,5.2490234375,2.685546875
0.1187499,6.983886241912842,-6.531382083892822,2.2218191623687744,1.64794921875,5.1422119140625,2.8228759765625
0.1212499,6.981492042541504,-6.531382083892822,2.2385785579681396,1.983642578125,5.1422119140625,2.838134765625
0.1237499,6.97430944442749,-6.53377628326416,2.255337953567505,2.1209716796875,5.3253173828125,2.86865234375
0.1262499,6.962338447570801,-6.53377628326416,2.274491548538208,2.38037109375,5.340576171875,2.8533935546875
0.1287499,6.950367450714111,-6.528987884521484,2.2888567447662354,2.3956298828125,5.279541015625,2.9449462890625
0.1312499,6.936002254486084,-6.524199485778809,2.3056161403656006,2.5482177734375,5.2947998046875,2.777099609375
0.1337499,6.926425457000732,-6.517016887664795,2.315192937850952,2.6702880859375,5.462646484375,2.74658203125
0.1362499,6.921637058258057,-6.517016887664795,2.3271639347076416,2.8228759765625,5.4931640625,2.7618408203125
0.1387499,6.9240312576293945,-6.512228488922119,2.3247697353363037,2.8228759765625,5.462646484375,2.8228759765625
0.1412499,6.921637058258057,-6.507440090179443,2.319981336593628,2.7923583984375,5.523681640625,3.0059814453125
0.1437499,6.916848659515381,-6.50025749206543,2.3127987384796143,2.5787353515625,5.7830810546875,2.838134765625
0.1462499,6.907271862030029,-6.48828649520874,2.3056161403656006,2.6702880859375,5.767822265625,2.8076171875
0.1487499,6.890512466430664,-6.478709697723389,2.3056161403656006,2.685546875,5.767822265625,3.0364990234375
0.1512499,6.878541469573975,-6.466738700866699,2.300827741622925,2.5787353515625,5.79833984375,3.0059814453125
0.1537499,6.854599475860596,-6.452373504638672,2.300827741622925,2.471923828125,5.8746337890625,2.99072265625
0.1562499,6.833051681518555,-6.4380083084106445,2.296039342880249,2.1514892578125,5.859375,3.0670166015625
0.1587499,6.8043212890625,-6.421248912811279,2.296039342880249,1.9378662109375,5.8441162109375,3.204345703125
0.1612499,6.775590896606445,-6.40927791595459,2.2888567447662354,1.7852783203125,5.889892578125,3.2501220703125
0.1637499,6.742072105407715,-6.390124320983887,2.2840683460235596,1.4801025390625,5.8746337890625,3.35693359375
0.1662499,6.6846113204956055,-6.354211330413818,2.2697031497955322,1.190185546875,5.7220458984375,3.5552978515625
0.1687499,6.651092529296875,-6.337451934814453,2.2673089504241943,0.640869140625,5.55419921875,3.47900390625
0.1712499,6.62236213684082,-6.325480937957764,2.2625205516815186,0.4425048828125,5.3863525390625,3.6773681640625
0.1737499,6.596025466918945,-6.31829833984375,2.2601263523101807,-0.1678466796875,5.340576171875,4.21142578125
0.17624990000000001,6.572083473205566,-6.31829833984375,2.252943754196167,-0.2899169921875,5.3863525390625,4.180908203125
0.1787499,6.552929878234863,-6.320692539215088,2.250549554824829,-0.3814697265625,5.645751953125,4.5623779296875
0.1812499,6.5265936851501465,-6.332663536071777,2.250549554824829,-0.7171630859375,5.4779052734375,4.8370361328125
0.1837499,6.490680694580078,-6.339846134185791,2.255337953567505,-1.3275146484375,5.43212890625,4.8828125
0.1862499,6.445190906524658,-6.3518171310424805,2.2601263523101807,-1.6326904296875,5.1727294921875,5.55419921875
0.1887499,6.387730121612549,-6.366182327270508,2.2649147510528564,-2.25830078125,5.2032470703125,5.7373046875
0.1912499,6.332663536071777,-6.382941722869873,2.2673089504241943,-2.5787353515625,4.913330078125,6.3629150390625
0.1937499,6.279991149902344,-6.402095317840576,2.2625205516815186,-2.7923583984375,4.8370361328125,6.683349609375
0.1962499,6.234501361846924,-6.426037311553955,2.2601263523101807,-3.3416748046875,4.8065185546875,7.01904296875
0.1987499,6.191405773162842,-6.447585105895996,2.248155355453491,-3.5858154296875,4.8065185546875,7.6141357421875
0.2012499,6.14831018447876,-6.4595561027526855,2.233790159225464,-3.96728515625,4.6844482421875,7.9193115234375
0.2037499,6.095637321472168,-6.469132900238037,2.2170307636260986,-3.9215087890625,4.547119140625,8.3160400390625
0.2062499,6.038176536560059,-6.471527099609375,2.1954829692840576,-4.21142578125,4.5623779296875,8.7738037109375
0.20874990000000002,5.971138954162598,-6.469132900238037,2.1715409755706787,-4.547119140625,4.425048828125,9.1400146484375
0.2112499,5.901707172393799,-6.466738700866699,2.1523873805999756,-4.852294921875,4.08935546875,9.857177734375
0.2137499,5.839457988739014,-6.464344501495361,2.1332337856292725,-5.4168701171875,3.60107421875,10.5438232421875
0.2162499,5.7772088050842285,-6.464344501495361,2.118868589401245,-5.706787109375,3.3111572265625,11.077880859375
0.2187499,5.719748020172119,-6.469132900238037,2.10210919380188,-5.8746337890625,2.9144287109375,11.810302734375
0.2212499,5.6670756340026855,-6.473921298980713,2.0829553604125977,-6.2255859375,2.62451171875,12.4664306640625
0.2237499,5.614402770996094,-6.466738700866699,2.0661959648132324,-6.7291259765625,2.4566650390625,13.18359375
0.2262499,5.56173038482666,-6.464344501495361,2.0446481704711914,-7.1563720703125,2.13623046875,14.007568359375
0.2287499,5.506663799285889,-6.449979305267334,2.030282974243164,-7.3394775390625,1.8310546875,14.95361328125
0.2312499,5.442020416259766,-6.433219909667969,2.013523578643799,-7.75146484375,1.8157958984375,15.533447265625
0.2337499,5.374982833862305,-6.418854713439941,1.9943699836730957,-8.087158203125,1.3580322265625,16.5252685546875
0.2362499,5.303156852722168,-6.404489517211914,1.9752163887023926,-8.514404296875,0.9002685546875,17.1966552734375
0.23874990000000001,5.238513469696045,-6.387730121612549,1.941697597503662,-9.09423828125,0.7476806640625,18.463134765625
0.2412499,5.17626428604126,-6.370970726013184,1.9033904075622559,-9.765625,0.5950927734375,19.439697265625
0.2437499,5.114014625549316,-6.3518171310424805,1.8602946996688843,-10.2691650390625,0.2899169921875,20.1263427734375
0.2462499,5.051765441894531,-6.325480937957764,1.8100165128707886,-10.894775390625,-0.213623046875,21.209716796875
0.2487499,4.989516258239746,-6.299144744873047,1.766920804977417,-11.8560791015625,-0.48828125,22.0947265625
0.2512499,4.934449672698975,-6.268020153045654,1.7190368175506592,-12.3138427734375,-0.732421875,23.345947265625
0.25374990000000003,4.884171485900879,-6.236895561218262,1.678335428237915,-12.969970703125,-0.885009765625,24.169921875
0.25624990000000003,4.841075897216797,-6.196194171905518,1.6352397203445435,-13.5040283203125,-1.5869140625,25.2685546875
0.25874990000000003,4.812345504760742,-6.157886981964111,1.5945383310317993,-14.251708984375,-1.6326904296875,26.3671875
0.26124990000000003,4.795586109161377,-6.117185115814209,1.556231141090393,-15.3350830078125,-1.89208984375,27.252197265625
0.26374990000000004,4.800374507904053,-6.076483726501465,1.522712230682373,-16.1895751953125,-1.953125,28.4881591796875
0.26624990000000004,4.817133903503418,-6.0405707359313965,1.5083470344543457,-17.15087890625,-2.105712890625,29.7393798828125
0.26874990000000004,4.8482584953308105,-6.004657745361328,1.5083470344543457,-18.24951171875,-2.2430419921875,30.76171875
0.27124990000000004,4.8937482833862305,-5.983109951019287,1.5059528350830078,-19.22607421875,-2.197265625,32.0587158203125
0.27374990000000005,4.955997467041016,-5.961562156677246,1.50355863571167,-19.989013671875,-2.3345947265625,33.0810546875
0.27624990000000005,5.0254292488098145,-5.947196960449219,1.4891934394836426,-20.7672119140625,-1.9989013671875,34.3780517578125
0.27874990000000005,5.109226226806641,-5.935225963592529,1.482010841369629,-22.1099853515625,-1.6021728515625,35.5682373046875
0.28124990000000005,5.178658485412598,-5.920860767364502,1.482010841369629,-23.2696533203125,-1.3885498046875,36.7584228515625
0.28374990000000005,5.252878665924072,-5.913678169250488,1.5059528350830078,-24.749755859375,-0.8544921875,38.14697265625
0.28624990000000006,5.310339450836182,-5.916072368621826,1.5322890281677246,-25.7568359375,-0.396728515625,39.7186279296875
0.28874990000000006,5.365406036376953,-5.925649166107178,1.5634137392044067,-26.55029296875,-0.1220703125,40.83251953125
0.2912499,5.418078422546387,-5.949591159820557,1.5873557329177856,-27.4200439453125,0.42724609375,42.327880859375
0.2937499,5.468356609344482,-5.971138954162598,1.6112977266311646,-28.106689453125,0.8087158203125,43.731689453125
0.2962499,5.5114521980285645,-5.987898349761963,1.6328455209732056,-28.961181640625,1.8157958984375,44.9981689453125
0.2987499,5.547365188598633,-6.00226354598999,1.6543933153152466,-30.0750732421875,2.62451171875,46.4324951171875
0.3012499,5.571307182312012,-6.011840343475342,1.6711528301239014,-31.0516357421875,3.41796875,47.7447509765625
0.3037499,5.585672378540039,-6.023811340332031,1.678335428237915,-31.8450927734375,4.3792724609375,48.980712890625
0.3062499,5.5976433753967285,-6.038176536560059,1.6855180263519287,-32.71484375,5.3253173828125,50.29296875
0.3087499,5.614402770996094,-6.069301128387451,1.6855180263519287,-33.447265625,6.04248046875,51.6815185546875
0.3112499,5.633556365966797,-6.110002517700195,1.6759412288665771,-33.8897705078125,6.866455078125,52.91748046875
0.3137499,5.657498836517334,-6.174646377563477,1.6639702320098877,-34.5306396484375,7.75146484375,54.1839599609375
0.31624990000000003,5.676652431488037,-6.234501361846924,1.647210717201233,-35.2020263671875,8.544921875,55.145263671875
0.31874990000000003,5.688623428344727,-6.289567947387695,1.6328455209732056,-35.8428955078125,9.185791015625,56.1065673828125
0.32124990000000003,5.6910176277160645,-6.3302693367004395,1.6184803247451782,-36.43798828125,9.8724365234375,57.403564453125
0.32374990000000003,5.686229228973389,-6.3518171310424805,1.6065093278884888,-37.078857421875,10.6964111328125,58.4716796875
0.32624990000000004,5.686229228973389,-6.368576526641846,1.5897499322891235,-37.3077392578125,11.3372802734375,59.2498779296875
0.32874990000000004,5.688623428344727,-6.387730121612549,1.5705963373184204,-37.933349609375,11.871337890625,60.1348876953125
0.33124990000000004,5.700594425201416,-6.406883716583252,1.558625340461731,-38.5589599609375,12.4969482421875,60.72998046875
0.33374990000000004,5.714959621429443,-6.440402507781982,1.5442601442337036,-39.031982421875,12.9852294921875,61.553955078125
0.33624990000000005,5.726930618286133,-6.478709697723389,1.534683346748352,-39.215087890625,13.916015625,61.767578125
0.33874990000000005,5.7341132164001465,-6.524199485778809,1.5275006294250488,-39.642333984375,14.251708984375,62.2711181640625
0.34124990000000005,5.74129581451416,-6.567295074462891,1.5131354331970215,-40.0390625,14.7857666015625,62.896728515625
0.34374990000000005,5.748478412628174,-6.619967937469482,1.4963760375976562,-40.5731201171875,15.1824951171875,63.385009765625
0.34624990000000005,5.758055210113525,-6.677428722381592,1.479616641998291,-40.863037109375,15.68603515625,63.812255859375
0.34874990000000006,5.767632007598877,-6.75883150100708,1.4748282432556152,-41.2139892578125,15.899658203125,64.178466796875
0.35124990000000006,5.779603004455566,-6.847416877746582,1.4772224426269531,-41.5802001953125,16.2811279296875,64.51416015625
0.3537499,5.793968200683594,-6.94079065322876,1.50355863571167,-41.656494140625,16.845703125,64.8956298828125
0.3562499,5.805939197540283,-7.024587631225586,1.534683346748352,-41.900634765625,17.242431640625,65.399169921875
0.3587499,5.822698593139648,-7.091625213623047,1.5729905366897583,-42.29736328125,17.6544189453125,65.582275390625
0.3612499,5.837063789367676,-7.144298076629639,1.6089035272598267,-42.66357421875,17.974853515625,65.97900390625
0.3637499,5.856217384338379,-7.1921820640563965,1.6328455209732056,-42.54150390625,18.6309814453125,66.2384033203125
0.3662499,5.8873419761657715,-7.254431247711182,1.656787633895874,-42.755126953125,19.34814453125,66.131591796875
0.3687499,5.925649166107178,-7.328651428222656,1.6735470294952393,-42.9534912109375,19.927978515625,66.40625
0.3712499,5.975927352905273,-7.422025203704834,1.6927006244659424,-42.9534912109375,20.782470703125,66.314697265625
0.3737499,6.028599739074707,-7.513004779815674,1.7190368175506592,-43.0908203125,21.30126953125,66.4825439453125
0.3762499,6.119579315185547,-7.682993412017822,1.7980455160140991,-43.1671142578125,22.6593017578125,66.34521484375
0.37874990000000003,6.155492782592773,-7.769184589385986,1.845929503440857,-42.90771484375,23.0865478515625,66.5283203125
0.38124990000000003,6.189011573791504,-7.860164165496826,1.889025092124939,-42.54150390625,23.712158203125,66.34521484375
0.38374990000000003,6.217741966247559,-7.953537940979004,1.9273324012756348,-42.0074462890625,24.4903564453125,65.948486328125
0.38624990000000003,6.2416839599609375,-8.051700592041016,1.965639591217041,-41.961669921875,24.9786376953125,65.4144287109375
0.38874990000000004,6.253654956817627,-8.14028549194336,2.0039467811584473,-41.595458984375,25.543212890625,65.0482177734375
0.39124990000000004,6.258443355560303,-8.238448143005371,2.0446481704711914,-41.1529541015625,26.092529296875,64.75830078125
0.39374990000000004,6.248866558074951,-8.346187591552734,2.0853497982025146,-40.58837890625,26.519775390625,64.239501953125
0.39624990000000004,6.236895561218262,-8.461109161376953,2.123656988143921,-39.73388671875,27.130126953125,63.812255859375
0.39874990000000005,6.224924564361572,-8.5903959274292,2.1499931812286377,-38.5894775390625,27.374267578125,63.3392333984375
0.40124990000000005,6.210559368133545,-8.71489429473877,2.1787235736846924,-37.78076171875,27.77099609375,62.652587890625
0.40374990000000005,6.208165168762207,-8.83939266204834,2.2026655673980713,-36.468505859375,28.3660888671875,61.8743896484375
0.40624990000000005,6.205770969390869,-8.954314231872559,2.2242133617401123,-35.003662109375,28.9459228515625,61.492919921875
0.40874990000000005,6.203376770019531,-9.062053680419922,2.248155355453491,-33.63037109375,29.052734375,60.3790283203125
0.41124990000000006,6.203376770019531,-9.167398452758789,2.27209734916687,-32.257080078125,29.4952392578125,59.6466064453125
0.41374990000000006,6.200982570648193,-9.253589630126953,2.3032219409942627,-30.8837890625,29.84619140625,58.9599609375
0.41624990000000006,6.1985883712768555,-9.339780807495117,2.3367409706115723,-29.47998046875,30.029296875,57.8155517578125
0.4187499,6.1985883712768555,-9.411606788635254,2.3726539611816406,-27.5726318359375,30.4718017578125,56.884765625
0.4212499,6.1985883712768555,-9.485827445983887,2.406172752380371,-25.6195068359375,30.6396484375,55.7708740234375
0.4237499,6.19379997253418,-9.545681953430176,2.434903144836426,-23.92578125,30.82275390625,54.779052734375
0.4262499,6.189011573791504,-9.605537414550781,2.4660277366638184,-22.308349609375,31.005859375,53.5430908203125
0.4287499,6.179434776306152,-9.651026725769043,2.499546527862549,-20.32470703125,31.0211181640625,52.4444580078125
0.4312499,6.179434776306152,-9.682151794433594,2.5330653190612793,-18.49365234375,31.2652587890625,51.4068603515625
0.4337499,6.179434776306152,-9.710882186889648,2.557007312774658,-16.632080078125,31.402587890625,50.0946044921875
0.4362499,6.18182897567749,-9.730035781860352,2.583343744277954,-14.4195556640625,31.67724609375,48.980712890625
0.4387499,6.191405773162842,-9.739612579345703,2.5977089405059814,-12.5579833984375,31.646728515625,47.8363037109375
0.44124990000000003,6.196194171905518,-9.744400978088379,2.6192567348480225,-10.528564453125,31.6925048828125,46.5545654296875
0.44374990000000003,6.203376770019531,-9.737217903137207,2.6384103298187256,-8.880615234375,31.8756103515625,45.257568359375
0.44624990000000003,6.212953567504883,-9.720458984375,2.6599581241607666,-7.2021484375,31.79931640625,44.3115234375
0.44874990000000003,6.229712963104248,-9.694122314453125,2.6839001178741455,-5.55419921875,31.73828125,43.1976318359375
0.45124990000000004,6.246472358703613,-9.667786598205566,2.7102363109588623,-3.692626953125,31.890869140625,42.236328125
0.45374990000000004,6.268020153045654,-9.636661529541016,2.738966703414917,-2.38037109375,31.8603515625,41.2139892578125
0.45624990000000004,6.2847795486450195,-9.607931137084961,2.765302896499634,-0.9918212890625,31.951904296875,39.8406982421875
0.45874990000000004,6.294356346130371,-9.57441234588623,2.784456491470337,0.2899169921875,32.1044921875,38.87939453125
0.46124990000000005,6.308721542358398,-9.536105155944824,2.801215887069702,1.617431640625,32.2113037109375,37.9791259765625
0.46374990000000005,6.31829833984375,-9.490615844726562,2.80361008644104,3.2196044921875,32.2418212890625,37.29248046875
0.46624990000000005,6.332663536071777,-9.430760383605957,2.801215887069702,4.1656494140625,32.3028564453125,36.31591796875
0.46874990000000005,6.339846134185791,-9.366117477416992,2.7988216876983643,5.2490234375,32.257080078125,35.369873046875
0.47124990000000005,6.354211330413818,-9.287108421325684,2.7988216876983643,5.828857421875,32.3486328125,34.393310546875
0.47374990000000006,6.36378812789917,-9.210494041442871,2.80361008644104,6.317138671875,32.4249267578125,33.3709716796875
0.47624990000000006,6.380547523498535,-9.14345645904541,2.8131868839263916,7.1563720703125,32.6080322265625,32.40966796875
0.47874990000000006,6.404489517211914,-9.07641887664795,2.8227639198303223,7.568359375,32.5164794921875,31.4483642578125
0.4812499,6.430825710296631,-9.023746490478516,2.8371291160583496,8.1634521484375,32.5775146484375,30.670166015625
0.4837499,6.452373504638672,-8.975862503051758,2.8443117141723633,8.758544921875,32.5775146484375,29.72412109375
0.4862499,6.476315498352051,-8.932766914367676,2.8610711097717285,9.124755859375,32.4859619140625,28.9764404296875
0.4887499,6.48828649520874,-8.899248123168945,2.875436305999756,9.368896484375,32.623291015625,28.228759765625
0.4912499,6.495469093322754,-8.860940933227539,2.894589900970459,9.521484375,32.745361328125,27.3590087890625
0.4937499,6.497863292694092,-8.829815864562988,2.9089550971984863,9.765625,32.6080322265625,26.30615234375
0.4962499,6.495469093322754,-8.789113998413086,2.9328970909118652,9.857177734375,32.53173828125,25.4669189453125
0.4987499,6.493074893951416,-8.743624687194824,2.9472622871398926,9.8724365234375,32.4249267578125,24.96337890625
0.5012499,6.481103897094727,-8.700529098510742,2.964021682739258,9.7503662109375,32.3333740234375,24.017333984375
0.5037499000000001,6.464344501495361,-8.650250434875488,2.9759926795959473,9.8419189453125,32.073974609375,23.3612060546875
0.5062499,6.440402507781982,-8.609549522399902,2.980781078338623,9.9639892578125,31.951904296875,22.2625732421875
0.5087499000000001,6.414066314697266,-8.56645393371582,2.985569477081299,9.521484375,31.73828125,21.78955078125
0.5112499,6.387730121612549,-8.528146743774414,2.9879636764526367,9.246826171875,31.646728515625,21.0113525390625
0.5137499,6.368576526641846,-8.489839553833008,2.985569477081299,9.0789794921875,31.5093994140625,20.08056640625
0.5162499,6.337451934814453,-8.446743965148926,2.983175277709961,8.6517333984375,31.2957763671875,19.2413330078125
0.5187499,6.294356346130371,-8.40843677520752,2.983175277709961,8.0718994140625,30.8990478515625,18.4783935546875
0.5212499,6.2416839599609375,-8.360552787780762,2.983175277709961,7.4005126953125,30.45654296875,17.669677734375
0.5237499,6.18182897567749,-8.324639320373535,2.980781078338623,6.9580078125,30.21240234375,16.845703125
0.5262499,6.133944988250732,-8.291120529174805,2.978386878967285,6.3934326171875,29.6630859375,16.2811279296875
0.5287499,6.095637321472168,-8.269572257995605,2.9688100814819336,5.615234375,29.0374755859375,15.44189453125
0.5312499,6.069301128387451,-8.252813339233398,2.956839084625244,4.9285888671875,28.6712646484375,14.6026611328125
0.5337499,6.045359134674072,-8.233659744262695,2.940079689025879,3.9825439453125,28.4423828125,13.7939453125
0.5362499000000001,6.023811340332031,-8.209717750549316,2.9328970909118652,3.326416015625,27.9541015625,13.031005859375
0.5387499,6.004657745361328,-8.183381080627441,2.9161376953125,2.3193359375,27.496337890625,12.4053955078125
0.5412499000000001,5.987898349761963,-8.164227485656738,2.9233202934265137,1.617431640625,27.03857421875,11.810302734375
0.5437499,5.971138954162598,-8.149862289428711,2.9281086921691895,0.701904296875,26.153564453125,10.986328125
0.5462499000000001,5.954379558563232,-8.149862289428711,2.9544448852539062,0.0152587890625,25.787353515625,10.0250244140625
0.5487499,5.925649166107178,-8.157045364379883,2.980781078338623,-0.885009765625,25.4364013671875,9.368896484375
0.5512499000000001,5.892130374908447,-8.169015884399414,3.0095114707946777,-1.9989013671875,24.7802734375,8.7127685546875
0.5537499,5.853823184967041,-8.176198959350586,3.0406360626220703,-2.716064453125,24.1546630859375,8.0108642578125
0.5562499000000001,5.825092792510986,-8.188169479370117,3.0526070594787598,-2.9449462890625,23.7274169921875,7.415771484375
0.5587499,5.803544998168945,-8.202534675598145,3.0813376903533936,-3.5858154296875,23.162841796875,6.866455078125
0.5612499000000001,5.78678560256958,-8.214506149291992,3.0837318897247314,-4.119873046875,22.4761962890625,6.28662109375
0.5637499,5.779603004455566,-8.22887134552002,3.0885202884674072,-4.82177734375,21.942138671875,5.5389404296875
0.5662499000000001,5.770026206970215,-8.24084186553955,3.0837318897247314,-5.218505859375,21.4385986328125,5.1727294921875
0.5687499,5.75326681137085,-8.255207061767578,3.0813376903533936,-5.615234375,20.7672119140625,4.730224609375
0.5712499000000001,5.736507415771484,-8.276755332946777,3.0813376903533936,-5.859375,20.355224609375,4.0740966796875
0.5737499,5.705382823944092,-8.29590892791748,3.090914487838745,-6.16455078125,19.9127197265625,3.570556640625
0.5762499000000001,5.679046630859375,-8.322244644165039,3.098097085952759,-6.744384765625,19.3328857421875,3.0059814453125
0.5787499,5.652710437774658,-8.339004516601562,3.1076738834381104,-6.7596435546875,18.798828125,2.4871826171875
0.5812499,5.623979568481445,-8.35336971282959,3.114856481552124,-6.6070556640625,18.1884765625,2.227783203125
0.5837499,5.578489780426025,-8.377311706542969,3.1244332790374756,-6.3629150390625,16.78466796875,1.3427734375
0.5862499,5.559336185455322,-8.38688850402832,3.1268274784088135,-6.500244140625,16.4031982421875,1.0528564453125
0.5887499,5.542576789855957,-8.406042098999023,3.1244332790374756,-6.439208984375,15.9149169921875,0.457763671875
0.5912499,5.530605792999268,-8.42040729522705,3.1292216777801514,-5.950927734375,15.3656005859375,-0.030517578125
0.5937499,5.5114521980285645,-8.437167167663574,3.136404275894165,-5.523681640625,14.8162841796875,-0.2899169921875
0.5962499,5.497087001800537,-8.446743965148926,3.1483752727508545,-5.06591796875,14.2974853515625,-0.457763671875
0.5987499000000001,5.480327606201172,-8.451532363891602,3.157952070236206,-4.5318603515625,13.580322265625,-0.6561279296875
0.6012499,5.463568210601807,-8.451532363891602,3.1723172664642334,-4.0283203125,13.153076171875,-0.9765625
0.6037499000000001,5.451597213745117,-8.461109161376953,3.179499864578247,-3.6773681640625,12.6495361328125,-1.15966796875
0.6062499,5.434837818145752,-8.470685958862305,3.184288263320923,-3.0670166015625,12.0391845703125,-1.2359619140625
0.6087499000000001,5.415684223175049,-8.47786808013916,3.1866824626922607,-2.3956298828125,11.3067626953125,-1.4190673828125
0.6112499,5.39174222946167,-8.482656478881836,3.1890766620635986,-1.8463134765625,11.1846923828125,-1.495361328125
0.6137499000000001,5.360617637634277,-8.47547435760498,3.1890766620635986,-1.15966796875,10.711669921875,-1.3885498046875
0.6162499,5.3342814445495605,-8.456320762634277,3.1890766620635986,-0.335693359375,10.223388671875,-1.5869140625
0.6187499000000001,5.307945251464844,-8.434772491455078,3.177105665206909,-0.274658203125,9.7198486328125,-1.953125
0.6212499,5.288791656494141,-8.413225173950195,3.1651346683502197,0.1373291015625,9.124755859375,-1.983642578125
0.6237499000000001,5.274426460266113,-8.391676902770996,3.138798475265503,0.8087158203125,8.8958740234375,-1.800537109375
0.6262499,5.262455463409424,-8.379706382751465,3.1268274784088135,1.1749267578125,8.2855224609375,-1.8157958984375
0.6287499000000001,5.252878665924072,-8.358158111572266,3.1220390796661377,1.617431640625,7.6446533203125,-1.861572265625
0.6312499,5.238513469696045,-8.339004516601562,3.1244332790374756,1.708984375,7.3089599609375,-2.0751953125
0.6337499000000001,5.224148273468018,-8.305485725402832,3.1292216777801514,2.227783203125,6.8359375,-2.25830078125
0.6362499,5.202600479125977,-8.271966934204102,3.136404275894165,2.3345947265625,6.5155029296875,-2.2125244140625
0.6387499000000001,5.183446884155273,-8.238448143005371,3.134010076522827,2.410888671875,5.9356689453125,-2.349853515625
0.6412499,5.161899089813232,-8.209717750549316,3.1316158771514893,2.471923828125,5.43212890625,-2.4261474609375
0.6437499,5.142745018005371,-8.185775756835938,3.1220390796661377,2.7008056640625,5.157470703125,-2.2735595703125
0.6462499,5.125985622406006,-8.17141056060791,3.1076738834381104,2.655029296875,4.69970703125,-2.4566650390625
0.6487499,5.109226226806641,-8.159439086914062,3.0885202884674072,2.4261474609375,4.364013671875,-2.6397705078125
0.6512499,5.094861030578613,-8.152256965637207,3.069366693496704,2.4261474609375,3.96728515625,-2.716064453125
0.6537499,5.07570743560791,-8.14028549194336,3.050212860107422,2.1514892578125,3.570556640625,-2.8076171875
0.6562499,5.056553840637207,-8.123526573181152,3.0310592651367188,1.983642578125,3.4027099609375,-2.838134765625
0.6587499,5.037400245666504,-8.099584579467773,3.0095114707946777,1.5106201171875,3.0517578125,-2.9449462890625
0.6612499000000001,5.023035049438477,-8.066065788269043,2.9879636764526367,0.946044921875,2.716064453125,-3.23486328125
0.6637499,5.008669853210449,-8.037335395812988,2.96162748336792,0.640869140625,2.38037109375,-3.143310546875
0.6662499000000001,4.999093055725098,-8.006210327148438,2.940079689025879,0.2288818359375,2.0599365234375,-3.326416015625
0.6687499,4.991910457611084,-7.9846625328063965,2.9233202934265137,-0.152587890625,1.89208984375,-3.35693359375
0.6712499000000001,4.98472785949707,-7.977479934692383,2.9089550971984863,-0.4730224609375,1.6021728515625,-3.3416748046875
0.6737499,4.977545261383057,-7.967903137207031,2.8993782997131348,-0.9918212890625,1.617431640625,-3.5400390625
0.6762499000000001,4.967968463897705,-7.972691535949707,2.896984100341797,-1.373291015625,1.1444091796875,-3.72314453125
0.6787499,4.960785865783691,-7.977479934692383,2.896984100341797,-1.7547607421875,0.9613037109375,-3.7841796875
0.6812499000000001,4.9583916664123535,-7.99184513092041,2.9065608978271484,-2.4566650390625,0.8697509765625,-4.0130615234375
0.6837499,4.953603267669678,-8.01339340209961,2.913743495941162,-2.5634765625,0.518798828125,-4.058837890625
0.6862499000000001,4.955997467041016,-8.039729118347168,2.913743495941162,-2.74658203125,0.48828125,-4.058837890625
0.6887499,4.95120906829834,-8.068459510803223,2.9089550971984863,-2.8839111328125,0.335693359375,-4.119873046875
0.6912499000000001,4.948814868927002,-8.097189903259277,2.892195701599121,-2.99072265625,0.244140625,-4.150390625
0.6937499,4.946420669555664,-8.123526573181152,2.875436305999756,-3.0975341796875,0,-4.0435791015625
0.6962499000000001,4.944026470184326,-8.147468566894531,2.8610711097717285,-3.0975341796875,0.1068115234375,-4.1961669921875
0.6987499,4.941632270812988,-8.169015884399414,2.849100112915039,-2.99072265625,-0.1678466796875,-4.058837890625
0.7012499000000001,4.9368438720703125,-8.188169479370117,2.846705913543701,-2.7008056640625,-0.3662109375,-4.0740966796875
0.7037499,4.927267074584961,-8.20732307434082,2.8443117141723633,-2.5787353515625,-0.518798828125,-4.0740966796875
0.7062499,4.9152960777282715,-8.226476669311523,2.8443117141723633,-2.410888671875,-0.579833984375,-3.9520263671875
0.7087499,4.908113479614258,-8.245630264282227,2.8395233154296875,-2.0294189453125,-0.5950927734375,-3.84521484375
0.7112499,4.903325080871582,-8.267178535461426,2.8443117141723633,-1.7242431640625,-0.67138671875,-4.0435791015625
0.7137499,4.90571928024292,-8.288725852966309,2.846705913543701,-1.1749267578125,-0.762939453125,-3.9520263671875
0.7162499,4.912901878356934,-8.305485725402832,2.853888511657715,-0.701904296875,-0.823974609375,-3.8299560546875
0.7187499,4.912901878356934,-8.315062522888184,2.8610711097717285,-0.2288818359375,-0.8392333984375,-3.7994384765625
0.7212499,4.910507678985596,-8.317456245422363,2.868253707885742,0.3814697265625,-0.7781982421875,-3.84521484375
0.7237499000000001,4.898536682128906,-8.310274124145508,2.8610711097717285,0.9613037109375,-0.9765625,-3.3416748046875
0.7262499,4.881777286529541,-8.307879447937012,2.851494312286377,1.4495849609375,-1.15966796875,-3.143310546875
0.7287499000000001,4.8722004890441895,-8.305485725402832,2.829946517944336,1.8157958984375,-1.03759765625,-3.11279296875
0.7312499,4.8602294921875,-8.307879447937012,2.8107926845550537,2.2125244140625,-0.823974609375,-3.021240234375
0.7337499000000001,4.855441093444824,-8.312667846679688,2.786850690841675,2.8076171875,-0.9002685546875,-3.0517578125
0.7362499,4.850652694702148,-8.307879447937012,2.7724854946136475,3.35693359375,-0.9613037109375,-3.082275390625
0.7387499000000001,4.843470096588135,-8.305485725402832,2.7509377002716064,3.7078857421875,-1.0986328125,-2.99072265625
0.7412499,4.843470096588135,-8.29830265045166,2.736572504043579,4.08935546875,-1.2054443359375,-2.8533935546875
0.7437499000000001,4.845864295959473,-8.288725852966309,2.717418909072876,4.4708251953125,-1.2359619140625,-2.8228759765625
0.7462499,4.855441093444824,-8.276755332946777,2.7054479122161865,4.791259765625,-1.3427734375,-2.777099609375
0.7487499000000001,4.869806289672852,-8.259995460510254,2.695871114730835,5.096435546875,-1.190185546875,-2.74658203125
0.7512499,4.884171485900879,-8.238448143005371,2.6886885166168213,5.43212890625,-1.40380859375,-2.8228759765625
0.7537499000000001,4.898536682128906,-8.221688270568848,2.6839001178741455,5.706787109375,-1.5106201171875,-2.716064453125
0.7562499,4.908113479614258,-8.200140953063965,2.6839001178741455,5.8135986328125,-1.46484375,-2.685546875
0.7587499000000001,4.912901878356934,-8.178592681884766,2.6862943172454834,6.0577392578125,-1.373291015625,-2.7618408203125
0.7612499,4.9152960777282715,-8.159439086914062,2.6886885166168213,6.195068359375,-1.5106201171875,-2.8228759765625
0.7637499000000001,4.920084476470947,-8.14028549194336,2.6839001178741455,6.2255859375,-1.5869140625,-2.685546875
0.7662499,4.927267074584961,-8.130708694458008,2.674323320388794,6.3323974609375,-1.6021728515625,-2.716064453125
0.7687499000000001,4.9368438720703125,-8.11634349822998,2.652775526046753,6.40869140625,-1.434326171875,-2.6092529296875
0.7712499,4.946420669555664,-8.106766700744629,2.6360161304473877,6.4544677734375,-1.678466796875,-2.5482177734375
0.7737499,4.963180065155029,-8.094796180725098,2.612074136734009,6.378173828125,-1.556396484375,-2.38037109375
0.7762499,4.9799394607543945,-8.087613105773926,2.5929205417633057,6.3323974609375,-1.64794921875,-2.3040771484375
0.7787499,4.999093055725098,-8.085219383239746,2.5785553455352783,6.500244140625,-1.739501953125,-2.288818359375
0.7812499,5.013458251953125,-8.075642585754395,2.564189910888672,6.4239501953125,-1.7242431640625,-2.197265625
0.7837499,5.020640850067139,-8.063671112060547,2.559401512145996,6.04248046875,-1.678466796875,-2.044677734375
0.7862499000000001,5.023035049438477,-8.042123794555664,2.5522189140319824,5.7373046875,-1.6632080078125,-1.953125
0.7887499,5.018246650695801,-8.008605003356934,2.5498247146606445,5.401611328125,-1.7242431640625,-1.922607421875
0.7912499000000001,5.020640850067139,-7.977479934692383,2.542642116546631,5.06591796875,-1.7547607421875,-1.8310546875
0.7937499,5.03021764755249,-7.9415669441223145,2.5306711196899414,4.8980712890625,-2.1209716796875,-1.6326904296875
0.7962499000000001,5.04218864440918,-7.943961143493652,2.5234885215759277,4.7454833984375,-2.0599365234375,-1.3885498046875
0.7987499,5.049371242523193,-7.9415669441223145,2.516305923461914,4.364013671875,-2.1514892578125,-1.3580322265625
0.8012499000000001,5.061342239379883,-7.939172744750977,2.5115175247192383,4.2877197265625,-1.983642578125,-1.28173828125
0.8037499,5.061342239379883,-7.922413349151611,2.5115175247192383,3.814697265625,-2.166748046875,-1.220703125
0.8062499000000001,5.066130638122559,-7.908048152923584,2.513911724090576,3.1890869140625,-2.044677734375,-1.40380859375
0.8087499,5.073313236236572,-7.893682956695557,2.5091233253479004,2.99072265625,-1.9378662109375,-1.3885498046875
0.8112499000000001,5.078101634979248,-7.903259754180908,2.5043349266052246,2.685546875,-2.13623046875,-1.1444091796875
0.8137499,5.092466831207275,-7.929595947265625,2.494758129119873,2.685546875,-2.1820068359375,-1.0528564453125
0.8162499000000001,5.099649429321289,-7.965508937835693,2.4875755310058594,2.8533935546875,-2.166748046875,-1.007080078125
0.8187499,5.104437828063965,-8.008605003356934,2.4827871322631836,2.716064453125,-2.1820068359375,-1.0833740234375
0.8212499000000001,5.106832027435303,-8.037335395812988,2.4851813316345215,2.7618408203125,-2.1514892578125,-0.91552734375
0.8237499,5.106832027435303,-8.054094314575195,2.494758129119873,2.3040771484375,-1.922607421875,-0.79345703125
0.8262499000000001,5.106832027435303,-8.063671112060547,2.5043349266052246,2.227783203125,-1.9378662109375,-0.67138671875
0.8287499,5.106832027435303,-8.075642585754395,2.5234885215759277,2.4871826171875,-2.288818359375,-0.5035400390625
0.8312499000000001,5.114014625549316,-8.097189903259277,2.5330653190612793,2.410888671875,-2.4261474609375,-0.4425048828125
0.8337499,5.12119722366333,-8.125920295715332,2.5450363159179688,2.5177001953125,-2.38037109375,-0.42724609375
0.8362499,5.140350818634033,-8.154650688171387,2.5474305152893066,2.838134765625,-2.1209716796875,-0.30517578125
0.8387499,5.147533416748047,-8.178592681884766,2.542642116546631,2.99072265625,-2.01416015625,-0.48828125
0.8412499,5.154716491699219,-8.190564155578613,2.535459518432617,3.0975341796875,-2.2125244140625,-0.3662109375
0.8437499,5.149928092956543,-8.190564155578613,2.5306711196899414,3.23486328125,-2.1209716796875,-0.3204345703125
0.8462499,5.142745018005371,-8.190564155578613,2.5258827209472656,3.1890869140625,-2.0751953125,-0.3204345703125
0.8487499000000001,5.137956619262695,-8.183381080627441,2.5306711196899414,3.1585693359375,-2.3651123046875,-0.0762939453125
0.8512499,5.130774021148682,-8.183381080627441,2.537853717803955,3.3111572265625,-2.3956298828125,-0.3814697265625
0.8537499000000001,5.125985622406006,-8.188169479370117,2.5522189140319824,3.4332275390625,-2.4261474609375,-0.4119873046875
0.8562499,5.12119722366333,-8.200140953063965,2.5665841102600098,3.60107421875,-2.655029296875,-0.5340576171875
0.8587499000000001,5.118803024291992,-8.214506149291992,2.583343744277954,3.662109375,-2.3651123046875,-0.8087158203125
0.8612499,5.116408824920654,-8.22887134552002,2.5905263423919678,3.8604736328125,-2.4566650390625,-0.823974609375
0.8637499000000001,5.114014625549316,-8.236053466796875,2.5953147411346436,3.8604736328125,-2.349853515625,-1.129150390625
0.8662499,5.1116204261779785,-8.243236541748047,2.5977089405059814,3.90625,-2.62451171875,-1.0833740234375
0.8687499000000001,5.1116204261779785,-8.245630264282227,2.6001031398773193,4.0283203125,-2.7923583984375,-1.1138916015625
0.8712499,5.1116204261779785,-8.248024940490723,2.604891538619995,4.241943359375,-2.6702880859375,-1.373291015625
0.8737499000000001,5.1116204261779785,-8.252813339233398,2.607285737991333,4.119873046875,-2.899169921875,-1.64794921875
0.8762499,5.1116204261779785,-8.255207061767578,2.612074136734009,4.180908203125,-2.8076171875,-1.7242431640625
0.8787499000000001,5.104437828063965,-8.255207061767578,2.6144683361053467,4.3487548828125,-2.899169921875,-1.8157958984375
0.8812499,5.094861030578613,-8.257601737976074,2.6144683361053467,4.302978515625,-2.99072265625,-1.8463134765625
0.8837499000000001,5.078101634979248,-8.257601737976074,2.6144683361053467,4.364013671875,-3.1890869140625,-1.922607421875
0.8862499,5.063736438751221,-8.257601737976074,2.612074136734009,4.5623779296875,-3.23486328125,-2.1209716796875
0.8887499000000001,5.058948040008545,-8.269572257995605,2.612074136734009,4.4708251953125,-3.3111572265625,-2.3040771484375
0.8912499,5.058948040008545,-8.274360656738281,2.6192567348480225,4.425048828125,-3.3721923828125,-2.3193359375
0.8937499000000001,5.058948040008545,-8.281543731689453,2.626439332962036,4.486083984375,-3.3721923828125,-2.4566650390625
0.8962499,5.063736438751221,-8.283937454223633,2.6408045291900635,4.5623779296875,-3.4942626953125,-2.4261474609375
0.8987499,5.058948040008545,-8.276755332946777,2.6575639247894287,4.4403076171875,-3.4027099609375,-2.2735595703125
0.9012499,5.058948040008545,-8.26239013671875,2.6599581241607666,4.2572021484375,-3.5552978515625,-2.3956298828125
0.9037499,5.051765441894531,-8.245630264282227,2.6623523235321045,4.21142578125,-3.6468505859375,-2.4871826171875
0.9062499,5.049371242523193,-8.226476669311523,2.650381326675415,4.180908203125,-3.8909912109375,-2.3956298828125
0.9087499,5.0469770431518555,-8.209717750549316,2.6360161304473877,4.3182373046875,-3.814697265625,-2.5482177734375
0.9112499000000001,5.049371242523193,-8.190564155578613,2.6192567348480225,4.1961669921875,-3.5552978515625,-2.593994140625
0.9137499,5.051765441894531,-8.17141056060791,2.604891538619995,3.814697265625,-3.7841796875,-2.5177001953125
0.9162499000000001,5.056553840637207,-8.147468566894531,2.5953147411346436,3.692626953125,-3.7994384765625,-2.38037109375
0.9187499,5.058948040008545,-8.125920295715332,2.58813214302063,3.631591796875,-3.8909912109375,-2.471923828125
0.9212499000000001,5.063736438751221,-8.10437297821045,2.5929205417633057,3.387451171875,-3.7841796875,-2.5482177734375
0.9237499,5.073313236236572,-8.087613105773926,2.5953147411346436,3.2958984375,-3.7841796875,-2.5787353515625
0.9262499000000001,5.082890033721924,-8.078036308288574,2.6024973392486572,3.3111572265625,-4.0283203125,-2.38037109375
0.9287499,5.092466831207275,-8.070854187011719,2.607285737991333,3.0975341796875,-3.753662109375,-2.3956298828125
0.9312499000000001,5.099649429321289,-8.070854187011719,2.609679937362671,2.6397705078125,-3.5247802734375,-2.44140625
0.9337499,5.104437828063965,-8.068459510803223,2.607285737991333,2.4871826171875,-3.4637451171875,-2.5482177734375
0.9362499000000001,5.104437828063965,-8.068459510803223,2.6024973392486572,2.3040771484375,-3.448486328125,-2.410888671875
0.9387499,5.104437828063965,-8.061277389526367,2.6001031398773193,2.1820068359375,-3.387451171875,-2.5482177734375
0.9412499000000001,5.102043628692627,-8.054094314575195,2.5977089405059814,2.105712890625,-3.143310546875,-2.716064453125
0.9437499,5.109226226806641,-8.04691219329834,2.5929205417633057,1.9073486328125,-3.2806396484375,-2.6397705078125
0.9462499000000001,5.1116204261779785,-8.039729118347168,2.5929205417633057,1.800537109375,-3.143310546875,-2.5787353515625
0.9487499,5.116408824920654,-8.034940719604492,2.5929205417633057,1.800537109375,-2.8228759765625,-2.655029296875
0.9512499000000001,5.118803024291992,-8.037335395812988,2.5929205417633057,1.5106201171875,-2.5787353515625,-2.5634765625
0.9537499,5.1116204261779785,-8.044517517089844,2.5953147411346436,1.40380859375,-2.6397705078125,-2.4871826171875
0.9562499000000001,5.106832027435303,-8.054094314575195,2.6001031398773193,1.28173828125,-2.7008056640625,-2.7313232421875
0.9587499,5.092466831207275,-8.066065788269043,2.6024973392486572,1.373291015625,-2.6092529296875,-2.777099609375
0.9612499,5.080495834350586,-8.078036308288574,2.612074136734009,1.251220703125,-2.4871826171875,-2.8228759765625
0.9637499,5.0685248374938965,-8.087613105773926,2.628833532333374,1.373291015625,-2.288818359375,-3.082275390625
0.9662499,5.063736438751221,-8.099584579467773,2.6431987285614014,1.46484375,-2.3040771484375,-2.99072265625
0.9687499,5.054159641265869,-8.111555099487305,2.6599581241607666,1.3275146484375,-2.3193359375,-2.838134765625
0.9712499,5.058948040008545,-8.125920295715332,2.6647465229034424,1.6937255859375,-2.227783203125,-2.9296875
0.9737499000000001,5.056553840637207,-8.14028549194336,2.6671407222747803,2.0599365234375,-2.105712890625,-3.0059814453125
0.9762499,5.058948040008545,-8.154650688171387,2.671929121017456,2.2430419921875,-2.0904541015625,-3.021240234375
0.9787499000000001,5.051765441894531,-8.166622161865234,2.671929121017456,2.4566650390625,-2.0294189453125,-3.021240234375
0.9812499,5.04218864440918,-8.178592681884766,2.671929121017456,2.593994140625,-1.953125,-2.9296875
0.9837499000000001,5.03021764755249,-8.180987358093262,2.671929121017456,2.899169921875,-1.8768310546875,-3.082275390625
0.9862499,5.020640850067139,-8.176198959350586,2.6647465229034424,2.9449462890625,-1.89208984375,-3.2196044921875
0.9887499000000001,5.011064052581787,-8.166622161865234,2.655169725418091,3.3416748046875,-1.9073486328125,-3.35693359375
0.9912499,5.006275653839111,-8.154650688171387,2.652775526046753,3.662109375,-1.922607421875,-3.0517578125
0.9937499000000001,5.006275653839111,-8.142680168151855,2.655169725418091,3.7994384765625,-1.8310546875,-3.2958984375
0.9962499,5.003881454467773,-8.135497093200684,2.669534921646118,4.08935546875,-2.1209716796875,-3.326416015625
0.9987499000000001,5.006275653839111,-8.133103370666504,2.6862943172454834,4.4097900390625,-2.044677734375,-3.3721923828125
1.0012499,5.008669853210449,-8.121131896972656,2.7102363109588623,4.486083984375,-2.1514892578125,-3.5858154296875
1.0037498999999999,5.013458251953125,-8.1139497756958,2.7126305103302,4.7149658203125,-2.2430419921875,-3.387451171875
1.0062499,5.015852451324463,-8.101978302001953,2.7126305103302,4.8980712890625,-2.25830078125,-3.96728515625
1.0087499,5.023035049438477,-8.094796180725098,2.715024709701538,4.913330078125,-2.38037109375,-3.7689208984375
1.0112499,5.023035049438477,-8.092401504516602,2.7222073078155518,5.157470703125,-2.410888671875,-3.753662109375
1.0137498999999999,5.027823448181152,-8.090007781982422,2.7246015071868896,5.279541015625,-2.197265625,-3.8299560546875
1.0162499,5.03021764755249,-8.090007781982422,2.736572504043579,5.2947998046875,-2.532958984375,-3.936767578125
1.0187499,5.037400245666504,-8.090007781982422,2.7485435009002686,5.4168701171875,-2.716064453125,-3.8909912109375
1.0212499,5.044582843780518,-8.085219383239746,2.765302896499634,5.2642822265625,-2.685546875,-3.936767578125
1.0237498999999999,5.0469770431518555,-8.085219383239746,2.7892448902130127,5.2947998046875,-2.8533935546875,-3.9215087890625
1.0262498999999998,5.051765441894531,-8.075642585754395,2.801215887069702,5.2947998046875,-2.960205078125,-3.8909912109375
1.0287499,5.066130638122559,-8.073247909545898,2.808398485183716,5.3253173828125,-2.9449462890625,-4.0283203125
1.0312499,5.070919036865234,-8.070854187011719,2.808398485183716,5.4168701171875,-2.99072265625,-4.0283203125
1.0337498999999999,5.0900726318359375,-8.070854187011719,2.80361008644104,5.4779052734375,-3.2501220703125,-4.058837890625
1.0362498999999998,5.102043628692627,-8.070854187011719,2.80361008644104,5.37109375,-3.11279296875,-4.2266845703125
1.0387499,5.1116204261779785,-8.078036308288574,2.801215887069702,5.340576171875,-3.23486328125,-4.150390625
1.0412499,5.12119722366333,-8.085219383239746,2.7988216876983643,5.279541015625,-3.4637451171875,-4.2572021484375
1.0437499,5.128379821777344,-8.092401504516602,2.808398485183716,5.31005859375,-3.692626953125,-4.058837890625
1.0462498999999998,5.1331682205200195,-8.099584579467773,2.8203697204589844,5.157470703125,-3.692626953125,-4.33349609375
1.0487499,5.145139217376709,-8.10437297821045,2.8395233154296875,5.126953125,-3.8909912109375,-4.3487548828125
1.0512499,5.161899089813232,-8.106766700744629,2.846705913543701,5.157470703125,-4.150390625,-4.241943359375
1.0537499,5.183446884155273,-8.106766700744629,2.8443117141723633,5.2947998046875,-4.1656494140625,-4.4708251953125
1.0562498999999999,5.2049946784973145,-8.106766700744629,2.8395233154296875,5.1422119140625,-4.08935546875,-4.4403076171875
1.0587499,5.224148273468018,-8.101978302001953,2.832340717315674,5.1422119140625,-4.608154296875,-4.4403076171875
1.0612499,5.233725070953369,-8.106766700744629,2.8371291160583496,5.18798828125,-4.730224609375,-4.4403076171875
1.0637499,5.2480902671813965,-8.109161376953125,2.846705913543701,5.126953125,-5.06591796875,-4.638671875
1.0662498999999999,5.262455463409424,-8.118738174438477,2.8562827110290527,5.096435546875,-5.18798828125,-4.7760009765625
1.0687499,5.281609058380127,-8.128314971923828,2.87064790725708,4.974365234375,-5.4168701171875,-4.8980712890625
1.0712499,5.305551052093506,-8.13789176940918,2.8826189041137695,5.035400390625,-5.7525634765625,-4.7760009765625
1.0737499,5.331887245178223,-8.149862289428711,2.896984100341797,4.9896240234375,-5.8746337890625,-4.9896240234375
1.0762498999999999,5.365406036376953,-8.159439086914062,2.9041666984558105,4.852294921875,-6.0272216796875,-5.218505859375
1.0787499,5.398924827575684,-8.166622161865234,2.9017724990844727,4.8675537109375,-6.2713623046875,-5.2337646484375
1.0812499,5.430049419403076,-8.161833763122559,2.8993782997131348,4.8980712890625,-6.2255859375,-5.4931640625
1.0837499,5.451597213745117,-8.157045364379883,2.896984100341797,4.7760009765625,-6.5460205078125,-5.55419921875
1.0862498999999999,5.468356609344482,-8.149862289428711,2.9041666984558105,4.8675537109375,-6.9580078125,-5.7830810546875
1.0887499,5.485116004943848,-8.147468566894531,2.9065608978271484,4.730224609375,-6.89697265625,-5.8441162109375
1.0912499,5.499481201171875,-8.152256965637207,2.9161376953125,4.8065185546875,-7.2479248046875,-5.7525634765625
1.0937499,5.518634796142578,-8.157045364379883,2.9257144927978516,4.8675537109375,-7.3089599609375,-5.9814453125
1.0962498999999999,5.544970989227295,-8.169015884399414,2.9328970909118652,4.8370361328125,-7.7667236328125,-6.1492919921875
1.0987498999999998,5.568912982940674,-8.176198959350586,2.9472622871398926,4.94384765625,-8.026123046875,-6.1492919921875
1.1012499,5.5976433753967285,-8.183381080627441,2.9520506858825684,5.1422119140625,-8.2855224609375,-6.1187744140625
1.1037499,5.631162166595459,-8.185775756835938,2.9544448852539062,5.2947998046875,-8.6517333984375,-6.3934326171875
1.1062499,5.66228723526001,-8.190564155578613,2.956839084625244,5.2490234375,-8.8348388671875,-6.6986083984375
1.1087498999999998,5.6910176277160645,-8.192957878112793,2.96162748336792,5.0506591796875,-8.8653564453125,-6.805419921875
1.1112499,5.714959621429443,-8.192957878112793,2.96162748336792,5.1422119140625,-9.2315673828125,-6.6986083984375
1.1137499,5.731719017028809,-8.200140953063965,2.9688100814819336,5.2642822265625,-9.6893310546875,-6.9122314453125
1.1162499,5.743690013885498,-8.20492935180664,2.9759926795959473,5.18798828125,-9.918212890625,-7.26318359375
1.1187498999999999,5.746084213256836,-8.209717750549316,2.980781078338623,5.2490234375,-10.31494140625,-7.2784423828125
1.1212499,5.760449409484863,-8.219294548034668,2.985569477081299,5.1727294921875,-10.711669921875,-7.5225830078125
1.1237499,5.767632007598877,-8.22887134552002,2.9879636764526367,5.2337646484375,-11.1846923828125,-7.6751708984375
1.1262499,5.784391403198242,-8.243236541748047,2.9879636764526367,5.4168701171875,-11.627197265625,-7.9803466796875
1.1287498999999999,5.801150798797607,-8.257601737976074,2.9927520751953125,5.4473876953125,-11.8408203125,-8.4686279296875
1.1312499,5.8203043937683105,-8.274360656738281,2.9951462745666504,5.615234375,-12.1917724609375,-8.7738037109375
1.1337499,5.849034786224365,-8.279149055480957,2.9975404739379883,5.584716796875,-12.603759765625,-8.97216796875
1.1362499,5.880159378051758,-8.283937454223633,2.9951462745666504,5.5389404296875,-12.8021240234375,-9.27734375
1.1387498999999999,5.913678169250488,-8.281543731689453,2.9951462745666504,5.5389404296875,-13.275146484375,-9.765625
1.1412499,5.947196960449219,-8.281543731689453,2.9951462745666504,5.462646484375,-13.85498046875,-10.1776123046875
1.1437499,5.978321552276611,-8.288725852966309,2.9975404739379883,5.6915283203125,-14.434814453125,-10.7269287109375
1.1462499,6.009446144104004,-8.300697326660156,2.999934673309326,5.859375,-14.801025390625,-11.4288330078125
1.1487498999999999,6.042964935302734,-8.31985092163086,3.0119056701660156,5.9814453125,-15.380859375,-11.6424560546875
1.1512499,6.076483726501465,-8.355764389038086,3.028665065765381,6.16455078125,-15.7318115234375,-11.932373046875
1.1537499,6.119579315185547,-8.401253700256348,3.0597896575927734,6.256103515625,-16.326904296875,-12.420654296875
1.1562499,6.1530985832214355,-8.449137687683105,3.090914487838745,6.988525390625,-16.754150390625,-12.87841796875
1.1587498999999999,6.189011573791504,-8.49941635131836,3.1244332790374756,7.1563720703125,-17.02880859375,-13.427734375
1.1612498999999998,6.215347766876221,-8.53293514251709,3.1483752727508545,7.4920654296875,-17.39501953125,-13.641357421875
1.1637499,6.2416839599609375,-8.556877136230469,3.1723172664642334,7.9193115234375,-18.00537109375,-14.2059326171875
1.1662499,6.268020153045654,-8.571242332458496,3.184288263320923,8.23974609375,-18.341064453125,-14.83154296875
1.1687499,6.296750545501709,-8.573636054992676,3.1938650608062744,8.9874267578125,-18.829345703125,-15.350341796875
1.1712498999999998,6.339846134185791,-8.576030731201172,3.203441858291626,9.307861328125,-19.4244384765625,-15.9454345703125
1.1737499,6.390124320983887,-8.571242332458496,3.1962592601776123,9.6435546875,-19.8516845703125,-16.754150390625
1.1762499,6.445190906524658,-8.573636054992676,3.2082302570343018,10.162353515625,-20.08056640625,-17.486572265625
1.1787499,6.50025749206543,-8.5903959274292,3.222595453262329,10.2386474609375,-20.721435546875,-18.096923828125
1.1812498999999999,6.540958881378174,-8.621520042419434,3.251325845718384,11.0015869140625,-21.2860107421875,-18.9361572265625
1.1837499,6.5696892738342285,-8.671798706054688,3.2800562381744385,11.993408203125,-22.03369140625,-19.83642578125
1.1862499,6.5912370681762695,-8.734047889709473,3.2992098331451416,12.6953125,-22.369384765625,-20.6451416015625
1.1887499,6.607996463775635,-8.796297073364258,3.315969467163086,13.7939453125,-23.0255126953125,-21.4996337890625
1.1912498999999999,6.624756336212158,-8.853757858276367,3.3255462646484375,14.8773193359375,-23.681640625,-22.15576171875
1.1937499,6.641515731811523,-8.901641845703125,3.3518824577331543,15.6402587890625,-24.3377685546875,-23.3001708984375
1.1962499,6.6630635261535645,-8.942343711853027,3.375824451446533,16.6168212890625,-25.0396728515625,-23.7579345703125
1.1987499,6.694188117980957,-8.980650901794434,3.404554843902588,17.2882080078125,-25.787353515625,-24.6429443359375
1.2012498999999999,6.7277069091796875,-9.011775016784668,3.4308910369873047,18.3258056640625,-26.123046875,-25.4364013671875
1.2037499,6.756437301635742,-9.040505409240723,3.4548330307006836,19.22607421875,-26.6876220703125,-26.18408203125
1.2062499,6.780379295349121,-9.05247688293457,3.4787750244140625,20.2484130859375,-27.2979736328125,-27.191162109375
1.2087499,6.789956092834473,-9.05247688293457,3.5003228187561035,21.3165283203125,-27.8778076171875,-27.984619140625
1.2112498999999999,6.799532890319824,-9.02135181427002,3.5218706130981445,22.979736328125,-28.9306640625,-30.242919921875
1.2137499,6.806715488433838,-9.004592895507812,3.514688014984131,23.6663818359375,-29.510498046875,-31.2042236328125
1.2162499,6.809109687805176,-8.995016098022461,3.512293815612793,24.871826171875,-30.33447265625,-32.3944091796875
1.2187499,6.8162922859191895,-8.987833023071289,3.512293815612793,25.634765625,-31.0211181640625,-33.6761474609375
1.2212498999999999,6.818686485290527,-8.983044624328613,3.507505416870117,26.336669921875,-31.73828125,-34.72900390625
1.2237498999999998,6.818686485290527,-8.971074104309082,3.512293815612793,27.252197265625,-32.4249267578125,-35.797119140625
1.2262499,6.818686485290527,-8.951920509338379,3.5266590118408203,27.8778076171875,-33.0810546875,-36.8194580078125
1.2287499,6.821080684661865,-8.925583839416504,3.533841609954834,28.38134765625,-33.8287353515625,-37.7044677734375
1.2312499,6.830657482147217,-8.889671325683594,3.5410242080688477,28.99169921875,-34.60693359375,-38.7725830078125
1.2337498999999998,6.845022678375244,-8.863334655761719,3.5386300086975098,29.083251953125,-35.125732421875,-40.0390625
1.2362499,6.864176273345947,-8.83699893951416,3.529053211212158,29.0069580078125,-35.70556640625,-41.351318359375
1.2387499,6.878541469573975,-8.81784439086914,3.5242648124694824,29.11376953125,-36.346435546875,-42.327880859375
1.2412499,6.885724067687988,-8.80587387084961,3.5242648124694824,29.2205810546875,-36.8804931640625,-43.3349609375
1.2437498999999999,6.8809356689453125,-8.796297073364258,3.5266590118408203,29.1748046875,-37.4603271484375,-44.3115234375
1.2462499,6.868964672088623,-8.777143478393555,3.533841609954834,29.23583984375,-38.26904296875,-45.1812744140625
1.2487499,6.8593878746032715,-8.75080680847168,3.5410242080688477,29.052734375,-38.8336181640625,-46.051025390625
1.2512499,6.845022678375244,-8.710105895996094,3.5458126068115234,28.8543701171875,-39.1082763671875,-47.0123291015625
1.2537498999999999,6.842628479003906,-8.65743350982666,3.552995204925537,28.62548828125,-39.8406982421875,-47.5921630859375
1.2562499,6.842628479003906,-8.59997272491455,3.5625722408294678,27.9083251953125,-40.496826171875,-48.5382080078125
1.2587499,6.828263282775879,-8.53293514251709,3.5625722408294678,27.5421142578125,-40.863037109375,-49.3316650390625
1.2612499,6.823474884033203,-8.47547435760498,3.5673606395721436,26.580810546875,-41.229248046875,-50.1861572265625
1.2637498999999999,6.809109687805176,-8.42040729522705,3.56017804145813,25.69580078125,-41.412353515625,-51.08642578125
1.2662499,6.797138690948486,-8.365341186523438,3.5386300086975098,25.4974365234375,-41.80908203125,-51.849365234375
1.2687499,6.785167694091797,-8.303091049194336,3.5194764137268066,24.7344970703125,-42.2210693359375,-52.55126953125
1.2712499,6.773196697235107,-8.236053466796875,3.4835634231567383,23.9715576171875,-42.3736572265625,-53.3294677734375
1.2737498999999999,6.744466304779053,-8.142680168151855,3.450044631958008,22.88818359375,-42.7703857421875,-54.168701171875
1.2762499,6.715735912322998,-8.039729118347168,3.4093432426452637,21.7437744140625,-43.27392578125,-54.962158203125
1.2787499,6.687005519866943,-7.951143741607666,3.378218650817871,20.1416015625,-43.792724609375,-55.877685546875
1.2812499,6.670246124267578,-7.872135162353516,3.3423056602478027,19.22607421875,-44.3267822265625,-56.5948486328125
1.2837498999999999,6.665457725524902,-7.845798969268799,3.318363666534424,18.280029296875,-44.7998046875,-57.1136474609375
1.2862498999999998,6.670246124267578,-7.838616371154785,3.2968156337738037,17.120361328125,-45.1507568359375,-57.9376220703125
1.2887499,6.677428722381592,-7.8529815673828125,3.2776620388031006,16.448974609375,-45.2423095703125,-58.8531494140625
1.2912499,6.682217121124268,-7.850587368011475,3.2609026432037354,15.777587890625,-45.623779296875,-59.26513671875
1.2937499,6.672640323638916,-7.826645374298096,3.24414324760437,14.8468017578125,-46.0052490234375,-59.906005859375
1.2962498999999998,6.665457725524902,-7.7883381843566895,3.224989652633667,13.9007568359375,-46.3714599609375,-60.6536865234375
1.2987499,6.653486728668213,-7.740454196929932,3.2130186557769775,12.8173828125,-46.4324951171875,-61.2030029296875
1.3012499,6.646304130554199,-7.704541206359863,3.201047658920288,11.871337890625,-46.7071533203125,-61.8438720703125
1.3037499,6.6391215324401855,-7.690176010131836,3.201047658920288,11.16943359375,-47.0123291015625,-62.347412109375
1.3062498999999999,6.631938934326172,-7.69735860824585,3.19865345954895,10.8184814453125,-47.1038818359375,-63.0035400390625
1.3087499,6.617573261260986,-7.709329605102539,3.1938650608062744,10.4827880859375,-47.05810546875,-63.385009765625
1.3112499,6.5912370681762695,-7.718906402587891,3.1866824626922607,9.8724365234375,-47.393798828125,-63.5986328125
1.3137499,6.555324077606201,-7.711723804473877,3.1699230670928955,9.5367431640625,-47.6226806640625,-63.751220703125
1.3162498999999999,6.514622688293457,-7.692570209503174,3.157952070236206,8.9874267578125,-47.8973388671875,-64.1632080078125
1.3187499,6.481103897094727,-7.65186882019043,3.1316158771514893,8.7127685546875,-47.8363037109375,-64.3463134765625
1.3212499,6.457161903381348,-7.608773231506348,3.1028854846954346,8.7432861328125,-47.79052734375,-64.4683837890625
1.3237499,6.45476770401001,-7.565677165985107,3.07415509223938,8.544921875,-47.7294921875,-65.00244140625
1.3262498999999999,6.464344501495361,-7.5201873779296875,3.0406360626220703,8.453369140625,-47.7447509765625,-65.032958984375
1.3287499,6.476315498352051,-7.467514991760254,3.00711727142334,8.0718994140625,-47.698974609375,-65.216064453125
1.3312499,6.490680694580078,-7.412448406219482,2.9712042808532715,7.904052734375,-47.6226806640625,-65.093994140625
1.3337499,6.50025749206543,-7.340622425079346,2.9328970909118652,7.843017578125,-47.7142333984375,-65.2923583984375
1.3362498999999999,6.502651691436768,-7.271190643310547,2.8993782997131348,7.3394775390625,-48.095703125,-65.61279296875
1.3387499,6.502651691436768,-7.208941459655762,2.8658595085144043,7.232666015625,-48.0499267578125,-65.399169921875
1.3412499,6.497863292694092,-7.16584587097168,2.8395233154296875,7.1868896484375,-47.79052734375,-65.3076171875
1.3437499,6.493074893951416,-7.146692276000977,2.8155810832977295,7.6446533203125,-47.66845703125,-65.460205078125
1.3462498999999999,6.476315498352051,-7.129932880401611,2.7988216876983643,8.026123046875,-47.760009765625,-65.5670166015625
1.3487498999999998,6.452373504638672,-7.110779285430908,2.779668092727661,7.9803466796875,-47.8363037109375,-65.521240234375
1.3512499,6.418854713439941,-7.084442615509033,2.760514497756958,8.2244873046875,-47.515869140625,-65.5059814453125
1.3537499,6.375759124755859,-7.041347026824951,2.7269957065582275,8.331298828125,-47.271728515625,-65.3228759765625
1.3562499,6.327875137329102,-6.9910688400268555,2.691082715988159,8.36181640625,-47.3480224609375,-65.24658203125
1.3587498999999998,6.294356346130371,-6.94079065322876,2.6599581241607666,8.1787109375,-47.4700927734375,-65.032958984375
1.3612499,6.265625953674316,-6.892906665802002,2.612074136734009,7.9498291015625,-47.027587890625,-64.788818359375
1.3637499,6.253654956817627,-6.854599475860596,2.5761611461639404,8.0718994140625,-46.8902587890625,-64.849853515625
1.3662499,6.260837554931641,-6.830657482147217,2.5330653190612793,8.4075927734375,-46.7529296875,-64.605712890625
1.3687498999999999,6.260837554931641,-6.806715488433838,2.4875755310058594,8.514404296875,-46.4324951171875,-64.056396484375
1.3712499,6.258443355560303,-6.763619899749756,2.454056739807129,8.9111328125,-46.2493896484375,-63.9190673828125
1.3737499,6.2416839599609375,-6.710947513580322,2.408566951751709,8.941650390625,-46.295166015625,-63.90380859375
1.3762499,6.222530364990234,-6.63433313369751,2.3702597618103027,8.5906982421875,-46.0968017578125,-63.446044921875
1.3787498999999999,6.200982570648193,-6.557718276977539,2.3295583724975586,8.2550048828125,-45.806884765625,-63.1256103515625
1.3812499,6.19379997253418,-6.481103897094727,2.298433542251587,8.2244873046875,-45.5474853515625,-62.7899169921875
1.3837499,6.184223175048828,-6.421248912811279,2.2673089504241943,7.9803466796875,-45.34912109375,-62.6373291015625
1.3862499,6.18182897567749,-6.3733649253845215,2.2385785579681396,7.7667236328125,-45.074462890625,-62.43896484375
1.3887498999999999,6.167463779449463,-6.349422931671143,2.2146365642547607,8.0108642578125,-44.6319580078125,-62.225341796875
1.3912499,6.1530985832214355,-6.332663536071777,2.185906171798706,8.0413818359375,-44.5709228515625,-61.82861328125
1.3937499,6.1267619132995605,-6.315904140472412,2.161964178085327,8.056640625,-44.2047119140625,-61.492919921875
1.3962499,6.102819919586182,-6.289567947387695,2.140416383743286,7.8582763671875,-44.00634765625,-61.2030029296875
1.3987498999999999,6.076483726501465,-6.246472358703613,2.123656988143921,7.87353515625,-43.9300537109375,-60.821533203125
1.4012499,6.057330131530762,-6.191405773162842,2.10210919380188,7.5225830078125,-43.7164306640625,-60.1806640625
1.4037499,6.035782337188721,-6.145915985107422,2.0901381969451904,7.3394775390625,-43.304443359375,-59.87548828125
1.4062499,6.021417140960693,-6.114790916442871,2.0661959648132324,7.3089599609375,-42.9229736328125,-59.26513671875
1.4087498999999999,5.995080947875977,-6.086060523986816,2.0446481704711914,7.080078125,-42.388916015625,-58.624267578125
1.4112498999999998,5.966350555419922,-6.0621185302734375,2.0254945755004883,6.8359375,-42.17529296875,-58.0596923828125
1.4137499,5.937620162963867,-6.030993938446045,2.0039467811584473,6.40869140625,-41.6412353515625,-57.3577880859375
1.4162499,5.916072368621826,-5.995080947875977,1.9847931861877441,6.103515625,-41.1834716796875,-56.57958984375
1.4187499,5.9088897705078125,-5.96874475479126,1.9728221893310547,6.134033203125,-40.9088134765625,-55.9234619140625
1.4212498999999998,5.940014362335205,-5.9088897705078125,1.9488801956176758,5.5694580078125,-39.581298828125,-54.5501708984375
1.4237499,5.971138954162598,-5.872976779937744,1.946485996246338,5.1116943359375,-38.8031005859375,-53.7261962890625
1.4262499,6.00226354598999,-5.825092792510986,1.941697597503662,4.852294921875,-38.1011962890625,-53.0853271484375
1.4287499,6.028599739074707,-5.774814605712891,1.9369091987609863,4.69970703125,-37.59765625,-52.3223876953125
1.4312498999999999,6.042964935302734,-5.724536418914795,1.9249382019042969,4.302978515625,-36.834716796875,-51.483154296875
1.4337499,6.04775333404541,-5.664681434631348,1.9129672050476074,3.936767578125,-36.102294921875,-50.6591796875
1.4362499,6.042964935302734,-5.612008571624756,1.9033904075622559,3.3721923828125,-35.5682373046875,-49.62158203125
1.4387499,6.038176536560059,-5.56173038482666,1.8962076902389526,2.777099609375,-34.7747802734375,-48.76708984375
1.4412498999999999,6.030993938446045,-5.521028995513916,1.8962076902389526,2.4261474609375,-33.87451171875,-47.9888916015625
1.4437499,6.026205539703369,-5.494692802429199,1.8962076902389526,2.0294189453125,-33.02001953125,-47.0733642578125
1.4462499,6.016628742218018,-5.477933406829834,1.8938134908676147,1.708984375,-32.16552734375,-46.051025390625
1.4487499,5.999869346618652,-5.453991413116455,1.8842366933822632,1.2969970703125,-31.4178466796875,-45.2728271484375
1.4512498999999999,5.980715751647949,-5.430049419403076,1.8698714971542358,0.91552734375,-30.45654296875,-44.1131591796875
1.4537499,5.9519853591918945,-5.408501625061035,1.8507179021835327,0.5340576171875,-29.5562744140625,-43.0908203125
1.4562499,5.925649166107178,-5.386953830718994,1.8267759084701538,0.3662109375,-28.5797119140625,-42.17529296875
1.4587499,5.896918773651123,-5.382165431976318,1.8052281141281128,-0.0457763671875,-27.6641845703125,-40.740966796875
1.4612498999999999,5.872976779937744,-5.382165431976318,1.7908629179000854,-0.2288818359375,-26.8096923828125,-39.61181640625
1.4637499,5.841852188110352,-5.386953830718994,1.778891921043396,-0.640869140625,-25.87890625,-38.4368896484375
1.4662499,5.813121795654297,-5.384559631347656,1.7597382068634033,-0.9765625,-24.7955322265625,-37.1551513671875
1.4687499,5.779603004455566,-5.374982833862305,1.7334020137786865,-1.007080078125,-23.895263671875,-35.6292724609375
1.4712498999999999,5.74129581451416,-5.348646640777588,1.6974890232086182,-1.312255859375,-22.8424072265625,-34.3780517578125
1.4737498999999998,5.700594425201416,-5.310339450836182,1.6519991159439087,-1.64794921875,-21.881103515625,-33.1878662109375
1.4762499,5.652710437774658,-5.25527286529541,1.5969325304031372,-1.983642578125,-20.81298828125,-31.982421875
1.4787499,5.612008571624756,-5.197812080383301,1.5394717454910278,-2.2430419921875,-19.8211669921875,-30.6243896484375
1.4812499,5.568912982940674,-5.137956619262695,1.479616641998291,-2.62451171875,-18.829345703125,-29.60205078125
1.4837498999999998,5.537788391113281,-5.0876784324646,1.4293384552001953,-3.23486328125,-17.9290771484375,-28.3203125
1.4862499,5.506663799285889,-5.037400245666504,1.3934253454208374,-3.6468505859375,-16.998291015625,-27.03857421875
1.4887499,5.485116004943848,-4.99669885635376,1.3623007535934448,-4.3182373046875,-16.17431640625,-25.4058837890625
1.4912499,5.47075080871582,-4.955997467041016,1.338358759880066,-5.06591796875,-15.3045654296875,-24.261474609375
1.4937498999999999,5.458779811859131,-4.922478675842285,1.3120225667953491,-5.340576171875,-13.916015625,-23.223876953125
1.4962499,5.446808815002441,-4.888959884643555,1.280897855758667,-5.9814453125,-12.908935546875,-21.636962890625
1.4987499,5.432443618774414,-4.8602294921875,1.2545616626739502,-6.8817138671875,-11.7034912109375,-20.477294921875
1.5012499,5.410895824432373,-4.821922302246094,1.2258312702178955,-7.659912109375,-10.7421875,-19.1497802734375
1.5037498999999999,5.3797712326049805,-4.7836151123046875,1.2018892765045166,-8.270263671875,-9.521484375,-17.578125
1.5062499,5.341464042663574,-4.738125324249268,1.1683704853057861,-9.1705322265625,-8.3465576171875,-16.1590576171875
1.5087499,5.298368453979492,-4.6950297355651855,1.137245774269104,-10.07080078125,-7.26318359375,-15.13671875
1.5112499,5.250484466552734,-4.654327869415283,1.0965443849563599,-10.92529296875,-6.2255859375,-13.580322265625
1.5137498999999999,5.207388877868652,-4.618414878845215,1.0534487962722778,-11.7645263671875,-5.218505859375,-12.02392578125
1.5162499,5.169081687927246,-4.592078685760498,1.0079588890075684,-12.664794921875,-4.0283203125,-10.8489990234375
1.5187499,5.142745018005371,-4.575319290161133,0.9720458984375,-13.36669921875,-3.0517578125,-9.3994140625
1.5212499,5.123591423034668,-4.570530891418457,0.9361328482627869,-13.9923095703125,-1.8310546875,-7.99560546875
1.5237498999999999,5.109226226806641,-4.572925090789795,0.9169792532920837,-14.678955078125,-1.068115234375,-6.53076171875
1.5262499,5.106832027435303,-4.58968448638916,0.9002198576927185,-15.6707763671875,0.0762939453125,-5.0811767578125
1.5287499,5.109226226806641,-4.613626480102539,0.8858546018600464,-16.0369873046875,1.28173828125,-3.47900390625
1.5312499,5.12119722366333,-4.6471452713012695,0.8762778043746948,-16.4642333984375,2.3956298828125,-2.166748046875
1.5337498999999999,5.137956619262695,-4.6950297355651855,0.8643068075180054,-16.7083740234375,3.173828125,-0.274658203125
1.5362499,5.149928092956543,-4.745307922363281,0.8523358106613159,-16.754150390625,4.5166015625,1.007080078125
1.5387499,5.157110691070557,-4.797980308532715,0.8379706144332886,-16.7999267578125,5.3253173828125,2.6092529296875
1.5412499,5.1595048904418945,-4.836287498474121,0.8259995579719543,-16.6168212890625,6.3323974609375,4.3792724609375
1.5437499,5.157110691070557,-4.853046894073486,0.8140285611152649,-16.387939453125,7.2784423828125,5.7373046875
1.5462498999999998,5.152322292327881,-4.857835292816162,0.8092401623725891,-16.41845703125,8.392333984375,7.2021484375
1.5487499,5.142745018005371,-4.8602294921875,0.7924807667732239,-16.29638671875,9.1705322265625,8.7127685546875
1.5512499,5.140350818634033,-4.891354084014893,0.7781155705451965,-16.05224609375,10.1470947265625,10.284423828125
1.5537499,5.128379821777344,-4.95120906829834,0.7613561153411865,-15.5487060546875,10.6353759765625,12.0697021484375
1.5562498999999999,5.128379821777344,-5.0469770431518555,0.7541735172271729,-14.5111083984375,11.199951171875,13.5955810546875
1.5587499,5.130774021148682,-5.166687488555908,0.7589619159698486,-13.5650634765625,12.20703125,15.1824951171875
1.5612499,5.142745018005371,-5.288791656494141,0.7757213711738586,-12.3748779296875,12.5732421875,16.9677734375
1.5637499,5.154716491699219,-5.389348030090332,0.7948749661445618,-11.2152099609375,13.5345458984375,18.61572265625
1.5662498999999999,5.171475887298584,-5.473145008087158,0.8164227604866028,-10.1318359375,14.3280029296875,20.2484130859375
1.5687499,5.169081687927246,-5.530605792999268,0.8212111592292786,-9.246826171875,14.7857666015625,22.1405029296875
1.5712499,5.16429328918457,-5.57370138168335,0.8188169598579407,-8.270263671875,15.167236328125,23.590087890625
1.5737499,5.157110691070557,-5.621585369110107,0.7972691655158997,-7.2021484375,15.6402587890625,25.2227783203125
1.5762498999999999,5.152322292327881,-5.669469833374023,0.7781155705451965,-5.8746337890625,16.17431640625,26.7181396484375
1.5787499,5.147533416748047,-5.724536418914795,0.7398083209991455,-4.2724609375,16.6168212890625,28.1219482421875
1.5812499,5.142745018005371,-5.784391403198242,0.706289529800415,-3.0364990234375,16.845703125,29.3731689453125
1.5837499,5.1331682205200195,-5.834669589996338,0.667982280254364,-1.6632080078125,16.876220703125,30.8685302734375
1.5862498999999999,5.12119722366333,-5.8873419761657715,0.629675030708313,-0.1678466796875,16.998291015625,32.257080078125
1.5887499,5.106832027435303,-5.940014362335205,0.6009446382522583,1.0223388671875,17.242431640625,33.4320068359375
1.5912499,5.102043628692627,-5.990292549133301,0.5793967843055725,2.4871826171875,17.2576904296875,34.60693359375
1.5937499,5.109226226806641,-6.050147533416748,0.5578489899635315,3.9825439453125,17.1356201171875,35.7666015625
1.5962498999999999,5.1331682205200195,-6.102819919586182,0.5506663918495178,5.3253173828125,17.1661376953125,37.017822265625
1.5987499,5.171475887298584,-6.157886981964111,0.5339069962501526,6.4849853515625,17.059326171875,37.8265380859375
1.6012499,5.22175407409668,-6.203376770019531,0.5315127968788147,7.5531005859375,16.9525146484375,38.543701171875
1.6037499,5.281609058380127,-6.246472358703613,0.5267243981361389,8.9111328125,16.6015625,39.4744873046875
1.6062499,5.351040840148926,-6.2847795486450195,0.5195417404174805,9.8419189453125,16.3726806640625,40.46630859375
1.6087498999999998,5.415684223175049,-6.31829833984375,0.5267243981361389,10.833740234375,16.4031982421875,40.8782958984375
1.6112499,5.492298603057861,-6.366182327270508,0.5315127968788147,11.444091796875,16.1590576171875,41.351318359375
1.6137499,5.568912982940674,-6.404489517211914,0.5339069962501526,12.1612548828125,15.5029296875,42.1905517578125
1.6162499,5.657498836517334,-6.457161903381348,0.5434837937355042,12.9241943359375,15.13671875,42.7093505859375
1.6187498999999999,5.75326681137085,-6.509834289550781,0.5434837937355042,13.5650634765625,15.0146484375,42.9840087890625
1.6212499,5.851428985595703,-6.562506675720215,0.5482721924781799,14.007568359375,14.58740234375,43.5943603515625
1.6237499,5.940014362335205,-6.619967937469482,0.5554547905921936,14.2974853515625,14.251708984375,43.9910888671875
1.6262499,6.016628742218018,-6.675034523010254,0.5674257874488831,14.5721435546875,13.97705078125,43.9910888671875
1.6287498999999999,6.150704383850098,-6.801927089691162,0.6057330369949341,14.7705078125,13.031005859375,44.6929931640625
1.6312499,6.212953567504883,-6.876147270202637,0.6177040338516235,14.9078369140625,12.6953125,44.5556640625
1.6337499,6.277596950531006,-6.959944248199463,0.629675030708313,15.0299072265625,12.1917724609375,44.677734375
1.6362499,6.339846134185791,-7.046135425567627,0.6248866319656372,14.7705078125,11.8560791015625,44.61669921875
1.6387498999999999,6.3949127197265625,-7.12035608291626,0.6129156351089478,14.4500732421875,11.1236572265625,44.4488525390625
1.6412499,6.461950302124023,-7.19936466217041,0.5985504388809204,14.2059326171875,10.589599609375,44.1131591796875
1.6437499,6.543353080749512,-7.2783732414245605,0.5770025849342346,14.2059326171875,9.8876953125,44.342041015625
1.6462499,6.636727333068848,-7.350199222564697,0.5578489899635315,14.0838623046875,9.552001953125,43.9300537109375
1.6487498999999999,6.742072105407715,-7.4100542068481445,0.545877993106842,13.61083984375,8.880615234375,43.39599609375
1.6512499,6.842628479003906,-7.465120792388916,0.5482721924781799,13.031005859375,8.087158203125,43.0755615234375
1.6537499,6.94079065322876,-7.513004779815674,0.5626373887062073,12.481689453125,7.4615478515625,42.4957275390625
1.6562499,7.0317702293396,-7.565677165985107,0.5937620401382446,12.1002197265625,6.805419921875,41.8701171875
1.6587498999999999,7.122750282287598,-7.6351094245910645,0.6272808313369751,11.5814208984375,5.79833984375,41.229248046875
1.6612499,7.225700855255127,-7.704541206359863,0.6560112833976746,10.894775390625,4.94384765625,40.46630859375
1.6637499,7.331045627593994,-7.769184589385986,0.6799532771110535,10.6201171875,3.936767578125,39.6881103515625
1.6662499,7.4555439949035645,-7.838616371154785,0.7015010714530945,9.674072265625,3.3111572265625,38.818359375
1.6687499,7.580042362213135,-7.910442352294922,0.7230489253997803,9.1094970703125,2.716064453125,37.9486083984375
1.6712498999999998,7.704541206359863,-7.99184513092041,0.7493851184844971,8.7890625,2.01416015625,36.956787109375
1.6737499,7.826645374298096,-8.08282470703125,0.7757213711738586,8.575439453125,0.823974609375,36.1175537109375
1.6762499,7.939172744750977,-8.17141056060791,0.8044517636299133,8.514404296875,0,35.1104736328125
1.6787499,8.039729118347168,-8.248024940490723,0.8331822156906128,8.3465576171875,-0.885009765625,34.1949462890625
1.6812498999999999,8.142680168151855,-8.305485725402832,0.8547300100326538,8.1024169921875,-1.7547607421875,33.233642578125
1.6837499,8.236053466796875,-8.343792915344238,0.871489405632019,7.6904296875,-2.685546875,31.9671630859375
1.6862499,8.339004516601562,-8.367734909057617,0.8834604024887085,7.659912109375,-3.4942626953125,30.8074951171875
1.6887499,8.439560890197754,-8.394071578979492,0.8906430602073669,7.476806640625,-4.486083984375,29.693603515625
1.6912498999999999,8.552088737487793,-8.425195693969727,0.8978256583213806,7.4005126953125,-5.43212890625,28.594970703125
1.6937499,8.65743350982666,-8.473079681396484,0.9097966551780701,7.6751708984375,-6.256103515625,27.374267578125
1.6962499,8.767566680908203,-8.523358345031738,0.9145850539207458,7.7667236328125,-6.9580078125,25.9246826171875
1.6987499,8.880094528198242,-8.573636054992676,0.9193734526634216,8.2550048828125,-8.056640625,24.7650146484375
1.7012498999999999,8.98543930053711,-8.619126319885254,0.9217676520347595,8.36181640625,-8.9263916015625,23.6358642578125
1.7037499,9.090784072875977,-8.643068313598633,0.9193734526634216,8.270263671875,-9.490966796875,22.1099853515625
1.7062499,9.184157371520996,-8.65743350982666,0.9313444495201111,8.6517333984375,-10.467529296875,20.6451416015625
1.7087499,9.265560150146484,-8.655038833618164,0.9457096457481384,8.9263916015625,-11.566162109375,19.4091796875
1.7112498999999999,9.332598686218262,-8.650250434875488,0.9624691009521484,9.063720703125,-12.2833251953125,17.852783203125
1.7137499,9.397241592407227,-8.650250434875488,0.9792284965515137,9.1705322265625,-13.214111328125,16.17431640625
1.7162499,9.461885452270508,-8.664615631103516,0.9911994934082031,9.7198486328125,-14.251708984375,14.95361328125
1.7187499,9.531316757202148,-8.69334602355957,1.0055646896362305,10.4522705078125,-14.9993896484375,13.4124755859375
1.7212498999999999,9.603142738342285,-8.724471092224121,1.01753568649292,10.772705078125,-15.7928466796875,11.7034912109375
1.7237499,9.674968719482422,-8.753201484680176,1.0342950820922852,11.322021484375,-16.815185546875,10.1470947265625
1.7262499,9.746794700622559,-8.777143478393555,1.0414776802062988,12.20703125,-17.63916015625,8.697509765625
1.7287499,9.813833236694336,-8.78432559967041,1.039083480834961,12.908935546875,-18.5546875,7.2174072265625
1.7312499,9.876082420349121,-8.78193187713623,1.036689281463623,13.5345458984375,-19.256591796875,5.5694580078125
1.7337498999999998,9.940725326538086,-8.760383605957031,1.036689281463623,13.9312744140625,-20.263671875,4.1046142578125
1.7362499,10.005369186401367,-8.729259490966797,1.0414776802062988,14.617919921875,-21.148681640625,2.62451171875
1.7387499,10.08198356628418,-8.698134422302246,1.0606313943862915,15.1824951171875,-21.636962890625,1.251220703125
1.7412499,10.160991668701172,-8.662221908569336,1.072602391242981,15.716552734375,-22.3846435546875,-0.2593994140625
1.7437498999999999,10.225635528564453,-8.621520042419434,1.0893617868423462,16.3726806640625,-23.01025390625,-1.9378662109375
1.7462499,10.278307914733887,-8.573636054992676,1.0989385843276978,16.5863037109375,-23.590087890625,-3.5400390625
1.7487499,10.314221382141113,-8.523358345031738,1.1109095811843872,16.9830322265625,-24.3072509765625,-5.1116943359375
1.7512499,10.333374977111816,-8.458714485168457,1.115697979927063,17.63916015625,-24.7039794921875,-6.378173828125
1.7537498999999999,10.345345497131348,-8.40843677520752,1.1300631761550903,17.7154541015625,-25.08544921875,-8.087158203125
1.7562499,10.350133895874023,-8.346187591552734,1.1468225717544556,17.852783203125,-25.8941650390625,-9.7503662109375
1.7587499,10.350133895874023,-8.29590892791748,1.1755530834197998,18.00537109375,-26.3824462890625,-11.474609375
1.7612499,10.350133895874023,-8.252813339233398,1.2066776752471924,18.341064453125,-26.6876220703125,-13.0767822265625
1.7637498999999999,10.342951774597168,-8.219294548034668,1.2473790645599365,18.707275390625,-26.8402099609375,-14.495849609375
1.7662499,10.321403503417969,-8.188169479370117,1.2761094570159912,19.1650390625,-27.28271484375,-16.082763671875
1.7687499,10.285490036010742,-8.157045364379883,1.3072341680526733,19.561767578125,-28.1219482421875,-17.578125
1.7712499,10.244789123535156,-8.109161376953125,1.314416766166687,19.6685791015625,-28.533935546875,-19.0582275390625
1.7737498999999999,10.194510459899902,-8.04691219329834,1.3239935636520386,20.3857421875,-28.7017822265625,-20.56884765625
1.7762499,10.153809547424316,-7.977479934692383,1.3239935636520386,20.20263671875,-29.1900634765625,-22.03369140625
1.7787499,10.108319282531738,-7.8960771560668945,1.3239935636520386,20.1416015625,-29.815673828125,-23.345947265625
1.7812499,10.062829971313477,-7.836222171783447,1.3287819623947144,20.263671875,-30.1971435546875,-24.4903564453125
1.7837498999999999,10.014945983886719,-7.795520782470703,1.3335703611373901,20.4315185546875,-30.5633544921875,-25.848388671875
1.7862499,9.955090522766113,-7.769184589385986,1.3479355573654175,20.782470703125,-30.9906005859375,-27.2674560546875
1.7887499,9.892841339111328,-7.754819393157959,1.3646949529647827,20.99609375,-31.7840576171875,-28.6102294921875
1.7912499,9.835380554199219,-7.7428483963012695,1.3886369466781616,21.270751953125,-32.16552734375,-29.5562744140625
1.7937499,9.768342971801758,-7.716512203216553,1.4221558570861816,21.5606689453125,-32.3333740234375,-30.3802490234375
1.7962498999999998,9.713275909423828,-7.692570209503174,1.4484920501708984,21.3165283203125,-32.5469970703125,-31.5093994140625
1.7987499,9.646238327026367,-7.647080421447754,1.4867992401123047,21.6522216796875,-33.050537109375,-32.318115234375
1.8012499,9.583989143371582,-7.603984832763672,1.5155296325683594,21.759033203125,-33.4014892578125,-33.14208984375
1.8037499,9.519346237182617,-7.548917770385742,1.5466543436050415,21.9268798828125,-33.782958984375,-33.935546875
1.8062498999999999,9.466673851013184,-7.501033782958984,1.577778935432434,22.1099853515625,-33.99658203125,-34.7900390625
1.8087499,9.409213066101074,-7.445967197418213,1.6184803247451782,22.430419921875,-33.9813232421875,-35.3546142578125
1.8112499,9.366117477416992,-7.393294811248779,1.659181833267212,22.5982666015625,-34.1644287109375,-36.163330078125
1.8137499,9.308655738830566,-7.33583402633667,1.702277421951294,22.6898193359375,-34.393310546875,-37.0635986328125
1.8162498999999999,9.260771751403809,-7.271190643310547,1.7310078144073486,22.9034423828125,-34.72900390625,-37.353515625
1.8187499,9.198522567749023,-7.196970462799072,1.7501614093780518,22.552490234375,-34.881591796875,-38.0706787109375
1.8212499,9.14345645904541,-7.139509677886963,1.7621324062347412,22.76611328125,-34.759521484375,-38.7725830078125
1.8237499,9.066842079162598,-7.0557122230529785,1.7597382068634033,23.0255126953125,-34.9884033203125,-39.2303466796875
1.8262498999999999,8.98543930053711,-6.995857238769531,1.7764976024627686,22.9644775390625,-35.186767578125,-39.5660400390625
1.8287499,8.884882926940918,-6.9240312576293945,1.7836803197860718,22.9644775390625,-35.3851318359375,-40.2679443359375
1.8312499,8.78432559967041,-6.842628479003906,1.7980455160140991,23.193359375,-35.3240966796875,-40.802001953125
1.8337499,8.688557624816895,-6.775590896606445,1.8124107122421265,22.64404296875,-35.3240966796875,-41.44287109375
1.8362498999999999,8.60236644744873,-6.698976516723633,1.8291701078414917,22.613525390625,-35.4766845703125,-41.961669921875
1.8387499,8.516175270080566,-6.615179061889648,1.8315643072128296,22.6898193359375,-35.70556640625,-42.510986328125
1.8412499,8.382100105285645,-6.461950302124023,1.8507179021835327,22.52197265625,-35.919189453125,-43.5791015625
1.8437499,8.334216117858887,-6.382941722869873,1.8746598958969116,22.4761962890625,-35.9039306640625,-44.0826416015625
1.8462498999999999,8.288725852966309,-6.311115741729736,1.8914192914962769,22.15576171875,-35.9039306640625,-44.708251953125
1.8487499,8.245630264282227,-6.244078159332275,1.922544002532959,22.3541259765625,-35.6903076171875,-45.3643798828125
1.8512499,8.192957878112793,-6.18182897567749,1.9512743949890137,22.4456787109375,-35.6903076171875,-45.7916259765625
1.8537499,8.142680168151855,-6.133944988250732,1.9967641830444336,22.308349609375,-35.797119140625,-46.173095703125
1.8562499,8.08282470703125,-6.086060523986816,2.0446481704711914,22.2625732421875,-35.46142578125,-46.4935302734375
1.8587498999999998,8.02536392211914,-6.050147533416748,2.10210919380188,22.369384765625,-35.369873046875,-46.7529296875
1.8612499,7.970297336578369,-6.009446144104004,2.1547815799713135,22.2320556640625,-35.0494384765625,-47.119140625
1.8637499,7.9176249504089355,-5.966350555419922,2.212242364883423,22.5982666015625,-34.5306396484375,-47.3480224609375
1.8662499,7.85537576675415,-5.899312973022461,2.2601263523101807,22.613525390625,-34.0728759765625,-47.7142333984375
1.8687498999999999,7.8098859786987305,-5.841852188110352,2.319981336593628,22.2930908203125,-33.75244140625,-47.9278564453125
1.8712499,7.754819393157959,-5.767632007598877,2.3798365592956543,22.308349609375,-33.203125,-48.15673828125
1.8737499,7.711723804473877,-5.7125654220581055,2.4372973442077637,22.4761962890625,-32.4249267578125,-48.1719970703125
1.8762499,7.673416614532471,-5.676652431488037,2.5019407272338867,22.2015380859375,-31.8756103515625,-48.2330322265625
1.8787498999999999,7.615955829620361,-5.616796970367432,2.5498247146606445,22.3236083984375,-31.31103515625,-48.27880859375
1.8812499,7.560888767242432,-5.580883979797363,2.5953147411346436,22.186279296875,-30.548095703125,-48.492431640625
1.8837499,7.496245384216309,-5.521028995513916,2.63362193107605,22.03369140625,-29.8919677734375,-48.40087890625
1.8862499,7.422025203704834,-5.4659624099731445,2.6671407222747803,21.97265625,-29.23583984375,-48.3245849609375
1.8887498999999999,7.347805023193359,-5.4252610206604,2.7078421115875244,21.8048095703125,-28.4881591796875,-48.15673828125
1.8912499,7.268796443939209,-5.384559631347656,2.7461493015289307,21.4996337890625,-27.6947021484375,-47.9583740234375
1.8937499,7.187393665313721,-5.3582234382629395,2.7772738933563232,21.453857421875,-26.8707275390625,-47.882080078125
1.8962499,7.108384609222412,-5.339069843292236,2.808398485183716,21.514892578125,-26.18408203125,-47.637939453125
1.8987498999999999,7.024587631225586,-5.317522048950195,2.832340717315674,21.6217041015625,-25.4669189453125,-47.4853515625
1.9012499,6.959944248199463,-5.307945251464844,2.868253707885742,21.30126953125,-24.688720703125,-47.271728515625
1.9037499,6.88332986831665,-5.281609058380127,2.9065608978271484,21.331787109375,-23.8494873046875,-46.6766357421875
1.9062499,6.828263282775879,-5.2672438621521,2.9520506858825684,21.392822265625,-22.94921875,-46.44775390625
1.9087498999999999,6.754043102264404,-5.231330871582031,2.9903578758239746,21.0418701171875,-22.0489501953125,-46.0662841796875
1.9112499,6.694188117980957,-5.207388877868652,3.026270866394043,20.9503173828125,-21.2860107421875,-45.5474853515625
1.9137499,6.6127848625183105,-5.169081687927246,3.0526070594787598,21.1334228515625,-20.233154296875,-44.98291015625
1.9162499,6.543353080749512,-5.142745018005371,3.0813376903533936,21.1639404296875,-19.4854736328125,-44.647216796875
1.9187499,6.464344501495361,-5.106832027435303,3.1028854846954346,21.2554931640625,-18.798828125,-43.8385009765625
1.9212498999999998,6.3973069190979,-5.082890033721924,3.1268274784088135,21.17919921875,-17.9595947265625,-43.39599609375
1.9237499,6.315904140472412,-5.058948040008545,3.1435868740081787,21.2860107421875,-17.0440673828125,-42.7703857421875
1.9262499,6.244078159332275,-5.039794445037842,3.162740468978882,21.575927734375,-16.0980224609375,-42.205810546875
1.9287499,6.160281181335449,-5.0254292488098145,3.1699230670928955,21.6827392578125,-15.3656005859375,-41.44287109375
1.9312498999999999,6.069301128387451,-4.991910457611084,3.181894063949585,22.0947265625,-14.7705078125,-40.5426025390625
1.9337499,5.987898349761963,-4.975151062011719,3.184288263320923,21.9879150390625,-14.068603515625,-39.8712158203125
1.9362499,5.899312973022461,-4.946420669555664,3.181894063949585,22.3541259765625,-13.1683349609375,-39.031982421875
1.9387499,5.837063789367676,-4.927267074584961,3.179499864578247,22.8118896484375,-12.481689453125,-38.26904296875
1.9412498999999999,5.767632007598877,-4.908113479614258,3.1723172664642334,23.1475830078125,-11.90185546875,-37.0330810546875
1.9437499,5.702988624572754,-4.881777286529541,3.1675288677215576,23.5748291015625,-10.9710693359375,-36.3006591796875
1.9462499,5.628767967224121,-4.8482584953308105,3.162740468978882,23.6663818359375,-10.43701171875,-35.4766845703125
1.9487499,5.56173038482666,-4.81473970413208,3.1675288677215576,24.1241455078125,-9.7808837890625,-34.2254638671875
1.9512498999999999,5.489904403686523,-4.7836151123046875,3.1651346683502197,24.4598388671875,-9.2315673828125,-32.8521728515625
1.9537499,5.432443618774414,-4.759673118591309,3.1675288677215576,24.9786376953125,-8.758544921875,-31.829833984375
1.9562499,5.3797712326049805,-4.747702121734619,3.1651346683502197,25.5126953125,-8.23974609375,-30.4412841796875
1.9587499,5.324704647064209,-4.73573112487793,3.155557870864868,26.2298583984375,-7.6904296875,-28.9306640625
1.9612498999999999,5.272032260894775,-4.711789131164551,3.1459810733795166,26.641845703125,-7.293701171875,-27.9388427734375
1.9637499,5.231330871582031,-4.692635536193848,3.136404275894165,26.763916015625,-6.8511962890625,-26.3519287109375
1.9662499,5.188235282897949,-4.651933670043945,3.114856481552124,27.374267578125,-6.34765625,-24.7650146484375
1.9687499,5.154716491699219,-4.618414878845215,3.090914487838745,27.6641845703125,-5.9967041015625,-23.49853515625
1.9712498999999999,5.123591423034668,-4.577713489532471,3.050212860107422,28.0303955078125,-5.4931640625,-22.15576171875
1.9737499,5.085284233093262,-4.541800498962402,2.9927520751953125,28.4576416015625,-5.2337646484375,-20.69091796875
1.9762499,5.044582843780518,-4.496310710906982,2.937685489654541,28.38134765625,-5.1422119140625,-19.287109375
1.9787499,5.015852451324463,-4.4508209228515625,2.8802247047424316,28.472900390625,-4.852294921875,-17.9443359375
1.9812499,4.999093055725098,-4.400542736053467,2.8395233154296875,28.4576416015625,-4.669189453125,-16.4794921875
1.9837499,5.008669853210449,-4.352658748626709,2.808398485183716,28.778076171875,-4.364013671875,-15.2587890625
1.9862499,5.032611846923828,-4.304774761199951,2.786850690841675,28.8238525390625,-4.1351318359375,-13.946533203125
1.9887499,5.066130638122559,-4.256890773773193,2.765302896499634,28.533935546875,-4.1351318359375,-12.664794921875
1.9912499,5.094861030578613,-4.2090067863464355,2.7533318996429443,28.1829833984375,-4.119873046875,-11.2152099609375
1.9937498999999999,5.116408824920654,-4.163516521453857,2.7293899059295654,27.7862548828125,-3.72314453125,-9.9334716796875
1.9962499,5.125985622406006,-4.120420932769775,2.7078421115875244,27.2216796875,-3.2196044921875,-8.7127685546875
1.9987499,5.123591423034668,-4.082113742828369,2.6791117191314697,26.7486572265625,-2.9144287109375,-7.38525390625
2.0012499,5.114014625549316,-4.046200752258301,2.6455929279327393,26.1688232421875,-2.86865234375,-6.103515625
2.0037499,5.104437828063965,-4.017470359802246,2.612074136734009,25.3143310546875,-2.6092529296875,-4.8370361328125
2.0062499,5.109226226806641,-3.993528366088867,2.5737667083740234,24.4598388671875,-2.3651123046875,-3.6773681640625
2.0087498999999998,5.130774021148682,-3.976768970489502,2.535459518432617,23.9715576171875,-2.50244140625,-2.532958984375
2.0112499,5.188235282897949,-3.955221176147461,2.499546527862549,22.7203369140625,-2.2430419921875,-1.5716552734375
2.0137499,5.262455463409424,-3.9480385780334473,2.4684219360351562,21.30126953125,-1.8157958984375,-0.213623046875
2.0162499,5.348646640777588,-3.936067581176758,2.451662540435791,20.1873779296875,-1.5716552734375,0.9002685546875
2.0187499,5.4444146156311035,-3.9408559799194336,2.4444799423217773,19.1650390625,-1.28173828125,1.9073486328125
2.0212499,5.525817394256592,-3.9432501792907715,2.4372973442077637,17.791748046875,-0.885009765625,2.9449462890625
2.0237499,5.592854976654053,-3.955221176147461,2.434903144836426,16.4031982421875,-0.4425048828125,4.0130615234375
2.0262499,5.640739440917969,-3.9647979736328125,2.406172752380371,15.2740478515625,0.0762939453125,5.1727294921875
2.0287498999999998,5.676652431488037,-3.976768970489502,2.387019157409668,13.9007568359375,0.54931640625,6.2103271484375
2.0312499,5.702988624572754,-4.000710964202881,2.3511061668395996,12.1307373046875,1.068115234375,7.2479248046875
2.0337499,5.726930618286133,-4.0294413566589355,2.31758713722229,10.986328125,1.708984375,8.2244873046875
2.0362499,5.750872611999512,-4.065354347229004,2.2912509441375732,9.9334716796875,2.3040771484375,9.0789794921875
2.0387499,5.779603004455566,-4.101267337799072,2.2577321529388428,8.7738037109375,2.685546875,10.0555419921875
2.0412499,5.813121795654297,-4.134786128997803,2.231395959854126,7.4615478515625,3.265380859375,11.0626220703125
2.0437499,5.841852188110352,-4.173093795776367,2.205059766769409,6.2103271484375,3.875732421875,12.1612548828125
2.0462499,5.868188381195068,-4.206612586975098,2.185906171798706,5.2337646484375,4.1656494140625,13.0157470703125
2.0487499,5.896918773651123,-4.285621166229248,2.1547815799713135,2.5787353515625,5.06591796875,14.892578125
2.0512498999999997,5.913678169250488,-4.331110954284668,2.1332337856292725,1.8157958984375,5.5389404296875,15.8538818359375
2.0537499,5.928043365478516,-4.381389141082764,2.099714994430542,1.0223388671875,6.0272216796875,16.7999267578125
2.0562499,5.942408561706543,-4.431667327880859,2.0638017654418945,0.1678466796875,6.591796875,17.974853515625
2.0587499,5.944802761077881,-4.486733913421631,2.027888774871826,-0.6256103515625,7.0037841796875,18.5699462890625
2.0612499,5.9304375648498535,-4.534617900848389,1.9943699836730957,-1.8463134765625,7.50732421875,19.5465087890625
2.0637499,5.9088897705078125,-4.575319290161133,1.9488801956176758,-2.685546875,8.0108642578125,20.6146240234375
2.0662499,5.875370979309082,-4.623203277587891,1.9033904075622559,-3.3416748046875,8.11767578125,21.66748046875
2.0687499,5.846640586853027,-4.680664539337158,1.8483237028121948,-3.814697265625,8.758544921875,22.3846435546875
2.0712498999999998,5.822698593139648,-4.745307922363281,1.7908629179000854,-4.180908203125,9.0789794921875,23.4375
2.0737499,5.810727596282959,-4.8051629066467285,1.7381904125213623,-4.730224609375,9.368896484375,24.4140625
2.0762499,5.7987565994262695,-4.857835292816162,1.6879122257232666,-5.2032470703125,9.6588134765625,25.3448486328125
2.0787499,5.791574001312256,-4.884171485900879,1.6400281190872192,-5.79833984375,10.0555419921875,26.5960693359375
2.0812499,5.78678560256958,-4.90571928024292,1.6065093278884888,-6.7596435546875,10.772705078125,27.3590087890625
2.0837499,5.784391403198242,-4.929661273956299,1.577778935432434,-7.5836181640625,11.260986328125,28.3966064453125
2.0862499,5.7772088050842285,-4.9583916664123535,1.5610195398330688,-7.9193115234375,11.53564453125,29.47998046875
2.0887499,5.762843608856201,-5.003881454467773,1.5442601442337036,-8.4381103515625,12.0086669921875,30.364990234375
2.0912498999999998,5.7341132164001465,-5.044582843780518,1.534683346748352,-9.0179443359375,12.14599609375,31.646728515625
2.0937499,5.702988624572754,-5.080495834350586,1.50355863571167,-9.46044921875,12.51220703125,32.7911376953125
2.0962499,5.679046630859375,-5.1116204261779785,1.4772224426269531,-9.3536376953125,13.0615234375,33.6761474609375
2.0987499,5.664681434631348,-5.125985622406006,1.434126853942871,-9.613037109375,13.8702392578125,34.881591796875
2.1012499,5.664681434631348,-5.130774021148682,1.4053963422775269,-10.2386474609375,14.6026611328125,35.9649658203125
2.1037499,5.671864032745361,-5.12119722366333,1.3838485479354858,-10.6353759765625,15.0146484375,37.0941162109375
2.1062499,5.686229228973389,-5.1116204261779785,1.3718775510787964,-10.772705078125,15.5029296875,38.177490234375
2.1087499,5.719748020172119,-5.109226226806641,1.3742717504501343,-11.3525390625,16.0369873046875,39.2303466796875
2.1112499,5.774814605712891,-5.123591423034668,1.37906014919281,-11.5509033203125,16.5863037109375,40.5426025390625
2.1137498999999997,5.827486991882324,-5.154716491699219,1.3934253454208374,-11.3983154296875,17.27294921875,41.8548583984375
2.1162499,5.896918773651123,-5.202600479125977,1.4197616577148438,-11.3372802734375,17.791748046875,43.1365966796875
2.1187499,5.949591159820557,-5.250484466552734,1.4460978507995605,-11.1083984375,18.341064453125,44.2962646484375
2.1212499,5.992686748504639,-5.286397457122803,1.4844050407409668,-10.9710693359375,19.1802978515625,45.623779296875
2.1237499,6.0190229415893555,-5.310339450836182,1.5155296325683594,-10.528564453125,20.172119140625,46.9512939453125
2.1262499,6.026205539703369,-5.3127336502075195,1.5394717454910278,-9.8876953125,20.6298828125,48.6602783203125
2.1287499,6.0190229415893555,-5.307945251464844,1.558625340461731,-9.552001953125,21.4691162109375,50.0030517578125
2.1312499,6.004657745361328,-5.305551052093506,1.5729905366897583,-9.4146728515625,22.5067138671875,51.4678955078125
2.1337498999999998,5.978321552276611,-5.298368453979492,1.5705963373184204,-8.9111328125,23.4222412109375,53.1005859375
2.1362499,5.95677375793457,-5.307945251464844,1.5658079385757446,-8.880615234375,24.0020751953125,54.7637939453125
2.1387499,5.935225963592529,-5.317522048950195,1.5490485429763794,-8.4991455078125,24.749755859375,56.610107421875
2.1412499,5.918466567993164,-5.327098846435547,1.525106430053711,-7.598876953125,25.6805419921875,58.197021484375
2.1437499,5.901707172393799,-5.341464042663574,1.5083470344543457,-7.3699951171875,26.6265869140625,59.7381591796875
2.1462499,5.8873419761657715,-5.34625244140625,1.4891934394836426,-7.080078125,27.557373046875,61.4166259765625
2.1487499,5.856217384338379,-5.3342814445495605,1.4652514457702637,-6.5765380859375,28.4271240234375,63.262939453125
2.1512499,5.817910194396973,-5.317522048950195,1.4460978507995605,-6.4849853515625,29.2816162109375,64.88037109375
2.1537498999999998,5.7556610107421875,-5.295974254608154,1.4269442558288574,-6.3018798828125,30.0140380859375,66.9403076171875
2.1562499,5.674258232116699,-5.257667064666748,1.3982137441635132,-6.134033203125,30.7769775390625,68.7255859375
2.1587499,5.571307182312012,-5.228936672210693,1.3694833517074585,-6.16455078125,31.3873291015625,70.5413818359375
2.1612499,5.47075080871582,-5.2049946784973145,1.316810965538025,-6.195068359375,31.8145751953125,72.6165771484375
2.1637499,5.360617637634277,-5.183446884155273,1.2449848651885986,-6.1492919921875,32.53173828125,74.6002197265625
2.1662499,5.260061264038086,-5.171475887298584,1.161187767982483,-6.4544677734375,32.989501953125,76.4923095703125
2.1687499,5.157110691070557,-5.152322292327881,1.0678139925003052,-7.0648193359375,33.538818359375,78.67431640625
2.1712499,5.04218864440918,-5.106832027435303,0.9720458984375,-7.5225830078125,34.0728759765625,80.4290771484375
2.1737499,4.927267074584961,-5.054159641265869,0.8906430602073669,-8.6212158203125,34.332275390625,82.305908203125
2.1762499,4.8051629066467285,-4.991910457611084,0.8020575642585754,-9.7503662109375,34.5306396484375,84.3353271484375
2.1787499,4.675876140594482,-4.9368438720703125,0.7230489253997803,-10.9710693359375,34.820556640625,86.24267578125
2.1812499,4.534617900848389,-4.900930881500244,0.6416460275650024,-12.298583984375,35.1409912109375,88.2415771484375
2.1837499,4.383783340454102,-4.869806289672852,0.5554547905921936,-13.9617919921875,35.552978515625,90.2557373046875
2.1862499,4.225766181945801,-4.857835292816162,0.47165772318840027,-15.350341796875,35.5377197265625,91.9952392578125
2.1887499,4.0533833503723145,-4.841075897216797,0.37828385829925537,-17.0440673828125,35.675048828125,94.0704345703125
2.1912499,3.88818359375,-4.845864295959473,0.2944868206977844,-18.8751220703125,35.736083984375,96.160888671875
2.1937499,3.7229835987091064,-4.841075897216797,0.20350714027881622,-20.56884765625,35.614013671875,98.052978515625
2.1962498999999998,3.5625722408294678,-4.850652694702148,0.1173158809542656,-22.796630859375,35.6292724609375,100.28076171875
2.1987499,3.421314239501953,-4.865017890930176,0.035913024097681046,-24.688720703125,35.5682373046875,102.294921875
2.2012499,3.287238836288452,-4.886565685272217,-0.047884032130241394,-26.79443359375,35.4461669921875,104.522705078125
2.2037499,3.1531636714935303,-4.917690277099609,-0.12689268589019775,-28.62548828125,35.2325439453125,106.4910888671875
2.2062499,3.023876667022705,-4.9583916664123535,-0.22266076505184174,-30.7769775390625,34.698486328125,108.82568359375
2.2087499,2.8850131034851074,-5.011064052581787,-0.3208230137825012,-32.440185546875,34.5306396484375,111.083984375
2.2112499,2.7485435009002686,-5.070919036865234,-0.4405331015586853,-33.87451171875,34.1033935546875,113.6016845703125
2.2137499,2.612074136734009,-5.157110691070557,-0.569819986820221,-35.7666015625,33.8287353515625,116.0125732421875
2.2162498999999998,2.4803929328918457,-5.2480902671813965,-0.6991068720817566,-37.567138671875,33.203125,118.6981201171875
2.2187499,2.367865562438965,-5.355829238891602,-0.8355764150619507,-39.215087890625,33.26416015625,121.673583984375
2.2212499,2.274491548538208,-5.461174011230469,-0.9600749015808105,-40.6036376953125,32.806396484375,124.4049072265625
2.2237499,2.2146365642547607,-5.559336185455322,-1.0773907899856567,-42.144775390625,32.501220703125,127.0294189453125
2.2262499,2.1787235736846924,-5.6455278396606445,-1.1851298809051514,-44.2047119140625,32.2113037109375,129.9591064453125
2.2287499,2.1763293743133545,-5.722142219543457,-1.2617442607879639,-45.5780029296875,32.135009765625,133.148193359375
2.2312499,2.183511972427368,-5.7772088050842285,-1.3311761617660522,-47.271728515625,31.8603515625,136.1236572265625
2.2337499,2.2002713680267334,-5.825092792510986,-1.37906014919281,-49.1180419921875,31.829833984375,139.0533447265625
2.2362499,2.209848165512085,-5.87776517868042,-1.4245500564575195,-50.933837890625,31.707763671875,142.059326171875
2.2387499,2.209848165512085,-5.9304375648498535,-1.4700398445129395,-52.7496337890625,31.67724609375,145.3704833984375
2.2412499,2.1978771686553955,-6.009446144104004,-1.522712230682373,-54.74853515625,31.7840576171875,148.4832763671875
2.2437499,2.185906171798706,-6.100425720214844,-1.5873557329177856,-56.5643310546875,31.8603515625,151.5045166015625
2.2462499,2.1571757793426514,-6.210559368133545,-1.6615760326385498,-58.5174560546875,32.2418212890625,154.8004150390625
2.2487499,2.1380221843719482,-6.3302693367004395,-1.7525556087493896,-60.6536865234375,32.5775146484375,158.111572265625
2.2512499,2.1332337856292725,-6.461950302124023,-1.8483237028121948,-62.469482421875,33.02001953125,161.5753173828125
2.2537499,2.1475989818573,-6.584054470062256,-1.9512743949890137,-64.5294189453125,33.69140625,164.886474609375
2.2562499,2.185906171798706,-6.703764915466309,-2.054224967956543,-66.8182373046875,34.393310546875,168.243408203125
2.2587498999999998,2.2361843585968018,-6.813898086547852,-2.161964178085327,-68.878173828125,35.308837890625,171.539306640625
2.2612499,2.3582887649536133,-7.0126166343688965,-2.3702597618103027,-73.8372802734375,36.9873046875,178.0242919921875
2.2637499,2.432508945465088,-7.105990409851074,-2.4899697303771973,-76.5380859375,37.9638671875,181.2744140625
2.2662499,2.5019407272338867,-7.201758861541748,-2.6216509342193604,-79.2083740234375,38.9556884765625,184.600830078125
2.2687499,2.561795711517334,-7.3023152351379395,-2.779668092727661,-81.9854736328125,40.1611328125,188.140869140625
2.2712499,2.6001031398773193,-7.422025203704834,-2.964021682739258,-84.808349609375,41.473388671875,191.2841796875
2.2737499,2.6216509342193604,-7.565677165985107,-3.160346269607544,-87.738037109375,42.6177978515625,194.39697265625
2.2762499,2.6360161304473877,-7.733271598815918,-3.361459255218506,-90.7440185546875,44.097900390625,197.1893310546875
2.2787498999999998,2.6647465229034424,-7.915230751037598,-3.5482068061828613,-93.75,45.654296875,200.225830078125
2.2812499,2.7006595134735107,-8.106766700744629,-3.7205893993377686,-97.22900390625,47.30224609375,203.0792236328125
2.2837499,2.765302896499634,-8.300697326660156,-3.864241600036621,-100.5706787109375,48.8433837890625,205.902099609375
2.2862499,2.8443117141723633,-8.49941635131836,-3.993528366088867,-104.1717529296875,50.7965087890625,208.7249755859375
2.2887499,2.942473888397217,-8.695740699768066,-4.106055736541748,-107.5897216796875,52.581787109375,211.60888671875
2.2912499,3.045424461364746,-8.901641845703125,-4.201824188232422,-111.114501953125,54.4586181640625,214.1265869140625
2.2937499,3.134010076522827,-9.117119789123535,-4.2975921630859375,-114.7308349609375,56.3507080078125,216.796875
2.2962499,3.2082302570343018,-9.349357604980469,-4.359841346740723,-118.8812255859375,57.9833984375,219.390869140625
2.2987499,3.265691041946411,-9.607931137084961,-4.424484729766846,-122.6806640625,59.478759765625,221.832275390625
2.3012499,3.31118106842041,-9.890447616577148,-4.484339714050293,-126.5869140625,61.6607666015625,223.7701416015625
2.3037499,3.3686418533325195,-10.187328338623047,-4.563348293304443,-130.06591796875,63.8427734375,225.738525390625
2.3062499,3.4308910369873047,-10.488997459411621,-4.666299343109131,-133.026123046875,66.436767578125,227.691650390625
2.3087499,3.509899616241455,-10.769119262695312,-4.795586109161377,-136.41357421875,69.3206787109375,229.2327880859375
2.3112499,3.60566782951355,-11.03248119354248,-4.932055473327637,-140.1214599609375,71.9146728515625,230.5755615234375
2.3137499,3.711012601852417,-11.27190113067627,-5.054159641265869,-144.2108154296875,74.6002197265625,231.93359375
2.3162499,3.8355112075805664,-11.5065336227417,-5.1595048904418945,-148.0865478515625,77.3773193359375,233.154296875
2.3187499,3.9695863723754883,-11.753135681152344,-5.236119270324707,-151.824951171875,79.833984375,234.2987060546875
2.3212498999999998,4.1180267333984375,-12.023680686950684,-5.293580055236816,-155.7159423828125,82.061767578125,235.0006103515625
2.3237499,4.261679172515869,-12.318167686462402,-5.348646640777588,-159.1644287109375,84.6099853515625,235.7635498046875
2.3262499,4.402936935424805,-12.643778800964355,-5.420472621917725,-162.4603271484375,86.944580078125,236.2823486328125
2.3287499,4.517858505249023,-13.014880180358887,-5.506663799285889,-165.5120849609375,89.0960693359375,236.785888671875
2.3312499,4.627991676330566,-13.400346755981445,-5.600037574768066,-167.999267578125,91.30859375,237.1978759765625
2.3337499,4.728548526763916,-13.800178527832031,-5.688623428344727,-170.3338623046875,93.963623046875,237.396240234375
2.3362499,4.845864295959473,-14.197615623474121,-5.750872611999512,-172.7294921875,96.6949462890625,237.7166748046875
2.3387499,4.963180065155029,-14.578293800354004,-5.796362400054932,-175.048828125,99.3499755859375,238.0828857421875
2.3412498999999998,5.0900726318359375,-14.963760375976562,-5.803544998168945,-176.94091796875,101.837158203125,238.3270263671875
2.3437499,5.200206279754639,-15.351621627807617,-5.779603004455566,-178.8330078125,104.400634765625,238.95263671875
2.3462499,5.310339450836182,-15.739481925964355,-5.7341132164001465,-180.1300048828125,107.1319580078125,239.19677734375
2.3487499,5.420472621917725,-16.127342224121094,-5.669469833374023,-181.1065673828125,109.3902587890625,239.6392822265625
2.3512499,5.544970989227295,-16.503232955932617,-5.609614372253418,-182.647705078125,111.907958984375,239.9444580078125
2.3537499,5.671864032745361,-16.859968185424805,-5.556941986083984,-183.8531494140625,114.5477294921875,239.8529052734375
2.3562499,5.793968200683594,-17.216705322265625,-5.513846397399902,-184.9517822265625,116.8975830078125,239.8223876953125
2.3587499,5.884947776794434,-17.573440551757812,-5.47075080871582,-185.9130859375,119.5220947265625,240.0360107421875
2.3612499,5.9519853591918945,-17.951725006103516,-5.413290023803711,-186.3555908203125,121.5667724609375,239.7613525390625
2.3637499,5.985504150390625,-18.325220108032227,-5.339069843292236,-186.70654296875,123.22998046875,239.2120361328125
2.3662499,6.0190229415893555,-18.70829200744629,-5.224148273468018,-187.469482421875,124.7406005859375,238.525390625
2.3687499,6.052541732788086,-19.06742286682129,-5.102043628692627,-188.1103515625,126.373291015625,237.5640869140625
2.3712499,6.107608318328857,-19.416975021362305,-4.955997467041016,-188.690185546875,127.685546875,236.2060546875
2.3737499,6.1770405769348145,-19.766529083251953,-4.819528102874756,-189.605712890625,129.08935546875,234.86328125
2.3762499,6.270414352416992,-20.12087059020996,-4.6950297355651855,-190.032958984375,130.279541015625,233.0474853515625
2.3787499,6.382941722869873,-20.47042465209961,-4.58968448638916,-190.4144287109375,131.439208984375,230.77392578125
2.3812499,6.519411087036133,-20.803218841552734,-4.496310710906982,-191.131591796875,132.537841796875,227.996826171875
2.3837498999999998,6.655880928039551,-21.114465713500977,-4.41969633102417,-192.0318603515625,133.72802734375,224.8077392578125
2.3862499,6.775590896606445,-21.406557083129883,-4.3191399574279785,-192.81005859375,134.6282958984375,221.466064453125
2.3887499,6.861782073974609,-21.715410232543945,-4.1874589920043945,-193.7713623046875,134.765625,217.83447265625
2.3912499,6.921637058258057,-22.029048919677734,-4.01268196105957,-194.580078125,134.94873046875,213.775634765625
2.3937499,6.9910688400268555,-22.378602981567383,-3.8091750144958496,-195.2056884765625,134.857177734375,209.1217041015625
2.3962499,7.089231014251709,-22.7161865234375,-3.5913026332855225,-195.5108642578125,134.857177734375,204.5135498046875
2.3987499,7.240066051483154,-23.053768157958984,-3.3710360527038574,-196.044921875,134.8876953125,199.1729736328125
2.4012499,7.443572998046875,-23.367408752441406,-3.162740468978882,-196.7620849609375,134.674072265625,193.8018798828125
2.4037498999999998,7.6782050132751465,-23.671472549438477,-2.9520506858825684,-197.1282958984375,134.1705322265625,187.9119873046875
2.4062499,7.931990146636963,-23.970746994018555,-2.7437551021575928,-197.509765625,133.453369140625,181.6558837890625
2.4087499,8.195352554321289,-24.284387588500977,-2.5043349266052246,-197.69287109375,132.87353515625,175.0640869140625
2.4112499,8.465897560119629,-24.600421905517578,-2.2433669567108154,-197.906494140625,131.866455078125,168.0755615234375
2.4137499,8.753201484680176,-24.945186614990234,-1.9393033981323242,-198.394775390625,130.7220458984375,161.0870361328125
2.4162499,9.066842079162598,-25.292346954345703,-1.6089035272598267,-198.8067626953125,129.45556640625,154.144287109375
2.4187499,9.397241592407227,-25.668235778808594,-1.256955862045288,-198.8525390625,128.082275390625,146.7742919921875
2.4212499,9.742006301879883,-26.070463180541992,-0.8810662031173706,-198.9593505859375,126.1444091796875,138.9923095703125
2.4237499,10.086771965026855,-26.501419067382812,-0.49559974670410156,-198.8372802734375,124.2828369140625,131.4239501953125
2.4262499,10.44350814819336,-26.929981231689453,-0.10773907601833344,-197.9217529296875,121.856689453125,123.7640380859375
2.4287499,10.828974723815918,-27.34178352355957,0.26815059781074524,-197.2198486328125,119.415283203125,115.814208984375
2.4312499,11.259930610656738,-27.686548233032227,0.6057330369949341,-196.7926025390625,116.76025390625,107.6507568359375
2.4337499,11.731588363647461,-27.95230484008789,0.9097966551780701,-196.441650390625,114.1510009765625,99.1363525390625
2.4362499,12.227188110351562,-28.12229347229004,1.1851298809051514,-196.5789794921875,111.4959716796875,90.179443359375
2.4387499,12.72996997833252,-28.19890785217285,1.455674648284912,-196.7315673828125,108.45947265625,81.0394287109375
2.4412499,13.24472427368164,-28.17975425720215,1.7310078144073486,-197.2198486328125,105.28564453125,71.258544921875
2.4437499,13.785813331604004,-28.086380004882812,2.070984363555908,-198.1964111328125,101.654052734375,60.85205078125
2.4462498999999998,14.362815856933594,-27.94512176513672,2.5115175247192383,-199.2340087890625,97.8546142578125,50.0030517578125
2.4487499,14.980520248413086,-27.779922485351562,3.0813376903533936,-199.951171875,93.7652587890625,38.87939453125
2.4512499,15.641319274902344,-27.624300003051758,3.8139634132385254,-200.836181640625,89.2791748046875,27.4658203125
2.4537499,16.326061248779297,-27.471071243286133,4.663905143737793,-201.4923095703125,84.3048095703125,15.68603515625
2.4562499,17.039533615112305,-27.327417373657227,5.595249176025391,-202.45361328125,78.7353515625,3.9215087890625
2.4587499,17.73863983154297,-27.1741886138916,6.536170482635498,-203.7200927734375,72.662353515625,-8.23974609375
2.4612499,18.4257755279541,-27.030536651611328,7.448361396789551,-204.3914794921875,66.2384033203125,-20.263671875
2.4637499,19.065027236938477,-26.886884689331055,8.29590892791748,-204.681396484375,59.6923828125,-32.562255859375
2.4662498999999998,19.637243270874023,-26.759992599487305,9.107542991638184,-205.169677734375,53.4515380859375,-45.013427734375
2.4687499,20.159177780151367,-26.657041549682617,9.914389610290527,-205.6427001953125,47.4700927734375,-57.5408935546875
2.4712499,21.15037727355957,-26.520572662353516,11.693281173706055,-205.0933837890625,30.670166015625,-83.6029052734375
2.4737499,21.75611114501953,-26.467899322509766,12.686874389648438,-203.1707763671875,20.44677734375,-97.0458984375
2.4762499,22.455217361450195,-26.412832260131836,13.7666597366333,-201.2939453125,10.1470947265625,-110.8856201171875
2.4787499,23.20939064025879,-26.343400955200195,14.88475227355957,-199.4476318359375,-1.007080078125,-125.06103515625
2.4812499,23.915679931640625,-26.25481605529785,16.081851959228516,-195.9991455078125,-13.1988525390625,-139.34326171875
2.4837499,24.48550033569336,-26.149471282958984,17.295713424682617,-192.1234130859375,-26.6571044921875,-153.9459228515625
2.4862499,24.878149032592773,-26.032155990600586,18.52872657775879,-187.6983642578125,-40.8477783203125,-168.8079833984375
2.4887499,25.100811004638672,-25.902868270874023,19.754558563232422,-183.380126953125,-55.9234619140625,-184.295654296875
2.4912499,25.189395904541016,-25.754426956176758,20.96602439880371,-179.2144775390625,-71.3348388671875,-199.9664306640625
2.4937499,25.15827178955078,-25.5892276763916,22.12242317199707,-175.10986328125,-86.883544921875,-215.4998779296875
2.4962499,25.02419662475586,-25.39529800415039,23.2668514251709,-172.2412109375,-102.020263671875,-230.987548828125
2.4987499,24.770410537719727,-25.167848587036133,24.377761840820312,-170.3948974609375,-117.5994873046875,-246.58203125
2.5012499,24.36339569091797,-24.89969825744629,25.471912384033203,-169.1436767578125,-133.544921875,-261.9171142578125
2.5037499,23.807941436767578,-24.590845108032227,26.55409049987793,-169.1131591796875,-149.627685546875,-277.5726318359375
2.5062499,23.116018295288086,-24.250869750976562,27.59078025817871,-170.684814453125,-166.0003662109375,-293.365478515625
2.5087498999999998,22.30198860168457,-23.889345169067383,28.570009231567383,-172.882080078125,-182.31201171875,-308.9447021484375
2.5112499,21.392192840576172,-23.549367904663086,29.46544075012207,-176.5899658203125,-198.0743408203125,-324.2645263671875
2.5137499,20.4129638671875,-23.245304107666016,30.253131866455078,-180.9539794921875,-213.6077880859375,-339.3402099609375
2.5162499,19.38585090637207,-22.991518020629883,30.906749725341797,-186.004638671875,-228.7750244140625,-354.43115234375
2.5187499,18.3324031829834,-22.795194625854492,31.419109344482422,-192.779541015625,-243.2708740234375,-369.6441650390625
2.5212499,17.274166107177734,-22.670696258544922,31.77345085144043,-200.6988525390625,-257.0953369140625,-384.3536376953125
2.5237499,16.201562881469727,-22.637176513671875,32.00808334350586,-208.7554931640625,-270.4315185546875,-398.895263671875
2.5262499,15.107412338256836,-22.742521286010742,32.120609283447266,-217.1630859375,-283.782958984375,-413.0706787109375
2.5287498999999998,14.020444869995117,-22.98194122314453,32.19961929321289,-224.7161865234375,-297.1649169921875,-427.0477294921875
2.5312499,12.931083679199219,-23.38656234741211,32.13737106323242,-231.0028076171875,-310.2264404296875,-441.2384033203125
2.5337499,11.834539413452148,-23.9420166015625,32.120609283447266,-236.1602783203125,-322.845458984375,-455.0323486328125
2.5362499,10.733205795288086,-24.638729095458984,32.02005386352539,-239.7918701171875,-335.693359375,-468.3990478515625
2.5387499,9.557653427124023,-25.445575714111328,31.936256408691406,-241.3330078125,-348.0987548828125,-481.658935546875
2.5412499,8.310274124145508,-26.30030632019043,31.811758041381836,-240.4937744140625,-360.1837158203125,-494.32373046875
2.5437499,6.959944248199463,-27.14785385131836,31.625009536743164,-238.525390625,-372.2991943359375,-500
2.5462499,5.52821159362793,-27.925968170166016,31.28742790222168,-235.3973388671875,-384.033203125,-500
2.5487499,4.043806552886963,-28.601133346557617,30.772674560546875,-231.14013671875,-395.172119140625,-500
2.5512499,2.5498247146606445,-29.161376953125,30.059202194213867,-225.7080078125,-406.3262939453125,-500
2.5537499,1.0319008827209473,-29.5947265625,29.147010803222656,-220.123291015625,-416.9158935546875,-500
2.5562499,-0.47884035110473633,-29.915550231933594,28.100746154785156,-213.9129638671875,-427.0782470703125,-500
2.5587499,-2.027888774871826,-30.114269256591797,26.958711624145508,-207.2906494140625,-437.2100830078125,-500
2.5612499,-3.643975019454956,-30.20524787902832,25.766399383544922,-200.8209228515625,-447.1893310546875,-500
2.5637499,-5.305551052093506,-30.181306838989258,24.55253791809082,-194.4580078125,-456.8634033203125,-500
2.5662499,-7.043741226196289,-30.056808471679688,23.300371170043945,-188.4765625,-466.064453125,-500
2.5687499,-8.868123054504395,-29.812599182128906,21.969194412231445,-182.037353515625,-474.5330810546875,-500
